slider_pre.response,slider_pre.rt,key_val.keys,key_val.rt,key_aro.keys,key_aro.rt,key_qual.keys,key_qual.rt,key_ncat.keys,key_ncat.rt,key_cats.keys,key_cats.rt,ncat_order.thisRepN,ncat_order.thisTrialN,ncat_order.thisN,ncat_order.thisIndex,ncat_order.ran,cond_cat,participant,age,gender,handedness (L/R),site (IMT/Donders),date,expName,psychopyVersion,OS,frameRate,img_trials.thisRepN,img_trials.thisTrialN,img_trials.thisN,img_trials.thisIndex,img_trials.ran,filename,slider_post.response,slider_post.rt,textbox_openfb.text
6,9.0011,num_1,3.2332,num_8,1.2201,num_9,1.1937,num_1,1.0281,num_2,0.5116,0,0,0,0,1,main,10,33,female,R,IMT,2021-07-16_00h07.25.208,ImageRatingTask_S4,2021.1.4,Win32,59.95563283,,,,,,,,,
,,,,,,,,,,,,0,1,1,1,1,second,10,33,female,R,IMT,2021-07-16_00h07.25.208,ImageRatingTask_S4,2021.1.4,Win32,59.95563283,,,,,,,,,
,,,,,,,,,,,,0,2,2,2,1,third,10,33,female,R,IMT,2021-07-16_00h07.25.208,ImageRatingTask_S4,2021.1.4,Win32,59.95563283,,,,,,,,,
,,,,,,,,,,,,0,3,3,3,1,fourth,10,33,female,R,IMT,2021-07-16_00h07.25.208,ImageRatingTask_S4,2021.1.4,Win32,59.95563283,,,,,,,,,
,,,,,,,,,,,,0,4,4,4,1,fifth,10,33,female,R,IMT,2021-07-16_00h07.25.208,ImageRatingTask_S4,2021.1.4,Win32,59.95563283,,,,,,,,,
,,,,,,,,,,,,0,5,5,5,1,sixth,10,33,female,R,IMT,2021-07-16_00h07.25.208,ImageRatingTask_S4,2021.1.4,Win32,59.95563283,,,,,,,,,
,,,,,,,,,,,,0,6,6,6,1,seventh,10,33,female,R,IMT,2021-07-16_00h07.25.208,ImageRatingTask_S4,2021.1.4,Win32,59.95563283,,,,,,,,,
,,,,,,,,,,,,0,7,7,7,1,last,10,33,female,R,IMT,2021-07-16_00h07.25.208,ImageRatingTask_S4,2021.1.4,Win32,59.95563283,,,,,,,,,
,,,,,,,,,,,,,,,,,,10,33,female,R,IMT,2021-07-16_00h07.25.208,ImageRatingTask_S4,2021.1.4,Win32,59.95563283,0,0,0,62,1,DreamStudyImages_rs1000x750g/Children/Faces_363_v.jpg,,,
,,num_7,3.9562,num_2,1.1177,num_9,1.0937,num_1,1.0547,num_3,0.7816,0,0,0,0,1,main,10,33,female,R,IMT,2021-07-16_00h07.25.208,ImageRatingTask_S4,2021.1.4,Win32,59.95563283,,,,,,,,,
,,,,,,,,,,,,0,1,1,1,1,second,10,33,female,R,IMT,2021-07-16_00h07.25.208,ImageRatingTask_S4,2021.1.4,Win32,59.95563283,,,,,,,,,
,,,,,,,,,,,,0,2,2,2,1,third,10,33,female,R,IMT,2021-07-16_00h07.25.208,ImageRatingTask_S4,2021.1.4,Win32,59.95563283,,,,,,,,,
,,,,,,,,,,,,0,3,3,3,1,fourth,10,33,female,R,IMT,2021-07-16_00h07.25.208,ImageRatingTask_S4,2021.1.4,Win32,59.95563283,,,,,,,,,
,,,,,,,,,,,,0,4,4,4,1,fifth,10,33,female,R,IMT,2021-07-16_00h07.25.208,ImageRatingTask_S4,2021.1.4,Win32,59.95563283,,,,,,,,,
,,,,,,,,,,,,0,5,5,5,1,sixth,10,33,female,R,IMT,2021-07-16_00h07.25.208,ImageRatingTask_S4,2021.1.4,Win32,59.95563283,,,,,,,,,
,,,,,,,,,,,,0,6,6,6,1,seventh,10,33,female,R,IMT,2021-07-16_00h07.25.208,ImageRatingTask_S4,2021.1.4,Win32,59.95563283,,,,,,,,,
,,,,,,,,,,,,0,7,7,7,1,last,10,33,female,R,IMT,2021-07-16_00h07.25.208,ImageRatingTask_S4,2021.1.4,Win32,59.95563283,,,,,,,,,
,,,,,,,,,,,,,,,,,,10,33,female,R,IMT,2021-07-16_00h07.25.208,ImageRatingTask_S4,2021.1.4,Win32,59.95563283,0,1,1,91,1,DreamStudyImages_rs1000x750g/Mammals/IAPS1811_apes.jpg,,,
,,num_5,2.225,num_1,1.0362,num_9,1.6355,num_1,0.3515,num_2,0.3774,0,0,0,0,1,main,10,33,female,R,IMT,2021-07-16_00h07.25.208,ImageRatingTask_S4,2021.1.4,Win32,59.95563283,,,,,,,,,
,,,,,,,,,,,,0,1,1,1,1,second,10,33,female,R,IMT,2021-07-16_00h07.25.208,ImageRatingTask_S4,2021.1.4,Win32,59.95563283,,,,,,,,,
,,,,,,,,,,,,0,2,2,2,1,third,10,33,female,R,IMT,2021-07-16_00h07.25.208,ImageRatingTask_S4,2021.1.4,Win32,59.95563283,,,,,,,,,
,,,,,,,,,,,,0,3,3,3,1,fourth,10,33,female,R,IMT,2021-07-16_00h07.25.208,ImageRatingTask_S4,2021.1.4,Win32,59.95563283,,,,,,,,,
,,,,,,,,,,,,0,4,4,4,1,fifth,10,33,female,R,IMT,2021-07-16_00h07.25.208,ImageRatingTask_S4,2021.1.4,Win32,59.95563283,,,,,,,,,
,,,,,,,,,,,,0,5,5,5,1,sixth,10,33,female,R,IMT,2021-07-16_00h07.25.208,ImageRatingTask_S4,2021.1.4,Win32,59.95563283,,,,,,,,,
,,,,,,,,,,,,0,6,6,6,1,seventh,10,33,female,R,IMT,2021-07-16_00h07.25.208,ImageRatingTask_S4,2021.1.4,Win32,59.95563283,,,,,,,,,
,,,,,,,,,,,,0,7,7,7,1,last,10,33,female,R,IMT,2021-07-16_00h07.25.208,ImageRatingTask_S4,2021.1.4,Win32,59.95563283,,,,,,,,,
,,,,,,,,,,,,,,,,,,10,33,female,R,IMT,2021-07-16_00h07.25.208,ImageRatingTask_S4,2021.1.4,Win32,59.95563283,0,2,2,30,1,DreamStudyImages_rs1000x750g/Children/Faces_055_h.jpg,,,
,,num_1,2.6468,num_9,0.3398,num_9,1.3158,num_1,8.3091,num_3,0.9014,0,0,0,0,1,main,10,33,female,R,IMT,2021-07-16_00h07.25.208,ImageRatingTask_S4,2021.1.4,Win32,59.95563283,,,,,,,,,
,,,,,,,,,,,,0,1,1,1,1,second,10,33,female,R,IMT,2021-07-16_00h07.25.208,ImageRatingTask_S4,2021.1.4,Win32,59.95563283,,,,,,,,,
,,,,,,,,,,,,0,2,2,2,1,third,10,33,female,R,IMT,2021-07-16_00h07.25.208,ImageRatingTask_S4,2021.1.4,Win32,59.95563283,,,,,,,,,
,,,,,,,,,,,,0,3,3,3,1,fourth,10,33,female,R,IMT,2021-07-16_00h07.25.208,ImageRatingTask_S4,2021.1.4,Win32,59.95563283,,,,,,,,,
,,,,,,,,,,,,0,4,4,4,1,fifth,10,33,female,R,IMT,2021-07-16_00h07.25.208,ImageRatingTask_S4,2021.1.4,Win32,59.95563283,,,,,,,,,
,,,,,,,,,,,,0,5,5,5,1,sixth,10,33,female,R,IMT,2021-07-16_00h07.25.208,ImageRatingTask_S4,2021.1.4,Win32,59.95563283,,,,,,,,,
,,,,,,,,,,,,0,6,6,6,1,seventh,10,33,female,R,IMT,2021-07-16_00h07.25.208,ImageRatingTask_S4,2021.1.4,Win32,59.95563283,,,,,,,,,
,,,,,,,,,,,,0,7,7,7,1,last,10,33,female,R,IMT,2021-07-16_00h07.25.208,ImageRatingTask_S4,2021.1.4,Win32,59.95563283,,,,,,,,,
,,,,,,,,,,,,,,,,,,10,33,female,R,IMT,2021-07-16_00h07.25.208,ImageRatingTask_S4,2021.1.4,Win32,59.95563283,0,3,3,127,1,DreamStudyImages_rs1000x750g/Mammals/Animals_075_h.jpg,,,
,,num_2,2.025,num_7,1.9346,num_8,3.4883,num_1,0.6837,num_2,0.623,0,0,0,0,1,main,10,33,female,R,IMT,2021-07-16_00h07.25.208,ImageRatingTask_S4,2021.1.4,Win32,59.95563283,,,,,,,,,
,,,,,,,,,,,,0,1,1,1,1,second,10,33,female,R,IMT,2021-07-16_00h07.25.208,ImageRatingTask_S4,2021.1.4,Win32,59.95563283,,,,,,,,,
,,,,,,,,,,,,0,2,2,2,1,third,10,33,female,R,IMT,2021-07-16_00h07.25.208,ImageRatingTask_S4,2021.1.4,Win32,59.95563283,,,,,,,,,
,,,,,,,,,,,,0,3,3,3,1,fourth,10,33,female,R,IMT,2021-07-16_00h07.25.208,ImageRatingTask_S4,2021.1.4,Win32,59.95563283,,,,,,,,,
,,,,,,,,,,,,0,4,4,4,1,fifth,10,33,female,R,IMT,2021-07-16_00h07.25.208,ImageRatingTask_S4,2021.1.4,Win32,59.95563283,,,,,,,,,
,,,,,,,,,,,,0,5,5,5,1,sixth,10,33,female,R,IMT,2021-07-16_00h07.25.208,ImageRatingTask_S4,2021.1.4,Win32,59.95563283,,,,,,,,,
,,,,,,,,,,,,0,6,6,6,1,seventh,10,33,female,R,IMT,2021-07-16_00h07.25.208,ImageRatingTask_S4,2021.1.4,Win32,59.95563283,,,,,,,,,
,,,,,,,,,,,,0,7,7,7,1,last,10,33,female,R,IMT,2021-07-16_00h07.25.208,ImageRatingTask_S4,2021.1.4,Win32,59.95563283,,,,,,,,,
,,,,,,,,,,,,,,,,,,10,33,female,R,IMT,2021-07-16_00h07.25.208,ImageRatingTask_S4,2021.1.4,Win32,59.95563283,0,4,4,124,1,DreamStudyImages_rs1000x750g/Children/IAPS3301_babyaccident2.jpg,,,
,,num_3,2.3818,num_5,1.4627,num_8,3.3287,num_1,0.5897,num_7,1.495,0,0,0,0,1,main,10,33,female,R,IMT,2021-07-16_00h07.25.208,ImageRatingTask_S4,2021.1.4,Win32,59.95563283,,,,,,,,,
,,,,,,,,,,,,0,1,1,1,1,second,10,33,female,R,IMT,2021-07-16_00h07.25.208,ImageRatingTask_S4,2021.1.4,Win32,59.95563283,,,,,,,,,
,,,,,,,,,,,,0,2,2,2,1,third,10,33,female,R,IMT,2021-07-16_00h07.25.208,ImageRatingTask_S4,2021.1.4,Win32,59.95563283,,,,,,,,,
,,,,,,,,,,,,0,3,3,3,1,fourth,10,33,female,R,IMT,2021-07-16_00h07.25.208,ImageRatingTask_S4,2021.1.4,Win32,59.95563283,,,,,,,,,
,,,,,,,,,,,,0,4,4,4,1,fifth,10,33,female,R,IMT,2021-07-16_00h07.25.208,ImageRatingTask_S4,2021.1.4,Win32,59.95563283,,,,,,,,,
,,,,,,,,,,,,0,5,5,5,1,sixth,10,33,female,R,IMT,2021-07-16_00h07.25.208,ImageRatingTask_S4,2021.1.4,Win32,59.95563283,,,,,,,,,
,,,,,,,,,,,,0,6,6,6,1,seventh,10,33,female,R,IMT,2021-07-16_00h07.25.208,ImageRatingTask_S4,2021.1.4,Win32,59.95563283,,,,,,,,,
,,,,,,,,,,,,0,7,7,7,1,last,10,33,female,R,IMT,2021-07-16_00h07.25.208,ImageRatingTask_S4,2021.1.4,Win32,59.95563283,,,,,,,,,
,,,,,,,,,,,,,,,,,,10,33,female,R,IMT,2021-07-16_00h07.25.208,ImageRatingTask_S4,2021.1.4,Win32,59.95563283,0,5,5,106,1,DreamStudyImages_rs1000x750g/Vehicles/IAPS9622_planecrash2.jpg,,,
,,num_2,4.3942,num_5,5.2706,num_9,1.0179,num_1,0.644,num_2,0.3009,0,0,0,0,1,main,10,33,female,R,IMT,2021-07-16_00h07.25.208,ImageRatingTask_S4,2021.1.4,Win32,59.95563283,,,,,,,,,
,,,,,,,,,,,,0,1,1,1,1,second,10,33,female,R,IMT,2021-07-16_00h07.25.208,ImageRatingTask_S4,2021.1.4,Win32,59.95563283,,,,,,,,,
,,,,,,,,,,,,0,2,2,2,1,third,10,33,female,R,IMT,2021-07-16_00h07.25.208,ImageRatingTask_S4,2021.1.4,Win32,59.95563283,,,,,,,,,
,,,,,,,,,,,,0,3,3,3,1,fourth,10,33,female,R,IMT,2021-07-16_00h07.25.208,ImageRatingTask_S4,2021.1.4,Win32,59.95563283,,,,,,,,,
,,,,,,,,,,,,0,4,4,4,1,fifth,10,33,female,R,IMT,2021-07-16_00h07.25.208,ImageRatingTask_S4,2021.1.4,Win32,59.95563283,,,,,,,,,
,,,,,,,,,,,,0,5,5,5,1,sixth,10,33,female,R,IMT,2021-07-16_00h07.25.208,ImageRatingTask_S4,2021.1.4,Win32,59.95563283,,,,,,,,,
,,,,,,,,,,,,0,6,6,6,1,seventh,10,33,female,R,IMT,2021-07-16_00h07.25.208,ImageRatingTask_S4,2021.1.4,Win32,59.95563283,,,,,,,,,
,,,,,,,,,,,,0,7,7,7,1,last,10,33,female,R,IMT,2021-07-16_00h07.25.208,ImageRatingTask_S4,2021.1.4,Win32,59.95563283,,,,,,,,,
,,,,,,,,,,,,,,,,,,10,33,female,R,IMT,2021-07-16_00h07.25.208,ImageRatingTask_S4,2021.1.4,Win32,59.95563283,0,6,6,40,1,DreamStudyImages_rs1000x750g/Children/Miserable face 2.jpg,,,
,,num_5,1.7045,num_1,0.4096,num_9,0.9207,num_1,1.3952,num_2,0.2892,0,0,0,0,1,main,10,33,female,R,IMT,2021-07-16_00h07.25.208,ImageRatingTask_S4,2021.1.4,Win32,59.95563283,,,,,,,,,
,,,,,,,,,,,,0,1,1,1,1,second,10,33,female,R,IMT,2021-07-16_00h07.25.208,ImageRatingTask_S4,2021.1.4,Win32,59.95563283,,,,,,,,,
,,,,,,,,,,,,0,2,2,2,1,third,10,33,female,R,IMT,2021-07-16_00h07.25.208,ImageRatingTask_S4,2021.1.4,Win32,59.95563283,,,,,,,,,
,,,,,,,,,,,,0,3,3,3,1,fourth,10,33,female,R,IMT,2021-07-16_00h07.25.208,ImageRatingTask_S4,2021.1.4,Win32,59.95563283,,,,,,,,,
,,,,,,,,,,,,0,4,4,4,1,fifth,10,33,female,R,IMT,2021-07-16_00h07.25.208,ImageRatingTask_S4,2021.1.4,Win32,59.95563283,,,,,,,,,
,,,,,,,,,,,,0,5,5,5,1,sixth,10,33,female,R,IMT,2021-07-16_00h07.25.208,ImageRatingTask_S4,2021.1.4,Win32,59.95563283,,,,,,,,,
,,,,,,,,,,,,0,6,6,6,1,seventh,10,33,female,R,IMT,2021-07-16_00h07.25.208,ImageRatingTask_S4,2021.1.4,Win32,59.95563283,,,,,,,,,
,,,,,,,,,,,,0,7,7,7,1,last,10,33,female,R,IMT,2021-07-16_00h07.25.208,ImageRatingTask_S4,2021.1.4,Win32,59.95563283,,,,,,,,,
,,,,,,,,,,,,,,,,,,10,33,female,R,IMT,2021-07-16_00h07.25.208,ImageRatingTask_S4,2021.1.4,Win32,59.95563283,0,7,7,1,1,DreamStudyImages_rs1000x750g/Water/Landscapes_169_h.jpg,,,
,,num_3,4.4917,num_4,1.4595,num_9,1.2951,num_1,0.859,num_5,7.4257,0,0,0,0,1,main,10,33,female,R,IMT,2021-07-16_00h07.25.208,ImageRatingTask_S4,2021.1.4,Win32,59.95563283,,,,,,,,,
,,,,,,,,,,,,0,1,1,1,1,second,10,33,female,R,IMT,2021-07-16_00h07.25.208,ImageRatingTask_S4,2021.1.4,Win32,59.95563283,,,,,,,,,
,,,,,,,,,,,,0,2,2,2,1,third,10,33,female,R,IMT,2021-07-16_00h07.25.208,ImageRatingTask_S4,2021.1.4,Win32,59.95563283,,,,,,,,,
,,,,,,,,,,,,0,3,3,3,1,fourth,10,33,female,R,IMT,2021-07-16_00h07.25.208,ImageRatingTask_S4,2021.1.4,Win32,59.95563283,,,,,,,,,
,,,,,,,,,,,,0,4,4,4,1,fifth,10,33,female,R,IMT,2021-07-16_00h07.25.208,ImageRatingTask_S4,2021.1.4,Win32,59.95563283,,,,,,,,,
,,,,,,,,,,,,0,5,5,5,1,sixth,10,33,female,R,IMT,2021-07-16_00h07.25.208,ImageRatingTask_S4,2021.1.4,Win32,59.95563283,,,,,,,,,
,,,,,,,,,,,,0,6,6,6,1,seventh,10,33,female,R,IMT,2021-07-16_00h07.25.208,ImageRatingTask_S4,2021.1.4,Win32,59.95563283,,,,,,,,,
,,,,,,,,,,,,0,7,7,7,1,last,10,33,female,R,IMT,2021-07-16_00h07.25.208,ImageRatingTask_S4,2021.1.4,Win32,59.95563283,,,,,,,,,
,,,,,,,,,,,,,,,,,,10,33,female,R,IMT,2021-07-16_00h07.25.208,ImageRatingTask_S4,2021.1.4,Win32,59.95563283,0,8,8,68,1,DreamStudyImages_rs1000x750g/Food/Objects_017_v.jpg,,,
,,num_7,3.1256,num_3,2.6391,num_9,0.9007,num_1,0.4863,num_3,0.7729,0,0,0,0,1,main,10,33,female,R,IMT,2021-07-16_00h07.25.208,ImageRatingTask_S4,2021.1.4,Win32,59.95563283,,,,,,,,,
,,,,,,,,,,,,0,1,1,1,1,second,10,33,female,R,IMT,2021-07-16_00h07.25.208,ImageRatingTask_S4,2021.1.4,Win32,59.95563283,,,,,,,,,
,,,,,,,,,,,,0,2,2,2,1,third,10,33,female,R,IMT,2021-07-16_00h07.25.208,ImageRatingTask_S4,2021.1.4,Win32,59.95563283,,,,,,,,,
,,,,,,,,,,,,0,3,3,3,1,fourth,10,33,female,R,IMT,2021-07-16_00h07.25.208,ImageRatingTask_S4,2021.1.4,Win32,59.95563283,,,,,,,,,
,,,,,,,,,,,,0,4,4,4,1,fifth,10,33,female,R,IMT,2021-07-16_00h07.25.208,ImageRatingTask_S4,2021.1.4,Win32,59.95563283,,,,,,,,,
,,,,,,,,,,,,0,5,5,5,1,sixth,10,33,female,R,IMT,2021-07-16_00h07.25.208,ImageRatingTask_S4,2021.1.4,Win32,59.95563283,,,,,,,,,
,,,,,,,,,,,,0,6,6,6,1,seventh,10,33,female,R,IMT,2021-07-16_00h07.25.208,ImageRatingTask_S4,2021.1.4,Win32,59.95563283,,,,,,,,,
,,,,,,,,,,,,0,7,7,7,1,last,10,33,female,R,IMT,2021-07-16_00h07.25.208,ImageRatingTask_S4,2021.1.4,Win32,59.95563283,,,,,,,,,
,,,,,,,,,,,,,,,,,,10,33,female,R,IMT,2021-07-16_00h07.25.208,ImageRatingTask_S4,2021.1.4,Win32,59.95563283,0,9,9,51,1,DreamStudyImages_rs1000x750g/Mammals/IAPS1661_orangutan.jpg,,,
,,num_5,1.5752,num_1,0.2934,num_9,0.9832,num_1,0.8837,num_7,0.7728,0,0,0,0,1,main,10,33,female,R,IMT,2021-07-16_00h07.25.208,ImageRatingTask_S4,2021.1.4,Win32,59.95563283,,,,,,,,,
,,,,,,,,,,,,0,1,1,1,1,second,10,33,female,R,IMT,2021-07-16_00h07.25.208,ImageRatingTask_S4,2021.1.4,Win32,59.95563283,,,,,,,,,
,,,,,,,,,,,,0,2,2,2,1,third,10,33,female,R,IMT,2021-07-16_00h07.25.208,ImageRatingTask_S4,2021.1.4,Win32,59.95563283,,,,,,,,,
,,,,,,,,,,,,0,3,3,3,1,fourth,10,33,female,R,IMT,2021-07-16_00h07.25.208,ImageRatingTask_S4,2021.1.4,Win32,59.95563283,,,,,,,,,
,,,,,,,,,,,,0,4,4,4,1,fifth,10,33,female,R,IMT,2021-07-16_00h07.25.208,ImageRatingTask_S4,2021.1.4,Win32,59.95563283,,,,,,,,,
,,,,,,,,,,,,0,5,5,5,1,sixth,10,33,female,R,IMT,2021-07-16_00h07.25.208,ImageRatingTask_S4,2021.1.4,Win32,59.95563283,,,,,,,,,
,,,,,,,,,,,,0,6,6,6,1,seventh,10,33,female,R,IMT,2021-07-16_00h07.25.208,ImageRatingTask_S4,2021.1.4,Win32,59.95563283,,,,,,,,,
,,,,,,,,,,,,0,7,7,7,1,last,10,33,female,R,IMT,2021-07-16_00h07.25.208,ImageRatingTask_S4,2021.1.4,Win32,59.95563283,,,,,,,,,
,,,,,,,,,,,,,,,,,,10,33,female,R,IMT,2021-07-16_00h07.25.208,ImageRatingTask_S4,2021.1.4,Win32,59.95563283,0,10,10,69,1,DreamStudyImages_rs1000x750g/Vehicles/whitecar.jpg,,,
,,num_5,4.1918,num_1,0.3363,num_9,0.8414,num_1,0.775,num_8,0.7445,0,0,0,0,1,main,10,33,female,R,IMT,2021-07-16_00h07.25.208,ImageRatingTask_S4,2021.1.4,Win32,59.95563283,,,,,,,,,
,,,,,,,,,,,,0,1,1,1,1,second,10,33,female,R,IMT,2021-07-16_00h07.25.208,ImageRatingTask_S4,2021.1.4,Win32,59.95563283,,,,,,,,,
,,,,,,,,,,,,0,2,2,2,1,third,10,33,female,R,IMT,2021-07-16_00h07.25.208,ImageRatingTask_S4,2021.1.4,Win32,59.95563283,,,,,,,,,
,,,,,,,,,,,,0,3,3,3,1,fourth,10,33,female,R,IMT,2021-07-16_00h07.25.208,ImageRatingTask_S4,2021.1.4,Win32,59.95563283,,,,,,,,,
,,,,,,,,,,,,0,4,4,4,1,fifth,10,33,female,R,IMT,2021-07-16_00h07.25.208,ImageRatingTask_S4,2021.1.4,Win32,59.95563283,,,,,,,,,
,,,,,,,,,,,,0,5,5,5,1,sixth,10,33,female,R,IMT,2021-07-16_00h07.25.208,ImageRatingTask_S4,2021.1.4,Win32,59.95563283,,,,,,,,,
,,,,,,,,,,,,0,6,6,6,1,seventh,10,33,female,R,IMT,2021-07-16_00h07.25.208,ImageRatingTask_S4,2021.1.4,Win32,59.95563283,,,,,,,,,
,,,,,,,,,,,,0,7,7,7,1,last,10,33,female,R,IMT,2021-07-16_00h07.25.208,ImageRatingTask_S4,2021.1.4,Win32,59.95563283,,,,,,,,,
,,,,,,,,,,,,,,,,,,10,33,female,R,IMT,2021-07-16_00h07.25.208,ImageRatingTask_S4,2021.1.4,Win32,59.95563283,0,11,11,142,1,DreamStudyImages_rs1000x750g/Water/landscapes_181_h_EDITED.jpg,,,
,,num_8,12.7325,num_3,1.1225,num_9,1.3479,num_1,0.7555,num_3,0.426,0,0,0,0,1,main,10,33,female,R,IMT,2021-07-16_00h07.25.208,ImageRatingTask_S4,2021.1.4,Win32,59.95563283,,,,,,,,,
,,,,,,,,,,,,0,1,1,1,1,second,10,33,female,R,IMT,2021-07-16_00h07.25.208,ImageRatingTask_S4,2021.1.4,Win32,59.95563283,,,,,,,,,
,,,,,,,,,,,,0,2,2,2,1,third,10,33,female,R,IMT,2021-07-16_00h07.25.208,ImageRatingTask_S4,2021.1.4,Win32,59.95563283,,,,,,,,,
,,,,,,,,,,,,0,3,3,3,1,fourth,10,33,female,R,IMT,2021-07-16_00h07.25.208,ImageRatingTask_S4,2021.1.4,Win32,59.95563283,,,,,,,,,
,,,,,,,,,,,,0,4,4,4,1,fifth,10,33,female,R,IMT,2021-07-16_00h07.25.208,ImageRatingTask_S4,2021.1.4,Win32,59.95563283,,,,,,,,,
,,,,,,,,,,,,0,5,5,5,1,sixth,10,33,female,R,IMT,2021-07-16_00h07.25.208,ImageRatingTask_S4,2021.1.4,Win32,59.95563283,,,,,,,,,
,,,,,,,,,,,,0,6,6,6,1,seventh,10,33,female,R,IMT,2021-07-16_00h07.25.208,ImageRatingTask_S4,2021.1.4,Win32,59.95563283,,,,,,,,,
,,,,,,,,,,,,0,7,7,7,1,last,10,33,female,R,IMT,2021-07-16_00h07.25.208,ImageRatingTask_S4,2021.1.4,Win32,59.95563283,,,,,,,,,
,,,,,,,,,,,,,,,,,,10,33,female,R,IMT,2021-07-16_00h07.25.208,ImageRatingTask_S4,2021.1.4,Win32,59.95563283,0,12,12,130,1,DreamStudyImages_rs1000x750g/Mammals/Elephant 1.jpg,,,
,,num_3,4.0683,num_4,2.2077,num_9,1.0584,num_1,4.0288,num_6,0.7263,0,0,0,0,1,main,10,33,female,R,IMT,2021-07-16_00h07.25.208,ImageRatingTask_S4,2021.1.4,Win32,59.95563283,,,,,,,,,
,,,,,,,,,,,,0,1,1,1,1,second,10,33,female,R,IMT,2021-07-16_00h07.25.208,ImageRatingTask_S4,2021.1.4,Win32,59.95563283,,,,,,,,,
,,,,,,,,,,,,0,2,2,2,1,third,10,33,female,R,IMT,2021-07-16_00h07.25.208,ImageRatingTask_S4,2021.1.4,Win32,59.95563283,,,,,,,,,
,,,,,,,,,,,,0,3,3,3,1,fourth,10,33,female,R,IMT,2021-07-16_00h07.25.208,ImageRatingTask_S4,2021.1.4,Win32,59.95563283,,,,,,,,,
,,,,,,,,,,,,0,4,4,4,1,fifth,10,33,female,R,IMT,2021-07-16_00h07.25.208,ImageRatingTask_S4,2021.1.4,Win32,59.95563283,,,,,,,,,
,,,,,,,,,,,,0,5,5,5,1,sixth,10,33,female,R,IMT,2021-07-16_00h07.25.208,ImageRatingTask_S4,2021.1.4,Win32,59.95563283,,,,,,,,,
,,,,,,,,,,,,0,6,6,6,1,seventh,10,33,female,R,IMT,2021-07-16_00h07.25.208,ImageRatingTask_S4,2021.1.4,Win32,59.95563283,,,,,,,,,
,,,,,,,,,,,,0,7,7,7,1,last,10,33,female,R,IMT,2021-07-16_00h07.25.208,ImageRatingTask_S4,2021.1.4,Win32,59.95563283,,,,,,,,,
,,,,,,,,,,,,,,,,,,10,33,female,R,IMT,2021-07-16_00h07.25.208,ImageRatingTask_S4,2021.1.4,Win32,59.95563283,0,13,13,17,1,DreamStudyImages_rs1000x750g/Houses/Bar 2.jpg,,,
,,num_6,6.3578,num_1,0.6877,num_9,0.9029,num_1,0.7518,num_6,1.1463,0,0,0,0,1,main,10,33,female,R,IMT,2021-07-16_00h07.25.208,ImageRatingTask_S4,2021.1.4,Win32,59.95563283,,,,,,,,,
,,,,,,,,,,,,0,1,1,1,1,second,10,33,female,R,IMT,2021-07-16_00h07.25.208,ImageRatingTask_S4,2021.1.4,Win32,59.95563283,,,,,,,,,
,,,,,,,,,,,,0,2,2,2,1,third,10,33,female,R,IMT,2021-07-16_00h07.25.208,ImageRatingTask_S4,2021.1.4,Win32,59.95563283,,,,,,,,,
,,,,,,,,,,,,0,3,3,3,1,fourth,10,33,female,R,IMT,2021-07-16_00h07.25.208,ImageRatingTask_S4,2021.1.4,Win32,59.95563283,,,,,,,,,
,,,,,,,,,,,,0,4,4,4,1,fifth,10,33,female,R,IMT,2021-07-16_00h07.25.208,ImageRatingTask_S4,2021.1.4,Win32,59.95563283,,,,,,,,,
,,,,,,,,,,,,0,5,5,5,1,sixth,10,33,female,R,IMT,2021-07-16_00h07.25.208,ImageRatingTask_S4,2021.1.4,Win32,59.95563283,,,,,,,,,
,,,,,,,,,,,,0,6,6,6,1,seventh,10,33,female,R,IMT,2021-07-16_00h07.25.208,ImageRatingTask_S4,2021.1.4,Win32,59.95563283,,,,,,,,,
,,,,,,,,,,,,0,7,7,7,1,last,10,33,female,R,IMT,2021-07-16_00h07.25.208,ImageRatingTask_S4,2021.1.4,Win32,59.95563283,,,,,,,,,
,,,,,,,,,,,,,,,,,,10,33,female,R,IMT,2021-07-16_00h07.25.208,ImageRatingTask_S4,2021.1.4,Win32,59.95563283,0,14,14,94,1,DreamStudyImages_rs1000x750g/Houses/Landscapes_072_h.jpg,,,
,,num_6,4.3778,num_2,1.0017,num_9,0.8555,num_1,1.1219,num_8,0.9073,0,0,0,0,1,main,10,33,female,R,IMT,2021-07-16_00h07.25.208,ImageRatingTask_S4,2021.1.4,Win32,59.95563283,,,,,,,,,
,,,,,,,,,,,,0,1,1,1,1,second,10,33,female,R,IMT,2021-07-16_00h07.25.208,ImageRatingTask_S4,2021.1.4,Win32,59.95563283,,,,,,,,,
,,,,,,,,,,,,0,2,2,2,1,third,10,33,female,R,IMT,2021-07-16_00h07.25.208,ImageRatingTask_S4,2021.1.4,Win32,59.95563283,,,,,,,,,
,,,,,,,,,,,,0,3,3,3,1,fourth,10,33,female,R,IMT,2021-07-16_00h07.25.208,ImageRatingTask_S4,2021.1.4,Win32,59.95563283,,,,,,,,,
,,,,,,,,,,,,0,4,4,4,1,fifth,10,33,female,R,IMT,2021-07-16_00h07.25.208,ImageRatingTask_S4,2021.1.4,Win32,59.95563283,,,,,,,,,
,,,,,,,,,,,,0,5,5,5,1,sixth,10,33,female,R,IMT,2021-07-16_00h07.25.208,ImageRatingTask_S4,2021.1.4,Win32,59.95563283,,,,,,,,,
,,,,,,,,,,,,0,6,6,6,1,seventh,10,33,female,R,IMT,2021-07-16_00h07.25.208,ImageRatingTask_S4,2021.1.4,Win32,59.95563283,,,,,,,,,
,,,,,,,,,,,,0,7,7,7,1,last,10,33,female,R,IMT,2021-07-16_00h07.25.208,ImageRatingTask_S4,2021.1.4,Win32,59.95563283,,,,,,,,,
,,,,,,,,,,,,,,,,,,10,33,female,R,IMT,2021-07-16_00h07.25.208,ImageRatingTask_S4,2021.1.4,Win32,59.95563283,0,15,15,97,1,DreamStudyImages_rs1000x750g/Water/Lake 11.jpg,,,
,,num_5,2.5292,num_1,0.2954,num_9,0.7165,num_1,0.8524,num_7,0.917,0,0,0,0,1,main,10,33,female,R,IMT,2021-07-16_00h07.25.208,ImageRatingTask_S4,2021.1.4,Win32,59.95563283,,,,,,,,,
,,,,,,,,,,,,0,1,1,1,1,second,10,33,female,R,IMT,2021-07-16_00h07.25.208,ImageRatingTask_S4,2021.1.4,Win32,59.95563283,,,,,,,,,
,,,,,,,,,,,,0,2,2,2,1,third,10,33,female,R,IMT,2021-07-16_00h07.25.208,ImageRatingTask_S4,2021.1.4,Win32,59.95563283,,,,,,,,,
,,,,,,,,,,,,0,3,3,3,1,fourth,10,33,female,R,IMT,2021-07-16_00h07.25.208,ImageRatingTask_S4,2021.1.4,Win32,59.95563283,,,,,,,,,
,,,,,,,,,,,,0,4,4,4,1,fifth,10,33,female,R,IMT,2021-07-16_00h07.25.208,ImageRatingTask_S4,2021.1.4,Win32,59.95563283,,,,,,,,,
,,,,,,,,,,,,0,5,5,5,1,sixth,10,33,female,R,IMT,2021-07-16_00h07.25.208,ImageRatingTask_S4,2021.1.4,Win32,59.95563283,,,,,,,,,
,,,,,,,,,,,,0,6,6,6,1,seventh,10,33,female,R,IMT,2021-07-16_00h07.25.208,ImageRatingTask_S4,2021.1.4,Win32,59.95563283,,,,,,,,,
,,,,,,,,,,,,0,7,7,7,1,last,10,33,female,R,IMT,2021-07-16_00h07.25.208,ImageRatingTask_S4,2021.1.4,Win32,59.95563283,,,,,,,,,
,,,,,,,,,,,,,,,,,,10,33,female,R,IMT,2021-07-16_00h07.25.208,ImageRatingTask_S4,2021.1.4,Win32,59.95563283,0,16,16,135,1,DreamStudyImages_rs1000x750g/Vehicles/toytruck.jpg,,,
,,num_5,1.7995,num_1,0.2354,num_9,1.0843,num_1,0.8468,num_2,4.362,0,0,0,0,1,main,10,33,female,R,IMT,2021-07-16_00h07.25.208,ImageRatingTask_S4,2021.1.4,Win32,59.95563283,,,,,,,,,
,,,,,,,,,,,,0,1,1,1,1,second,10,33,female,R,IMT,2021-07-16_00h07.25.208,ImageRatingTask_S4,2021.1.4,Win32,59.95563283,,,,,,,,,
,,,,,,,,,,,,0,2,2,2,1,third,10,33,female,R,IMT,2021-07-16_00h07.25.208,ImageRatingTask_S4,2021.1.4,Win32,59.95563283,,,,,,,,,
,,,,,,,,,,,,0,3,3,3,1,fourth,10,33,female,R,IMT,2021-07-16_00h07.25.208,ImageRatingTask_S4,2021.1.4,Win32,59.95563283,,,,,,,,,
,,,,,,,,,,,,0,4,4,4,1,fifth,10,33,female,R,IMT,2021-07-16_00h07.25.208,ImageRatingTask_S4,2021.1.4,Win32,59.95563283,,,,,,,,,
,,,,,,,,,,,,0,5,5,5,1,sixth,10,33,female,R,IMT,2021-07-16_00h07.25.208,ImageRatingTask_S4,2021.1.4,Win32,59.95563283,,,,,,,,,
,,,,,,,,,,,,0,6,6,6,1,seventh,10,33,female,R,IMT,2021-07-16_00h07.25.208,ImageRatingTask_S4,2021.1.4,Win32,59.95563283,,,,,,,,,
,,,,,,,,,,,,0,7,7,7,1,last,10,33,female,R,IMT,2021-07-16_00h07.25.208,ImageRatingTask_S4,2021.1.4,Win32,59.95563283,,,,,,,,,
,,,,,,,,,,,,,,,,,,10,33,female,R,IMT,2021-07-16_00h07.25.208,ImageRatingTask_S4,2021.1.4,Win32,59.95563283,0,17,17,109,1,DreamStudyImages_rs1000x750g/Children/Faces_058_h.jpg,,,
,,num_5,1.2891,num_1,0.2745,num_9,1.6127,num_0,2.6668,,,0,0,0,0,1,main,10,33,female,R,IMT,2021-07-16_00h07.25.208,ImageRatingTask_S4,2021.1.4,Win32,59.95563283,,,,,,,,,
,,,,,,,,,,,,0,1,1,1,1,second,10,33,female,R,IMT,2021-07-16_00h07.25.208,ImageRatingTask_S4,2021.1.4,Win32,59.95563283,,,,,,,,,
,,,,,,,,,,,,0,2,2,2,1,third,10,33,female,R,IMT,2021-07-16_00h07.25.208,ImageRatingTask_S4,2021.1.4,Win32,59.95563283,,,,,,,,,
,,,,,,,,,,,,0,3,3,3,1,fourth,10,33,female,R,IMT,2021-07-16_00h07.25.208,ImageRatingTask_S4,2021.1.4,Win32,59.95563283,,,,,,,,,
,,,,,,,,,,,,0,4,4,4,1,fifth,10,33,female,R,IMT,2021-07-16_00h07.25.208,ImageRatingTask_S4,2021.1.4,Win32,59.95563283,,,,,,,,,
,,,,,,,,,,,,0,5,5,5,1,sixth,10,33,female,R,IMT,2021-07-16_00h07.25.208,ImageRatingTask_S4,2021.1.4,Win32,59.95563283,,,,,,,,,
,,,,,,,,,,,,0,6,6,6,1,seventh,10,33,female,R,IMT,2021-07-16_00h07.25.208,ImageRatingTask_S4,2021.1.4,Win32,59.95563283,,,,,,,,,
,,,,,,,,,,,,0,7,7,7,1,last,10,33,female,R,IMT,2021-07-16_00h07.25.208,ImageRatingTask_S4,2021.1.4,Win32,59.95563283,,,,,,,,,
,,,,,,,,,,,,,,,,,,10,33,female,R,IMT,2021-07-16_00h07.25.208,ImageRatingTask_S4,2021.1.4,Win32,59.95563283,0,18,18,67,1,DreamStudyImages_rs1000x750g/Houses/Objects_234_h.jpg,,,
,,num_3,1.8595,num_6,1.4688,num_9,0.9971,num_1,0.8638,num_2,0.2756,0,0,0,0,1,main,10,33,female,R,IMT,2021-07-16_00h07.25.208,ImageRatingTask_S4,2021.1.4,Win32,59.95563283,,,,,,,,,
,,,,,,,,,,,,0,1,1,1,1,second,10,33,female,R,IMT,2021-07-16_00h07.25.208,ImageRatingTask_S4,2021.1.4,Win32,59.95563283,,,,,,,,,
,,,,,,,,,,,,0,2,2,2,1,third,10,33,female,R,IMT,2021-07-16_00h07.25.208,ImageRatingTask_S4,2021.1.4,Win32,59.95563283,,,,,,,,,
,,,,,,,,,,,,0,3,3,3,1,fourth,10,33,female,R,IMT,2021-07-16_00h07.25.208,ImageRatingTask_S4,2021.1.4,Win32,59.95563283,,,,,,,,,
,,,,,,,,,,,,0,4,4,4,1,fifth,10,33,female,R,IMT,2021-07-16_00h07.25.208,ImageRatingTask_S4,2021.1.4,Win32,59.95563283,,,,,,,,,
,,,,,,,,,,,,0,5,5,5,1,sixth,10,33,female,R,IMT,2021-07-16_00h07.25.208,ImageRatingTask_S4,2021.1.4,Win32,59.95563283,,,,,,,,,
,,,,,,,,,,,,0,6,6,6,1,seventh,10,33,female,R,IMT,2021-07-16_00h07.25.208,ImageRatingTask_S4,2021.1.4,Win32,59.95563283,,,,,,,,,
,,,,,,,,,,,,0,7,7,7,1,last,10,33,female,R,IMT,2021-07-16_00h07.25.208,ImageRatingTask_S4,2021.1.4,Win32,59.95563283,,,,,,,,,
,,,,,,,,,,,,,,,,,,10,33,female,R,IMT,2021-07-16_00h07.25.208,ImageRatingTask_S4,2021.1.4,Win32,59.95563283,0,19,19,105,1,DreamStudyImages_rs1000x750g/Children/People_040_h.jpg,,,
,,num_5,1.8285,num_1,0.3161,num_9,1.2958,num_1,10.6265,num_6,1.2241,0,0,0,0,1,main,10,33,female,R,IMT,2021-07-16_00h07.25.208,ImageRatingTask_S4,2021.1.4,Win32,59.95563283,,,,,,,,,
,,,,,,,,,,,,0,1,1,1,1,second,10,33,female,R,IMT,2021-07-16_00h07.25.208,ImageRatingTask_S4,2021.1.4,Win32,59.95563283,,,,,,,,,
,,,,,,,,,,,,0,2,2,2,1,third,10,33,female,R,IMT,2021-07-16_00h07.25.208,ImageRatingTask_S4,2021.1.4,Win32,59.95563283,,,,,,,,,
,,,,,,,,,,,,0,3,3,3,1,fourth,10,33,female,R,IMT,2021-07-16_00h07.25.208,ImageRatingTask_S4,2021.1.4,Win32,59.95563283,,,,,,,,,
,,,,,,,,,,,,0,4,4,4,1,fifth,10,33,female,R,IMT,2021-07-16_00h07.25.208,ImageRatingTask_S4,2021.1.4,Win32,59.95563283,,,,,,,,,
,,,,,,,,,,,,0,5,5,5,1,sixth,10,33,female,R,IMT,2021-07-16_00h07.25.208,ImageRatingTask_S4,2021.1.4,Win32,59.95563283,,,,,,,,,
,,,,,,,,,,,,0,6,6,6,1,seventh,10,33,female,R,IMT,2021-07-16_00h07.25.208,ImageRatingTask_S4,2021.1.4,Win32,59.95563283,,,,,,,,,
,,,,,,,,,,,,0,7,7,7,1,last,10,33,female,R,IMT,2021-07-16_00h07.25.208,ImageRatingTask_S4,2021.1.4,Win32,59.95563283,,,,,,,,,
,,,,,,,,,,,,,,,,,,10,33,female,R,IMT,2021-07-16_00h07.25.208,ImageRatingTask_S4,2021.1.4,Win32,59.95563283,0,20,20,153,1,DreamStudyImages_rs1000x750g/Houses/Objects_162_h.jpg,,,
,,num_3,3.7831,num_3,2.245,num_9,67.1611,num_1,1.3199,num_5,0.597,0,0,0,0,1,main,10,33,female,R,IMT,2021-07-16_00h07.25.208,ImageRatingTask_S4,2021.1.4,Win32,59.95563283,,,,,,,,,
,,,,,,,,,,,,0,1,1,1,1,second,10,33,female,R,IMT,2021-07-16_00h07.25.208,ImageRatingTask_S4,2021.1.4,Win32,59.95563283,,,,,,,,,
,,,,,,,,,,,,0,2,2,2,1,third,10,33,female,R,IMT,2021-07-16_00h07.25.208,ImageRatingTask_S4,2021.1.4,Win32,59.95563283,,,,,,,,,
,,,,,,,,,,,,0,3,3,3,1,fourth,10,33,female,R,IMT,2021-07-16_00h07.25.208,ImageRatingTask_S4,2021.1.4,Win32,59.95563283,,,,,,,,,
,,,,,,,,,,,,0,4,4,4,1,fifth,10,33,female,R,IMT,2021-07-16_00h07.25.208,ImageRatingTask_S4,2021.1.4,Win32,59.95563283,,,,,,,,,
,,,,,,,,,,,,0,5,5,5,1,sixth,10,33,female,R,IMT,2021-07-16_00h07.25.208,ImageRatingTask_S4,2021.1.4,Win32,59.95563283,,,,,,,,,
,,,,,,,,,,,,0,6,6,6,1,seventh,10,33,female,R,IMT,2021-07-16_00h07.25.208,ImageRatingTask_S4,2021.1.4,Win32,59.95563283,,,,,,,,,
,,,,,,,,,,,,0,7,7,7,1,last,10,33,female,R,IMT,2021-07-16_00h07.25.208,ImageRatingTask_S4,2021.1.4,Win32,59.95563283,,,,,,,,,
,,,,,,,,,,,,,,,,,,10,33,female,R,IMT,2021-07-16_00h07.25.208,ImageRatingTask_S4,2021.1.4,Win32,59.95563283,0,21,21,113,1,DreamStudyImages_rs1000x750g/Food/Food 2.jpg,,,
,,num_6,1.9164,num_2,0.7772,num_9,2.1628,num_1,0.5115,num_8,0.9722,0,0,0,0,1,main,10,33,female,R,IMT,2021-07-16_00h07.25.208,ImageRatingTask_S4,2021.1.4,Win32,59.95563283,,,,,,,,,
,,,,,,,,,,,,0,1,1,1,1,second,10,33,female,R,IMT,2021-07-16_00h07.25.208,ImageRatingTask_S4,2021.1.4,Win32,59.95563283,,,,,,,,,
,,,,,,,,,,,,0,2,2,2,1,third,10,33,female,R,IMT,2021-07-16_00h07.25.208,ImageRatingTask_S4,2021.1.4,Win32,59.95563283,,,,,,,,,
,,,,,,,,,,,,0,3,3,3,1,fourth,10,33,female,R,IMT,2021-07-16_00h07.25.208,ImageRatingTask_S4,2021.1.4,Win32,59.95563283,,,,,,,,,
,,,,,,,,,,,,0,4,4,4,1,fifth,10,33,female,R,IMT,2021-07-16_00h07.25.208,ImageRatingTask_S4,2021.1.4,Win32,59.95563283,,,,,,,,,
,,,,,,,,,,,,0,5,5,5,1,sixth,10,33,female,R,IMT,2021-07-16_00h07.25.208,ImageRatingTask_S4,2021.1.4,Win32,59.95563283,,,,,,,,,
,,,,,,,,,,,,0,6,6,6,1,seventh,10,33,female,R,IMT,2021-07-16_00h07.25.208,ImageRatingTask_S4,2021.1.4,Win32,59.95563283,,,,,,,,,
,,,,,,,,,,,,0,7,7,7,1,last,10,33,female,R,IMT,2021-07-16_00h07.25.208,ImageRatingTask_S4,2021.1.4,Win32,59.95563283,,,,,,,,,
,,,,,,,,,,,,,,,,,,10,33,female,R,IMT,2021-07-16_00h07.25.208,ImageRatingTask_S4,2021.1.4,Win32,59.95563283,0,22,22,46,1,DreamStudyImages_rs1000x750g/Water/Landscapes_154_h.jpg,,,
,,num_6,9.8672,num_2,0.607,num_9,0.8515,num_1,3.5408,num_8,0.6967,0,0,0,0,1,main,10,33,female,R,IMT,2021-07-16_00h07.25.208,ImageRatingTask_S4,2021.1.4,Win32,59.95563283,,,,,,,,,
,,,,,,,,,,,,0,1,1,1,1,second,10,33,female,R,IMT,2021-07-16_00h07.25.208,ImageRatingTask_S4,2021.1.4,Win32,59.95563283,,,,,,,,,
,,,,,,,,,,,,0,2,2,2,1,third,10,33,female,R,IMT,2021-07-16_00h07.25.208,ImageRatingTask_S4,2021.1.4,Win32,59.95563283,,,,,,,,,
,,,,,,,,,,,,0,3,3,3,1,fourth,10,33,female,R,IMT,2021-07-16_00h07.25.208,ImageRatingTask_S4,2021.1.4,Win32,59.95563283,,,,,,,,,
,,,,,,,,,,,,0,4,4,4,1,fifth,10,33,female,R,IMT,2021-07-16_00h07.25.208,ImageRatingTask_S4,2021.1.4,Win32,59.95563283,,,,,,,,,
,,,,,,,,,,,,0,5,5,5,1,sixth,10,33,female,R,IMT,2021-07-16_00h07.25.208,ImageRatingTask_S4,2021.1.4,Win32,59.95563283,,,,,,,,,
,,,,,,,,,,,,0,6,6,6,1,seventh,10,33,female,R,IMT,2021-07-16_00h07.25.208,ImageRatingTask_S4,2021.1.4,Win32,59.95563283,,,,,,,,,
,,,,,,,,,,,,0,7,7,7,1,last,10,33,female,R,IMT,2021-07-16_00h07.25.208,ImageRatingTask_S4,2021.1.4,Win32,59.95563283,,,,,,,,,
,,,,,,,,,,,,,,,,,,10,33,female,R,IMT,2021-07-16_00h07.25.208,ImageRatingTask_S4,2021.1.4,Win32,59.95563283,0,23,23,128,1,DreamStudyImages_rs1000x750g/Water/IAPS5760_lake.jpg,,,
,,num_7,3.4742,num_3,1.4527,num_9,1.0202,num_1,3.5315,num_8,0.729,0,0,0,0,1,main,10,33,female,R,IMT,2021-07-16_00h07.25.208,ImageRatingTask_S4,2021.1.4,Win32,59.95563283,,,,,,,,,
,,,,,,,,,,,,0,1,1,1,1,second,10,33,female,R,IMT,2021-07-16_00h07.25.208,ImageRatingTask_S4,2021.1.4,Win32,59.95563283,,,,,,,,,
,,,,,,,,,,,,0,2,2,2,1,third,10,33,female,R,IMT,2021-07-16_00h07.25.208,ImageRatingTask_S4,2021.1.4,Win32,59.95563283,,,,,,,,,
,,,,,,,,,,,,0,3,3,3,1,fourth,10,33,female,R,IMT,2021-07-16_00h07.25.208,ImageRatingTask_S4,2021.1.4,Win32,59.95563283,,,,,,,,,
,,,,,,,,,,,,0,4,4,4,1,fifth,10,33,female,R,IMT,2021-07-16_00h07.25.208,ImageRatingTask_S4,2021.1.4,Win32,59.95563283,,,,,,,,,
,,,,,,,,,,,,0,5,5,5,1,sixth,10,33,female,R,IMT,2021-07-16_00h07.25.208,ImageRatingTask_S4,2021.1.4,Win32,59.95563283,,,,,,,,,
,,,,,,,,,,,,0,6,6,6,1,seventh,10,33,female,R,IMT,2021-07-16_00h07.25.208,ImageRatingTask_S4,2021.1.4,Win32,59.95563283,,,,,,,,,
,,,,,,,,,,,,0,7,7,7,1,last,10,33,female,R,IMT,2021-07-16_00h07.25.208,ImageRatingTask_S4,2021.1.4,Win32,59.95563283,,,,,,,,,
,,,,,,,,,,,,,,,,,,10,33,female,R,IMT,2021-07-16_00h07.25.208,ImageRatingTask_S4,2021.1.4,Win32,59.95563283,0,24,24,145,1,DreamStudyImages_rs1000x750g/Water/NDPS153_lake.jpg,,,
,,num_5,1.7755,num_1,0.241,num_9,0.8604,num_1,0.3905,num_3,0.8739,0,0,0,0,1,main,10,33,female,R,IMT,2021-07-16_00h07.25.208,ImageRatingTask_S4,2021.1.4,Win32,59.95563283,,,,,,,,,
,,,,,,,,,,,,0,1,1,1,1,second,10,33,female,R,IMT,2021-07-16_00h07.25.208,ImageRatingTask_S4,2021.1.4,Win32,59.95563283,,,,,,,,,
,,,,,,,,,,,,0,2,2,2,1,third,10,33,female,R,IMT,2021-07-16_00h07.25.208,ImageRatingTask_S4,2021.1.4,Win32,59.95563283,,,,,,,,,
,,,,,,,,,,,,0,3,3,3,1,fourth,10,33,female,R,IMT,2021-07-16_00h07.25.208,ImageRatingTask_S4,2021.1.4,Win32,59.95563283,,,,,,,,,
,,,,,,,,,,,,0,4,4,4,1,fifth,10,33,female,R,IMT,2021-07-16_00h07.25.208,ImageRatingTask_S4,2021.1.4,Win32,59.95563283,,,,,,,,,
,,,,,,,,,,,,0,5,5,5,1,sixth,10,33,female,R,IMT,2021-07-16_00h07.25.208,ImageRatingTask_S4,2021.1.4,Win32,59.95563283,,,,,,,,,
,,,,,,,,,,,,0,6,6,6,1,seventh,10,33,female,R,IMT,2021-07-16_00h07.25.208,ImageRatingTask_S4,2021.1.4,Win32,59.95563283,,,,,,,,,
,,,,,,,,,,,,0,7,7,7,1,last,10,33,female,R,IMT,2021-07-16_00h07.25.208,ImageRatingTask_S4,2021.1.4,Win32,59.95563283,,,,,,,,,
,,,,,,,,,,,,,,,,,,10,33,female,R,IMT,2021-07-16_00h07.25.208,ImageRatingTask_S4,2021.1.4,Win32,59.95563283,0,25,25,150,1,DreamStudyImages_rs1000x750g/Mammals/Animals_087_h.jpg,,,
,,num_5,2.1005,num_1,0.3106,num_9,0.9091,num_1,2.0582,num_7,0.8734,0,0,0,0,1,main,10,33,female,R,IMT,2021-07-16_00h07.25.208,ImageRatingTask_S4,2021.1.4,Win32,59.95563283,,,,,,,,,
,,,,,,,,,,,,0,1,1,1,1,second,10,33,female,R,IMT,2021-07-16_00h07.25.208,ImageRatingTask_S4,2021.1.4,Win32,59.95563283,,,,,,,,,
,,,,,,,,,,,,0,2,2,2,1,third,10,33,female,R,IMT,2021-07-16_00h07.25.208,ImageRatingTask_S4,2021.1.4,Win32,59.95563283,,,,,,,,,
,,,,,,,,,,,,0,3,3,3,1,fourth,10,33,female,R,IMT,2021-07-16_00h07.25.208,ImageRatingTask_S4,2021.1.4,Win32,59.95563283,,,,,,,,,
,,,,,,,,,,,,0,4,4,4,1,fifth,10,33,female,R,IMT,2021-07-16_00h07.25.208,ImageRatingTask_S4,2021.1.4,Win32,59.95563283,,,,,,,,,
,,,,,,,,,,,,0,5,5,5,1,sixth,10,33,female,R,IMT,2021-07-16_00h07.25.208,ImageRatingTask_S4,2021.1.4,Win32,59.95563283,,,,,,,,,
,,,,,,,,,,,,0,6,6,6,1,seventh,10,33,female,R,IMT,2021-07-16_00h07.25.208,ImageRatingTask_S4,2021.1.4,Win32,59.95563283,,,,,,,,,
,,,,,,,,,,,,0,7,7,7,1,last,10,33,female,R,IMT,2021-07-16_00h07.25.208,ImageRatingTask_S4,2021.1.4,Win32,59.95563283,,,,,,,,,
,,,,,,,,,,,,,,,,,,10,33,female,R,IMT,2021-07-16_00h07.25.208,ImageRatingTask_S4,2021.1.4,Win32,59.95563283,0,26,26,149,1,DreamStudyImages_rs1000x750g/Vehicles/Objects_322_h.jpg,,,
,,num_1,21.8799,num_8,2.4814,num_9,1.1527,num_1,2.9808,num_3,0.3612,0,0,0,0,1,main,10,33,female,R,IMT,2021-07-16_00h07.25.208,ImageRatingTask_S4,2021.1.4,Win32,59.95563283,,,,,,,,,
,,,,,,,,,,,,0,1,1,1,1,second,10,33,female,R,IMT,2021-07-16_00h07.25.208,ImageRatingTask_S4,2021.1.4,Win32,59.95563283,,,,,,,,,
,,,,,,,,,,,,0,2,2,2,1,third,10,33,female,R,IMT,2021-07-16_00h07.25.208,ImageRatingTask_S4,2021.1.4,Win32,59.95563283,,,,,,,,,
,,,,,,,,,,,,0,3,3,3,1,fourth,10,33,female,R,IMT,2021-07-16_00h07.25.208,ImageRatingTask_S4,2021.1.4,Win32,59.95563283,,,,,,,,,
,,,,,,,,,,,,0,4,4,4,1,fifth,10,33,female,R,IMT,2021-07-16_00h07.25.208,ImageRatingTask_S4,2021.1.4,Win32,59.95563283,,,,,,,,,
,,,,,,,,,,,,0,5,5,5,1,sixth,10,33,female,R,IMT,2021-07-16_00h07.25.208,ImageRatingTask_S4,2021.1.4,Win32,59.95563283,,,,,,,,,
,,,,,,,,,,,,0,6,6,6,1,seventh,10,33,female,R,IMT,2021-07-16_00h07.25.208,ImageRatingTask_S4,2021.1.4,Win32,59.95563283,,,,,,,,,
,,,,,,,,,,,,0,7,7,7,1,last,10,33,female,R,IMT,2021-07-16_00h07.25.208,ImageRatingTask_S4,2021.1.4,Win32,59.95563283,,,,,,,,,
,,,,,,,,,,,,,,,,,,10,33,female,R,IMT,2021-07-16_00h07.25.208,ImageRatingTask_S4,2021.1.4,Win32,59.95563283,0,27,27,132,1,DreamStudyImages_rs1000x750g/Mammals/Animals_164_h.jpg,,,
,,num_5,1.3817,num_1,0.2647,num_9,1.1253,num_1,1.5549,num_7,0.7744,0,0,0,0,1,main,10,33,female,R,IMT,2021-07-16_00h07.25.208,ImageRatingTask_S4,2021.1.4,Win32,59.95563283,,,,,,,,,
,,,,,,,,,,,,0,1,1,1,1,second,10,33,female,R,IMT,2021-07-16_00h07.25.208,ImageRatingTask_S4,2021.1.4,Win32,59.95563283,,,,,,,,,
,,,,,,,,,,,,0,2,2,2,1,third,10,33,female,R,IMT,2021-07-16_00h07.25.208,ImageRatingTask_S4,2021.1.4,Win32,59.95563283,,,,,,,,,
,,,,,,,,,,,,0,3,3,3,1,fourth,10,33,female,R,IMT,2021-07-16_00h07.25.208,ImageRatingTask_S4,2021.1.4,Win32,59.95563283,,,,,,,,,
,,,,,,,,,,,,0,4,4,4,1,fifth,10,33,female,R,IMT,2021-07-16_00h07.25.208,ImageRatingTask_S4,2021.1.4,Win32,59.95563283,,,,,,,,,
,,,,,,,,,,,,0,5,5,5,1,sixth,10,33,female,R,IMT,2021-07-16_00h07.25.208,ImageRatingTask_S4,2021.1.4,Win32,59.95563283,,,,,,,,,
,,,,,,,,,,,,0,6,6,6,1,seventh,10,33,female,R,IMT,2021-07-16_00h07.25.208,ImageRatingTask_S4,2021.1.4,Win32,59.95563283,,,,,,,,,
,,,,,,,,,,,,0,7,7,7,1,last,10,33,female,R,IMT,2021-07-16_00h07.25.208,ImageRatingTask_S4,2021.1.4,Win32,59.95563283,,,,,,,,,
,,,,,,,,,,,,,,,,,,10,33,female,R,IMT,2021-07-16_00h07.25.208,ImageRatingTask_S4,2021.1.4,Win32,59.95563283,0,28,28,9,1,DreamStudyImages_rs1000x750g/Vehicles/fireengine.jpg,,,
,,num_6,2.4043,num_2,1.0556,num_8,1.6613,num_1,0.676,num_2,10.5791,0,0,0,0,1,main,10,33,female,R,IMT,2021-07-16_00h07.25.208,ImageRatingTask_S4,2021.1.4,Win32,59.95563283,,,,,,,,,
,,,,,,,,,,,,0,1,1,1,1,second,10,33,female,R,IMT,2021-07-16_00h07.25.208,ImageRatingTask_S4,2021.1.4,Win32,59.95563283,,,,,,,,,
,,,,,,,,,,,,0,2,2,2,1,third,10,33,female,R,IMT,2021-07-16_00h07.25.208,ImageRatingTask_S4,2021.1.4,Win32,59.95563283,,,,,,,,,
,,,,,,,,,,,,0,3,3,3,1,fourth,10,33,female,R,IMT,2021-07-16_00h07.25.208,ImageRatingTask_S4,2021.1.4,Win32,59.95563283,,,,,,,,,
,,,,,,,,,,,,0,4,4,4,1,fifth,10,33,female,R,IMT,2021-07-16_00h07.25.208,ImageRatingTask_S4,2021.1.4,Win32,59.95563283,,,,,,,,,
,,,,,,,,,,,,0,5,5,5,1,sixth,10,33,female,R,IMT,2021-07-16_00h07.25.208,ImageRatingTask_S4,2021.1.4,Win32,59.95563283,,,,,,,,,
,,,,,,,,,,,,0,6,6,6,1,seventh,10,33,female,R,IMT,2021-07-16_00h07.25.208,ImageRatingTask_S4,2021.1.4,Win32,59.95563283,,,,,,,,,
,,,,,,,,,,,,0,7,7,7,1,last,10,33,female,R,IMT,2021-07-16_00h07.25.208,ImageRatingTask_S4,2021.1.4,Win32,59.95563283,,,,,,,,,
,,,,,,,,,,,,,,,,,,10,33,female,R,IMT,2021-07-16_00h07.25.208,ImageRatingTask_S4,2021.1.4,Win32,59.95563283,0,29,29,29,1,DreamStudyImages_rs1000x750g/Children/IAPS2260_baby20.jpg,,,
,,num_2,23.4178,num_9,1.4214,num_9,3.22,num_1,4.691,num_6,0.7733,0,0,0,0,1,main,10,33,female,R,IMT,2021-07-16_00h07.25.208,ImageRatingTask_S4,2021.1.4,Win32,59.95563283,,,,,,,,,
,,,,,,,,,,,,0,1,1,1,1,second,10,33,female,R,IMT,2021-07-16_00h07.25.208,ImageRatingTask_S4,2021.1.4,Win32,59.95563283,,,,,,,,,
,,,,,,,,,,,,0,2,2,2,1,third,10,33,female,R,IMT,2021-07-16_00h07.25.208,ImageRatingTask_S4,2021.1.4,Win32,59.95563283,,,,,,,,,
,,,,,,,,,,,,0,3,3,3,1,fourth,10,33,female,R,IMT,2021-07-16_00h07.25.208,ImageRatingTask_S4,2021.1.4,Win32,59.95563283,,,,,,,,,
,,,,,,,,,,,,0,4,4,4,1,fifth,10,33,female,R,IMT,2021-07-16_00h07.25.208,ImageRatingTask_S4,2021.1.4,Win32,59.95563283,,,,,,,,,
,,,,,,,,,,,,0,5,5,5,1,sixth,10,33,female,R,IMT,2021-07-16_00h07.25.208,ImageRatingTask_S4,2021.1.4,Win32,59.95563283,,,,,,,,,
,,,,,,,,,,,,0,6,6,6,1,seventh,10,33,female,R,IMT,2021-07-16_00h07.25.208,ImageRatingTask_S4,2021.1.4,Win32,59.95563283,,,,,,,,,
,,,,,,,,,,,,0,7,7,7,1,last,10,33,female,R,IMT,2021-07-16_00h07.25.208,ImageRatingTask_S4,2021.1.4,Win32,59.95563283,,,,,,,,,
,,,,,,,,,,,,,,,,,,10,33,female,R,IMT,2021-07-16_00h07.25.208,ImageRatingTask_S4,2021.1.4,Win32,59.95563283,0,30,30,75,1,DreamStudyImages_rs1000x750g/Houses/Landscapes_002_h.jpg,,,
,,num_5,1.1055,num_1,0.369,num_9,0.4956,num_1,0.4265,num_6,1.537,0,0,0,0,1,main,10,33,female,R,IMT,2021-07-16_00h07.25.208,ImageRatingTask_S4,2021.1.4,Win32,59.95563283,,,,,,,,,
,,,,,,,,,,,,0,1,1,1,1,second,10,33,female,R,IMT,2021-07-16_00h07.25.208,ImageRatingTask_S4,2021.1.4,Win32,59.95563283,,,,,,,,,
,,,,,,,,,,,,0,2,2,2,1,third,10,33,female,R,IMT,2021-07-16_00h07.25.208,ImageRatingTask_S4,2021.1.4,Win32,59.95563283,,,,,,,,,
,,,,,,,,,,,,0,3,3,3,1,fourth,10,33,female,R,IMT,2021-07-16_00h07.25.208,ImageRatingTask_S4,2021.1.4,Win32,59.95563283,,,,,,,,,
,,,,,,,,,,,,0,4,4,4,1,fifth,10,33,female,R,IMT,2021-07-16_00h07.25.208,ImageRatingTask_S4,2021.1.4,Win32,59.95563283,,,,,,,,,
,,,,,,,,,,,,0,5,5,5,1,sixth,10,33,female,R,IMT,2021-07-16_00h07.25.208,ImageRatingTask_S4,2021.1.4,Win32,59.95563283,,,,,,,,,
,,,,,,,,,,,,0,6,6,6,1,seventh,10,33,female,R,IMT,2021-07-16_00h07.25.208,ImageRatingTask_S4,2021.1.4,Win32,59.95563283,,,,,,,,,
,,,,,,,,,,,,0,7,7,7,1,last,10,33,female,R,IMT,2021-07-16_00h07.25.208,ImageRatingTask_S4,2021.1.4,Win32,59.95563283,,,,,,,,,
,,,,,,,,,,,,,,,,,,10,33,female,R,IMT,2021-07-16_00h07.25.208,ImageRatingTask_S4,2021.1.4,Win32,59.95563283,0,31,31,122,1,DreamStudyImages_rs1000x750g/Houses/IAPS7490_window.jpg,,,
,,num_6,2.1636,num_2,0.8763,num_8,1.0434,num_1,0.626,num_2,0.4829,0,0,0,0,1,main,10,33,female,R,IMT,2021-07-16_00h07.25.208,ImageRatingTask_S4,2021.1.4,Win32,59.95563283,,,,,,,,,
,,,,,,,,,,,,0,1,1,1,1,second,10,33,female,R,IMT,2021-07-16_00h07.25.208,ImageRatingTask_S4,2021.1.4,Win32,59.95563283,,,,,,,,,
,,,,,,,,,,,,0,2,2,2,1,third,10,33,female,R,IMT,2021-07-16_00h07.25.208,ImageRatingTask_S4,2021.1.4,Win32,59.95563283,,,,,,,,,
,,,,,,,,,,,,0,3,3,3,1,fourth,10,33,female,R,IMT,2021-07-16_00h07.25.208,ImageRatingTask_S4,2021.1.4,Win32,59.95563283,,,,,,,,,
,,,,,,,,,,,,0,4,4,4,1,fifth,10,33,female,R,IMT,2021-07-16_00h07.25.208,ImageRatingTask_S4,2021.1.4,Win32,59.95563283,,,,,,,,,
,,,,,,,,,,,,0,5,5,5,1,sixth,10,33,female,R,IMT,2021-07-16_00h07.25.208,ImageRatingTask_S4,2021.1.4,Win32,59.95563283,,,,,,,,,
,,,,,,,,,,,,0,6,6,6,1,seventh,10,33,female,R,IMT,2021-07-16_00h07.25.208,ImageRatingTask_S4,2021.1.4,Win32,59.95563283,,,,,,,,,
,,,,,,,,,,,,0,7,7,7,1,last,10,33,female,R,IMT,2021-07-16_00h07.25.208,ImageRatingTask_S4,2021.1.4,Win32,59.95563283,,,,,,,,,
,,,,,,,,,,,,,,,,,,10,33,female,R,IMT,2021-07-16_00h07.25.208,ImageRatingTask_S4,2021.1.4,Win32,59.95563283,0,32,32,12,1,DreamStudyImages_rs1000x750g/Children/IAPS2040_baby1.jpg,,,
,,num_4,3.919,num_5,1.2573,num_9,2.5268,num_1,1.8975,num_8,0.488,0,0,0,0,1,main,10,33,female,R,IMT,2021-07-16_00h07.25.208,ImageRatingTask_S4,2021.1.4,Win32,59.95563283,,,,,,,,,
,,,,,,,,,,,,0,1,1,1,1,second,10,33,female,R,IMT,2021-07-16_00h07.25.208,ImageRatingTask_S4,2021.1.4,Win32,59.95563283,,,,,,,,,
,,,,,,,,,,,,0,2,2,2,1,third,10,33,female,R,IMT,2021-07-16_00h07.25.208,ImageRatingTask_S4,2021.1.4,Win32,59.95563283,,,,,,,,,
,,,,,,,,,,,,0,3,3,3,1,fourth,10,33,female,R,IMT,2021-07-16_00h07.25.208,ImageRatingTask_S4,2021.1.4,Win32,59.95563283,,,,,,,,,
,,,,,,,,,,,,0,4,4,4,1,fifth,10,33,female,R,IMT,2021-07-16_00h07.25.208,ImageRatingTask_S4,2021.1.4,Win32,59.95563283,,,,,,,,,
,,,,,,,,,,,,0,5,5,5,1,sixth,10,33,female,R,IMT,2021-07-16_00h07.25.208,ImageRatingTask_S4,2021.1.4,Win32,59.95563283,,,,,,,,,
,,,,,,,,,,,,0,6,6,6,1,seventh,10,33,female,R,IMT,2021-07-16_00h07.25.208,ImageRatingTask_S4,2021.1.4,Win32,59.95563283,,,,,,,,,
,,,,,,,,,,,,0,7,7,7,1,last,10,33,female,R,IMT,2021-07-16_00h07.25.208,ImageRatingTask_S4,2021.1.4,Win32,59.95563283,,,,,,,,,
,,,,,,,,,,,,,,,,,,10,33,female,R,IMT,2021-07-16_00h07.25.208,ImageRatingTask_S4,2021.1.4,Win32,59.95563283,0,33,33,116,1,DreamStudyImages_rs1000x750g/Water/NDPS32_seafromabove.jpg,,,
,,num_9,1.5731,num_1,2.471,num_9,0.8528,num_1,0.908,num_3,1.2508,0,0,0,0,1,main,10,33,female,R,IMT,2021-07-16_00h07.25.208,ImageRatingTask_S4,2021.1.4,Win32,59.95563283,,,,,,,,,
,,,,,,,,,,,,0,1,1,1,1,second,10,33,female,R,IMT,2021-07-16_00h07.25.208,ImageRatingTask_S4,2021.1.4,Win32,59.95563283,,,,,,,,,
,,,,,,,,,,,,0,2,2,2,1,third,10,33,female,R,IMT,2021-07-16_00h07.25.208,ImageRatingTask_S4,2021.1.4,Win32,59.95563283,,,,,,,,,
,,,,,,,,,,,,0,3,3,3,1,fourth,10,33,female,R,IMT,2021-07-16_00h07.25.208,ImageRatingTask_S4,2021.1.4,Win32,59.95563283,,,,,,,,,
,,,,,,,,,,,,0,4,4,4,1,fifth,10,33,female,R,IMT,2021-07-16_00h07.25.208,ImageRatingTask_S4,2021.1.4,Win32,59.95563283,,,,,,,,,
,,,,,,,,,,,,0,5,5,5,1,sixth,10,33,female,R,IMT,2021-07-16_00h07.25.208,ImageRatingTask_S4,2021.1.4,Win32,59.95563283,,,,,,,,,
,,,,,,,,,,,,0,6,6,6,1,seventh,10,33,female,R,IMT,2021-07-16_00h07.25.208,ImageRatingTask_S4,2021.1.4,Win32,59.95563283,,,,,,,,,
,,,,,,,,,,,,0,7,7,7,1,last,10,33,female,R,IMT,2021-07-16_00h07.25.208,ImageRatingTask_S4,2021.1.4,Win32,59.95563283,,,,,,,,,
,,,,,,,,,,,,,,,,,,10,33,female,R,IMT,2021-07-16_00h07.25.208,ImageRatingTask_S4,2021.1.4,Win32,59.95563283,0,34,34,4,1,DreamStudyImages_rs1000x750g/Mammals/IAPS1710_puppies.jpg,,,
,,num_5,3.3599,num_1,0.9412,num_9,0.8779,num_1,0.7962,num_8,0.8931,0,0,0,0,1,main,10,33,female,R,IMT,2021-07-16_00h07.25.208,ImageRatingTask_S4,2021.1.4,Win32,59.95563283,,,,,,,,,
,,,,,,,,,,,,0,1,1,1,1,second,10,33,female,R,IMT,2021-07-16_00h07.25.208,ImageRatingTask_S4,2021.1.4,Win32,59.95563283,,,,,,,,,
,,,,,,,,,,,,0,2,2,2,1,third,10,33,female,R,IMT,2021-07-16_00h07.25.208,ImageRatingTask_S4,2021.1.4,Win32,59.95563283,,,,,,,,,
,,,,,,,,,,,,0,3,3,3,1,fourth,10,33,female,R,IMT,2021-07-16_00h07.25.208,ImageRatingTask_S4,2021.1.4,Win32,59.95563283,,,,,,,,,
,,,,,,,,,,,,0,4,4,4,1,fifth,10,33,female,R,IMT,2021-07-16_00h07.25.208,ImageRatingTask_S4,2021.1.4,Win32,59.95563283,,,,,,,,,
,,,,,,,,,,,,0,5,5,5,1,sixth,10,33,female,R,IMT,2021-07-16_00h07.25.208,ImageRatingTask_S4,2021.1.4,Win32,59.95563283,,,,,,,,,
,,,,,,,,,,,,0,6,6,6,1,seventh,10,33,female,R,IMT,2021-07-16_00h07.25.208,ImageRatingTask_S4,2021.1.4,Win32,59.95563283,,,,,,,,,
,,,,,,,,,,,,0,7,7,7,1,last,10,33,female,R,IMT,2021-07-16_00h07.25.208,ImageRatingTask_S4,2021.1.4,Win32,59.95563283,,,,,,,,,
,,,,,,,,,,,,,,,,,,10,33,female,R,IMT,2021-07-16_00h07.25.208,ImageRatingTask_S4,2021.1.4,Win32,59.95563283,0,35,35,139,1,DreamStudyImages_rs1000x750g/Water/Landscapes_106_v.jpg,,,
,,num_6,11.1316,num_3,1.2869,num_9,0.8153,num_1,0.9681,num_8,1.8727,0,0,0,0,1,main,10,33,female,R,IMT,2021-07-16_00h07.25.208,ImageRatingTask_S4,2021.1.4,Win32,59.95563283,,,,,,,,,
,,,,,,,,,,,,0,1,1,1,1,second,10,33,female,R,IMT,2021-07-16_00h07.25.208,ImageRatingTask_S4,2021.1.4,Win32,59.95563283,,,,,,,,,
,,,,,,,,,,,,0,2,2,2,1,third,10,33,female,R,IMT,2021-07-16_00h07.25.208,ImageRatingTask_S4,2021.1.4,Win32,59.95563283,,,,,,,,,
,,,,,,,,,,,,0,3,3,3,1,fourth,10,33,female,R,IMT,2021-07-16_00h07.25.208,ImageRatingTask_S4,2021.1.4,Win32,59.95563283,,,,,,,,,
,,,,,,,,,,,,0,4,4,4,1,fifth,10,33,female,R,IMT,2021-07-16_00h07.25.208,ImageRatingTask_S4,2021.1.4,Win32,59.95563283,,,,,,,,,
,,,,,,,,,,,,0,5,5,5,1,sixth,10,33,female,R,IMT,2021-07-16_00h07.25.208,ImageRatingTask_S4,2021.1.4,Win32,59.95563283,,,,,,,,,
,,,,,,,,,,,,0,6,6,6,1,seventh,10,33,female,R,IMT,2021-07-16_00h07.25.208,ImageRatingTask_S4,2021.1.4,Win32,59.95563283,,,,,,,,,
,,,,,,,,,,,,0,7,7,7,1,last,10,33,female,R,IMT,2021-07-16_00h07.25.208,ImageRatingTask_S4,2021.1.4,Win32,59.95563283,,,,,,,,,
,,,,,,,,,,,,,,,,,,10,33,female,R,IMT,2021-07-16_00h07.25.208,ImageRatingTask_S4,2021.1.4,Win32,59.95563283,0,36,36,10,1,DreamStudyImages_rs1000x750g/Water/Thunderstorm 11.jpg,,,
,,num_4,6.3156,num_4,3.1413,num_9,1.6991,num_1,1.1341,num_3,5.5255,0,0,0,0,1,main,10,33,female,R,IMT,2021-07-16_00h07.25.208,ImageRatingTask_S4,2021.1.4,Win32,59.95563283,,,,,,,,,
,,,,,,,,,,,,0,1,1,1,1,second,10,33,female,R,IMT,2021-07-16_00h07.25.208,ImageRatingTask_S4,2021.1.4,Win32,59.95563283,,,,,,,,,
,,,,,,,,,,,,0,2,2,2,1,third,10,33,female,R,IMT,2021-07-16_00h07.25.208,ImageRatingTask_S4,2021.1.4,Win32,59.95563283,,,,,,,,,
,,,,,,,,,,,,0,3,3,3,1,fourth,10,33,female,R,IMT,2021-07-16_00h07.25.208,ImageRatingTask_S4,2021.1.4,Win32,59.95563283,,,,,,,,,
,,,,,,,,,,,,0,4,4,4,1,fifth,10,33,female,R,IMT,2021-07-16_00h07.25.208,ImageRatingTask_S4,2021.1.4,Win32,59.95563283,,,,,,,,,
,,,,,,,,,,,,0,5,5,5,1,sixth,10,33,female,R,IMT,2021-07-16_00h07.25.208,ImageRatingTask_S4,2021.1.4,Win32,59.95563283,,,,,,,,,
,,,,,,,,,,,,0,6,6,6,1,seventh,10,33,female,R,IMT,2021-07-16_00h07.25.208,ImageRatingTask_S4,2021.1.4,Win32,59.95563283,,,,,,,,,
,,,,,,,,,,,,0,7,7,7,1,last,10,33,female,R,IMT,2021-07-16_00h07.25.208,ImageRatingTask_S4,2021.1.4,Win32,59.95563283,,,,,,,,,
,,,,,,,,,,,,,,,,,,10,33,female,R,IMT,2021-07-16_00h07.25.208,ImageRatingTask_S4,2021.1.4,Win32,59.95563283,0,37,37,25,1,DreamStudyImages_rs1000x750g/Mammals/IAPS1301_dog2.jpg,,,
,,num_5,6.1062,num_1,0.3587,num_9,6.8404,num_1,11.3971,num_5,0.6657,0,0,0,0,1,main,10,33,female,R,IMT,2021-07-16_00h07.25.208,ImageRatingTask_S4,2021.1.4,Win32,59.95563283,,,,,,,,,
,,,,,,,,,,,,0,1,1,1,1,second,10,33,female,R,IMT,2021-07-16_00h07.25.208,ImageRatingTask_S4,2021.1.4,Win32,59.95563283,,,,,,,,,
,,,,,,,,,,,,0,2,2,2,1,third,10,33,female,R,IMT,2021-07-16_00h07.25.208,ImageRatingTask_S4,2021.1.4,Win32,59.95563283,,,,,,,,,
,,,,,,,,,,,,0,3,3,3,1,fourth,10,33,female,R,IMT,2021-07-16_00h07.25.208,ImageRatingTask_S4,2021.1.4,Win32,59.95563283,,,,,,,,,
,,,,,,,,,,,,0,4,4,4,1,fifth,10,33,female,R,IMT,2021-07-16_00h07.25.208,ImageRatingTask_S4,2021.1.4,Win32,59.95563283,,,,,,,,,
,,,,,,,,,,,,0,5,5,5,1,sixth,10,33,female,R,IMT,2021-07-16_00h07.25.208,ImageRatingTask_S4,2021.1.4,Win32,59.95563283,,,,,,,,,
,,,,,,,,,,,,0,6,6,6,1,seventh,10,33,female,R,IMT,2021-07-16_00h07.25.208,ImageRatingTask_S4,2021.1.4,Win32,59.95563283,,,,,,,,,
,,,,,,,,,,,,0,7,7,7,1,last,10,33,female,R,IMT,2021-07-16_00h07.25.208,ImageRatingTask_S4,2021.1.4,Win32,59.95563283,,,,,,,,,
,,,,,,,,,,,,,,,,,,10,33,female,R,IMT,2021-07-16_00h07.25.208,ImageRatingTask_S4,2021.1.4,Win32,59.95563283,0,38,38,125,1,DreamStudyImages_rs1000x750g/Food/Objects_080_h.jpg,,,
,,num_5,5.0218,num_1,0.2706,num_9,0.7575,num_1,0.8297,num_5,1.2204,0,0,0,0,1,main,10,33,female,R,IMT,2021-07-16_00h07.25.208,ImageRatingTask_S4,2021.1.4,Win32,59.95563283,,,,,,,,,
,,,,,,,,,,,,0,1,1,1,1,second,10,33,female,R,IMT,2021-07-16_00h07.25.208,ImageRatingTask_S4,2021.1.4,Win32,59.95563283,,,,,,,,,
,,,,,,,,,,,,0,2,2,2,1,third,10,33,female,R,IMT,2021-07-16_00h07.25.208,ImageRatingTask_S4,2021.1.4,Win32,59.95563283,,,,,,,,,
,,,,,,,,,,,,0,3,3,3,1,fourth,10,33,female,R,IMT,2021-07-16_00h07.25.208,ImageRatingTask_S4,2021.1.4,Win32,59.95563283,,,,,,,,,
,,,,,,,,,,,,0,4,4,4,1,fifth,10,33,female,R,IMT,2021-07-16_00h07.25.208,ImageRatingTask_S4,2021.1.4,Win32,59.95563283,,,,,,,,,
,,,,,,,,,,,,0,5,5,5,1,sixth,10,33,female,R,IMT,2021-07-16_00h07.25.208,ImageRatingTask_S4,2021.1.4,Win32,59.95563283,,,,,,,,,
,,,,,,,,,,,,0,6,6,6,1,seventh,10,33,female,R,IMT,2021-07-16_00h07.25.208,ImageRatingTask_S4,2021.1.4,Win32,59.95563283,,,,,,,,,
,,,,,,,,,,,,0,7,7,7,1,last,10,33,female,R,IMT,2021-07-16_00h07.25.208,ImageRatingTask_S4,2021.1.4,Win32,59.95563283,,,,,,,,,
,,,,,,,,,,,,,,,,,,10,33,female,R,IMT,2021-07-16_00h07.25.208,ImageRatingTask_S4,2021.1.4,Win32,59.95563283,0,39,39,22,1,DreamStudyImages_rs1000x750g/Food/IAPS7475_curry.jpg,,,
,,num_4,4.037,num_4,1.8577,num_9,1.35,num_1,0.69,num_5,0.8158,0,0,0,0,1,main,10,33,female,R,IMT,2021-07-16_00h07.25.208,ImageRatingTask_S4,2021.1.4,Win32,59.95563283,,,,,,,,,
,,,,,,,,,,,,0,1,1,1,1,second,10,33,female,R,IMT,2021-07-16_00h07.25.208,ImageRatingTask_S4,2021.1.4,Win32,59.95563283,,,,,,,,,
,,,,,,,,,,,,0,2,2,2,1,third,10,33,female,R,IMT,2021-07-16_00h07.25.208,ImageRatingTask_S4,2021.1.4,Win32,59.95563283,,,,,,,,,
,,,,,,,,,,,,0,3,3,3,1,fourth,10,33,female,R,IMT,2021-07-16_00h07.25.208,ImageRatingTask_S4,2021.1.4,Win32,59.95563283,,,,,,,,,
,,,,,,,,,,,,0,4,4,4,1,fifth,10,33,female,R,IMT,2021-07-16_00h07.25.208,ImageRatingTask_S4,2021.1.4,Win32,59.95563283,,,,,,,,,
,,,,,,,,,,,,0,5,5,5,1,sixth,10,33,female,R,IMT,2021-07-16_00h07.25.208,ImageRatingTask_S4,2021.1.4,Win32,59.95563283,,,,,,,,,
,,,,,,,,,,,,0,6,6,6,1,seventh,10,33,female,R,IMT,2021-07-16_00h07.25.208,ImageRatingTask_S4,2021.1.4,Win32,59.95563283,,,,,,,,,
,,,,,,,,,,,,0,7,7,7,1,last,10,33,female,R,IMT,2021-07-16_00h07.25.208,ImageRatingTask_S4,2021.1.4,Win32,59.95563283,,,,,,,,,
,,,,,,,,,,,,,,,,,,10,33,female,R,IMT,2021-07-16_00h07.25.208,ImageRatingTask_S4,2021.1.4,Win32,59.95563283,0,40,40,38,1,DreamStudyImages_rs1000x750g/Food/Objects_076_v.jpg,,,
,,num_5,3.8822,num_1,0.2819,num_9,1.5051,num_1,1.1062,num_3,2.394,0,0,0,0,1,main,10,33,female,R,IMT,2021-07-16_00h07.25.208,ImageRatingTask_S4,2021.1.4,Win32,59.95563283,,,,,,,,,
,,,,,,,,,,,,0,1,1,1,1,second,10,33,female,R,IMT,2021-07-16_00h07.25.208,ImageRatingTask_S4,2021.1.4,Win32,59.95563283,,,,,,,,,
,,,,,,,,,,,,0,2,2,2,1,third,10,33,female,R,IMT,2021-07-16_00h07.25.208,ImageRatingTask_S4,2021.1.4,Win32,59.95563283,,,,,,,,,
,,,,,,,,,,,,0,3,3,3,1,fourth,10,33,female,R,IMT,2021-07-16_00h07.25.208,ImageRatingTask_S4,2021.1.4,Win32,59.95563283,,,,,,,,,
,,,,,,,,,,,,0,4,4,4,1,fifth,10,33,female,R,IMT,2021-07-16_00h07.25.208,ImageRatingTask_S4,2021.1.4,Win32,59.95563283,,,,,,,,,
,,,,,,,,,,,,0,5,5,5,1,sixth,10,33,female,R,IMT,2021-07-16_00h07.25.208,ImageRatingTask_S4,2021.1.4,Win32,59.95563283,,,,,,,,,
,,,,,,,,,,,,0,6,6,6,1,seventh,10,33,female,R,IMT,2021-07-16_00h07.25.208,ImageRatingTask_S4,2021.1.4,Win32,59.95563283,,,,,,,,,
,,,,,,,,,,,,0,7,7,7,1,last,10,33,female,R,IMT,2021-07-16_00h07.25.208,ImageRatingTask_S4,2021.1.4,Win32,59.95563283,,,,,,,,,
,,,,,,,,,,,,,,,,,,10,33,female,R,IMT,2021-07-16_00h07.25.208,ImageRatingTask_S4,2021.1.4,Win32,59.95563283,0,41,41,84,1,DreamStudyImages_rs1000x750g/Mammals/Animals_137_h.jpg,,,
,,num_6,2.932,num_2,1.1275,num_9,0.4911,num_1,0.4801,num_8,0.9103,0,0,0,0,1,main,10,33,female,R,IMT,2021-07-16_00h07.25.208,ImageRatingTask_S4,2021.1.4,Win32,59.95563283,,,,,,,,,
,,,,,,,,,,,,0,1,1,1,1,second,10,33,female,R,IMT,2021-07-16_00h07.25.208,ImageRatingTask_S4,2021.1.4,Win32,59.95563283,,,,,,,,,
,,,,,,,,,,,,0,2,2,2,1,third,10,33,female,R,IMT,2021-07-16_00h07.25.208,ImageRatingTask_S4,2021.1.4,Win32,59.95563283,,,,,,,,,
,,,,,,,,,,,,0,3,3,3,1,fourth,10,33,female,R,IMT,2021-07-16_00h07.25.208,ImageRatingTask_S4,2021.1.4,Win32,59.95563283,,,,,,,,,
,,,,,,,,,,,,0,4,4,4,1,fifth,10,33,female,R,IMT,2021-07-16_00h07.25.208,ImageRatingTask_S4,2021.1.4,Win32,59.95563283,,,,,,,,,
,,,,,,,,,,,,0,5,5,5,1,sixth,10,33,female,R,IMT,2021-07-16_00h07.25.208,ImageRatingTask_S4,2021.1.4,Win32,59.95563283,,,,,,,,,
,,,,,,,,,,,,0,6,6,6,1,seventh,10,33,female,R,IMT,2021-07-16_00h07.25.208,ImageRatingTask_S4,2021.1.4,Win32,59.95563283,,,,,,,,,
,,,,,,,,,,,,0,7,7,7,1,last,10,33,female,R,IMT,2021-07-16_00h07.25.208,ImageRatingTask_S4,2021.1.4,Win32,59.95563283,,,,,,,,,
,,,,,,,,,,,,,,,,,,10,33,female,R,IMT,2021-07-16_00h07.25.208,ImageRatingTask_S4,2021.1.4,Win32,59.95563283,0,42,42,36,1,DreamStudyImages_rs1000x750g/Water/wavybeach.jpg,,,
,,num_6,1.8441,num_1,0.3229,num_8,1.2048,num_1,0.6252,num_2,0.3985,0,0,0,0,1,main,10,33,female,R,IMT,2021-07-16_00h07.25.208,ImageRatingTask_S4,2021.1.4,Win32,59.95563283,,,,,,,,,
,,,,,,,,,,,,0,1,1,1,1,second,10,33,female,R,IMT,2021-07-16_00h07.25.208,ImageRatingTask_S4,2021.1.4,Win32,59.95563283,,,,,,,,,
,,,,,,,,,,,,0,2,2,2,1,third,10,33,female,R,IMT,2021-07-16_00h07.25.208,ImageRatingTask_S4,2021.1.4,Win32,59.95563283,,,,,,,,,
,,,,,,,,,,,,0,3,3,3,1,fourth,10,33,female,R,IMT,2021-07-16_00h07.25.208,ImageRatingTask_S4,2021.1.4,Win32,59.95563283,,,,,,,,,
,,,,,,,,,,,,0,4,4,4,1,fifth,10,33,female,R,IMT,2021-07-16_00h07.25.208,ImageRatingTask_S4,2021.1.4,Win32,59.95563283,,,,,,,,,
,,,,,,,,,,,,0,5,5,5,1,sixth,10,33,female,R,IMT,2021-07-16_00h07.25.208,ImageRatingTask_S4,2021.1.4,Win32,59.95563283,,,,,,,,,
,,,,,,,,,,,,0,6,6,6,1,seventh,10,33,female,R,IMT,2021-07-16_00h07.25.208,ImageRatingTask_S4,2021.1.4,Win32,59.95563283,,,,,,,,,
,,,,,,,,,,,,0,7,7,7,1,last,10,33,female,R,IMT,2021-07-16_00h07.25.208,ImageRatingTask_S4,2021.1.4,Win32,59.95563283,,,,,,,,,
,,,,,,,,,,,,,,,,,,10,33,female,R,IMT,2021-07-16_00h07.25.208,ImageRatingTask_S4,2021.1.4,Win32,59.95563283,0,43,43,92,1,DreamStudyImages_rs1000x750g/Children/IAPS2250_baby19.jpg,,,
,,num_6,2.0722,num_1,0.9709,num_9,0.9327,num_1,0.6432,num_7,0.9505,0,0,0,0,1,main,10,33,female,R,IMT,2021-07-16_00h07.25.208,ImageRatingTask_S4,2021.1.4,Win32,59.95563283,,,,,,,,,
,,,,,,,,,,,,0,1,1,1,1,second,10,33,female,R,IMT,2021-07-16_00h07.25.208,ImageRatingTask_S4,2021.1.4,Win32,59.95563283,,,,,,,,,
,,,,,,,,,,,,0,2,2,2,1,third,10,33,female,R,IMT,2021-07-16_00h07.25.208,ImageRatingTask_S4,2021.1.4,Win32,59.95563283,,,,,,,,,
,,,,,,,,,,,,0,3,3,3,1,fourth,10,33,female,R,IMT,2021-07-16_00h07.25.208,ImageRatingTask_S4,2021.1.4,Win32,59.95563283,,,,,,,,,
,,,,,,,,,,,,0,4,4,4,1,fifth,10,33,female,R,IMT,2021-07-16_00h07.25.208,ImageRatingTask_S4,2021.1.4,Win32,59.95563283,,,,,,,,,
,,,,,,,,,,,,0,5,5,5,1,sixth,10,33,female,R,IMT,2021-07-16_00h07.25.208,ImageRatingTask_S4,2021.1.4,Win32,59.95563283,,,,,,,,,
,,,,,,,,,,,,0,6,6,6,1,seventh,10,33,female,R,IMT,2021-07-16_00h07.25.208,ImageRatingTask_S4,2021.1.4,Win32,59.95563283,,,,,,,,,
,,,,,,,,,,,,0,7,7,7,1,last,10,33,female,R,IMT,2021-07-16_00h07.25.208,ImageRatingTask_S4,2021.1.4,Win32,59.95563283,,,,,,,,,
,,,,,,,,,,,,,,,,,,10,33,female,R,IMT,2021-07-16_00h07.25.208,ImageRatingTask_S4,2021.1.4,Win32,59.95563283,0,44,44,57,1,DreamStudyImages_rs1000x750g/Vehicles/bluevan.jpg,,,
,,num_7,2.8101,num_3,1.208,num_9,1.0584,num_1,0.726,num_3,1.3439,0,0,0,0,1,main,10,33,female,R,IMT,2021-07-16_00h07.25.208,ImageRatingTask_S4,2021.1.4,Win32,59.95563283,,,,,,,,,
,,,,,,,,,,,,0,1,1,1,1,second,10,33,female,R,IMT,2021-07-16_00h07.25.208,ImageRatingTask_S4,2021.1.4,Win32,59.95563283,,,,,,,,,
,,,,,,,,,,,,0,2,2,2,1,third,10,33,female,R,IMT,2021-07-16_00h07.25.208,ImageRatingTask_S4,2021.1.4,Win32,59.95563283,,,,,,,,,
,,,,,,,,,,,,0,3,3,3,1,fourth,10,33,female,R,IMT,2021-07-16_00h07.25.208,ImageRatingTask_S4,2021.1.4,Win32,59.95563283,,,,,,,,,
,,,,,,,,,,,,0,4,4,4,1,fifth,10,33,female,R,IMT,2021-07-16_00h07.25.208,ImageRatingTask_S4,2021.1.4,Win32,59.95563283,,,,,,,,,
,,,,,,,,,,,,0,5,5,5,1,sixth,10,33,female,R,IMT,2021-07-16_00h07.25.208,ImageRatingTask_S4,2021.1.4,Win32,59.95563283,,,,,,,,,
,,,,,,,,,,,,0,6,6,6,1,seventh,10,33,female,R,IMT,2021-07-16_00h07.25.208,ImageRatingTask_S4,2021.1.4,Win32,59.95563283,,,,,,,,,
,,,,,,,,,,,,0,7,7,7,1,last,10,33,female,R,IMT,2021-07-16_00h07.25.208,ImageRatingTask_S4,2021.1.4,Win32,59.95563283,,,,,,,,,
,,,,,,,,,,,,,,,,,,10,33,female,R,IMT,2021-07-16_00h07.25.208,ImageRatingTask_S4,2021.1.4,Win32,59.95563283,0,45,45,90,1,DreamStudyImages_rs1000x750g/Mammals/Dog 18.jpg,,,
,,num_5,1.3254,num_1,0.1752,num_9,0.8753,num_1,0.477,num_7,0.8316,0,0,0,0,1,main,10,33,female,R,IMT,2021-07-16_00h07.25.208,ImageRatingTask_S4,2021.1.4,Win32,59.95563283,,,,,,,,,
,,,,,,,,,,,,0,1,1,1,1,second,10,33,female,R,IMT,2021-07-16_00h07.25.208,ImageRatingTask_S4,2021.1.4,Win32,59.95563283,,,,,,,,,
,,,,,,,,,,,,0,2,2,2,1,third,10,33,female,R,IMT,2021-07-16_00h07.25.208,ImageRatingTask_S4,2021.1.4,Win32,59.95563283,,,,,,,,,
,,,,,,,,,,,,0,3,3,3,1,fourth,10,33,female,R,IMT,2021-07-16_00h07.25.208,ImageRatingTask_S4,2021.1.4,Win32,59.95563283,,,,,,,,,
,,,,,,,,,,,,0,4,4,4,1,fifth,10,33,female,R,IMT,2021-07-16_00h07.25.208,ImageRatingTask_S4,2021.1.4,Win32,59.95563283,,,,,,,,,
,,,,,,,,,,,,0,5,5,5,1,sixth,10,33,female,R,IMT,2021-07-16_00h07.25.208,ImageRatingTask_S4,2021.1.4,Win32,59.95563283,,,,,,,,,
,,,,,,,,,,,,0,6,6,6,1,seventh,10,33,female,R,IMT,2021-07-16_00h07.25.208,ImageRatingTask_S4,2021.1.4,Win32,59.95563283,,,,,,,,,
,,,,,,,,,,,,0,7,7,7,1,last,10,33,female,R,IMT,2021-07-16_00h07.25.208,ImageRatingTask_S4,2021.1.4,Win32,59.95563283,,,,,,,,,
,,,,,,,,,,,,,,,,,,10,33,female,R,IMT,2021-07-16_00h07.25.208,ImageRatingTask_S4,2021.1.4,Win32,59.95563283,0,46,46,26,1,DreamStudyImages_rs1000x750g/Vehicles/7590.jpg,,,
,,num_6,2.7252,num_4,1.7929,num_9,0.9591,num_1,4.7583,num_5,0.556,0,0,0,0,1,main,10,33,female,R,IMT,2021-07-16_00h07.25.208,ImageRatingTask_S4,2021.1.4,Win32,59.95563283,,,,,,,,,
,,,,,,,,,,,,0,1,1,1,1,second,10,33,female,R,IMT,2021-07-16_00h07.25.208,ImageRatingTask_S4,2021.1.4,Win32,59.95563283,,,,,,,,,
,,,,,,,,,,,,0,2,2,2,1,third,10,33,female,R,IMT,2021-07-16_00h07.25.208,ImageRatingTask_S4,2021.1.4,Win32,59.95563283,,,,,,,,,
,,,,,,,,,,,,0,3,3,3,1,fourth,10,33,female,R,IMT,2021-07-16_00h07.25.208,ImageRatingTask_S4,2021.1.4,Win32,59.95563283,,,,,,,,,
,,,,,,,,,,,,0,4,4,4,1,fifth,10,33,female,R,IMT,2021-07-16_00h07.25.208,ImageRatingTask_S4,2021.1.4,Win32,59.95563283,,,,,,,,,
,,,,,,,,,,,,0,5,5,5,1,sixth,10,33,female,R,IMT,2021-07-16_00h07.25.208,ImageRatingTask_S4,2021.1.4,Win32,59.95563283,,,,,,,,,
,,,,,,,,,,,,0,6,6,6,1,seventh,10,33,female,R,IMT,2021-07-16_00h07.25.208,ImageRatingTask_S4,2021.1.4,Win32,59.95563283,,,,,,,,,
,,,,,,,,,,,,0,7,7,7,1,last,10,33,female,R,IMT,2021-07-16_00h07.25.208,ImageRatingTask_S4,2021.1.4,Win32,59.95563283,,,,,,,,,
,,,,,,,,,,,,,,,,,,10,33,female,R,IMT,2021-07-16_00h07.25.208,ImageRatingTask_S4,2021.1.4,Win32,59.95563283,0,47,47,102,1,DreamStudyImages_rs1000x750g/Food/IAPS7481_diner3.jpg,,,
,,num_5,2.6687,num_1,0.4211,num_9,1.8297,num_1,4.4618,num_7,0.7919,0,0,0,0,1,main,10,33,female,R,IMT,2021-07-16_00h07.25.208,ImageRatingTask_S4,2021.1.4,Win32,59.95563283,,,,,,,,,
,,,,,,,,,,,,0,1,1,1,1,second,10,33,female,R,IMT,2021-07-16_00h07.25.208,ImageRatingTask_S4,2021.1.4,Win32,59.95563283,,,,,,,,,
,,,,,,,,,,,,0,2,2,2,1,third,10,33,female,R,IMT,2021-07-16_00h07.25.208,ImageRatingTask_S4,2021.1.4,Win32,59.95563283,,,,,,,,,
,,,,,,,,,,,,0,3,3,3,1,fourth,10,33,female,R,IMT,2021-07-16_00h07.25.208,ImageRatingTask_S4,2021.1.4,Win32,59.95563283,,,,,,,,,
,,,,,,,,,,,,0,4,4,4,1,fifth,10,33,female,R,IMT,2021-07-16_00h07.25.208,ImageRatingTask_S4,2021.1.4,Win32,59.95563283,,,,,,,,,
,,,,,,,,,,,,0,5,5,5,1,sixth,10,33,female,R,IMT,2021-07-16_00h07.25.208,ImageRatingTask_S4,2021.1.4,Win32,59.95563283,,,,,,,,,
,,,,,,,,,,,,0,6,6,6,1,seventh,10,33,female,R,IMT,2021-07-16_00h07.25.208,ImageRatingTask_S4,2021.1.4,Win32,59.95563283,,,,,,,,,
,,,,,,,,,,,,0,7,7,7,1,last,10,33,female,R,IMT,2021-07-16_00h07.25.208,ImageRatingTask_S4,2021.1.4,Win32,59.95563283,,,,,,,,,
,,,,,,,,,,,,,,,,,,10,33,female,R,IMT,2021-07-16_00h07.25.208,ImageRatingTask_S4,2021.1.4,Win32,59.95563283,0,48,48,65,1,DreamStudyImages_rs1000x750g/Vehicles/roadrailvehicle.jpg,,,
,,num_5,1.238,num_1,1.2579,num_9,2.6729,num_1,0.7301,num_3,0.3489,0,0,0,0,1,main,10,33,female,R,IMT,2021-07-16_00h07.25.208,ImageRatingTask_S4,2021.1.4,Win32,59.95563283,,,,,,,,,
,,,,,,,,,,,,0,1,1,1,1,second,10,33,female,R,IMT,2021-07-16_00h07.25.208,ImageRatingTask_S4,2021.1.4,Win32,59.95563283,,,,,,,,,
,,,,,,,,,,,,0,2,2,2,1,third,10,33,female,R,IMT,2021-07-16_00h07.25.208,ImageRatingTask_S4,2021.1.4,Win32,59.95563283,,,,,,,,,
,,,,,,,,,,,,0,3,3,3,1,fourth,10,33,female,R,IMT,2021-07-16_00h07.25.208,ImageRatingTask_S4,2021.1.4,Win32,59.95563283,,,,,,,,,
,,,,,,,,,,,,0,4,4,4,1,fifth,10,33,female,R,IMT,2021-07-16_00h07.25.208,ImageRatingTask_S4,2021.1.4,Win32,59.95563283,,,,,,,,,
,,,,,,,,,,,,0,5,5,5,1,sixth,10,33,female,R,IMT,2021-07-16_00h07.25.208,ImageRatingTask_S4,2021.1.4,Win32,59.95563283,,,,,,,,,
,,,,,,,,,,,,0,6,6,6,1,seventh,10,33,female,R,IMT,2021-07-16_00h07.25.208,ImageRatingTask_S4,2021.1.4,Win32,59.95563283,,,,,,,,,
,,,,,,,,,,,,0,7,7,7,1,last,10,33,female,R,IMT,2021-07-16_00h07.25.208,ImageRatingTask_S4,2021.1.4,Win32,59.95563283,,,,,,,,,
,,,,,,,,,,,,,,,,,,10,33,female,R,IMT,2021-07-16_00h07.25.208,ImageRatingTask_S4,2021.1.4,Win32,59.95563283,0,49,49,19,1,DreamStudyImages_rs1000x750g/Mammals/Animals_113_h.jpg,,,
,,num_5,2.6824,num_1,0.5191,num_9,0.6006,num_1,0.6714,num_8,1.9232,0,0,0,0,1,main,10,33,female,R,IMT,2021-07-16_00h07.25.208,ImageRatingTask_S4,2021.1.4,Win32,59.95563283,,,,,,,,,
,,,,,,,,,,,,0,1,1,1,1,second,10,33,female,R,IMT,2021-07-16_00h07.25.208,ImageRatingTask_S4,2021.1.4,Win32,59.95563283,,,,,,,,,
,,,,,,,,,,,,0,2,2,2,1,third,10,33,female,R,IMT,2021-07-16_00h07.25.208,ImageRatingTask_S4,2021.1.4,Win32,59.95563283,,,,,,,,,
,,,,,,,,,,,,0,3,3,3,1,fourth,10,33,female,R,IMT,2021-07-16_00h07.25.208,ImageRatingTask_S4,2021.1.4,Win32,59.95563283,,,,,,,,,
,,,,,,,,,,,,0,4,4,4,1,fifth,10,33,female,R,IMT,2021-07-16_00h07.25.208,ImageRatingTask_S4,2021.1.4,Win32,59.95563283,,,,,,,,,
,,,,,,,,,,,,0,5,5,5,1,sixth,10,33,female,R,IMT,2021-07-16_00h07.25.208,ImageRatingTask_S4,2021.1.4,Win32,59.95563283,,,,,,,,,
,,,,,,,,,,,,0,6,6,6,1,seventh,10,33,female,R,IMT,2021-07-16_00h07.25.208,ImageRatingTask_S4,2021.1.4,Win32,59.95563283,,,,,,,,,
,,,,,,,,,,,,0,7,7,7,1,last,10,33,female,R,IMT,2021-07-16_00h07.25.208,ImageRatingTask_S4,2021.1.4,Win32,59.95563283,,,,,,,,,
,,,,,,,,,,,,,,,,,,10,33,female,R,IMT,2021-07-16_00h07.25.208,ImageRatingTask_S4,2021.1.4,Win32,59.95563283,0,50,50,131,1,DreamStudyImages_rs1000x750g/Water/Rainbow 1.jpg,,,
,,num_2,6.2875,num_8,0.9661,num_9,1.3823,num_1,1.4575,num_2,0.3142,0,0,0,0,1,main,10,33,female,R,IMT,2021-07-16_00h07.25.208,ImageRatingTask_S4,2021.1.4,Win32,59.95563283,,,,,,,,,
,,,,,,,,,,,,0,1,1,1,1,second,10,33,female,R,IMT,2021-07-16_00h07.25.208,ImageRatingTask_S4,2021.1.4,Win32,59.95563283,,,,,,,,,
,,,,,,,,,,,,0,2,2,2,1,third,10,33,female,R,IMT,2021-07-16_00h07.25.208,ImageRatingTask_S4,2021.1.4,Win32,59.95563283,,,,,,,,,
,,,,,,,,,,,,0,3,3,3,1,fourth,10,33,female,R,IMT,2021-07-16_00h07.25.208,ImageRatingTask_S4,2021.1.4,Win32,59.95563283,,,,,,,,,
,,,,,,,,,,,,0,4,4,4,1,fifth,10,33,female,R,IMT,2021-07-16_00h07.25.208,ImageRatingTask_S4,2021.1.4,Win32,59.95563283,,,,,,,,,
,,,,,,,,,,,,0,5,5,5,1,sixth,10,33,female,R,IMT,2021-07-16_00h07.25.208,ImageRatingTask_S4,2021.1.4,Win32,59.95563283,,,,,,,,,
,,,,,,,,,,,,0,6,6,6,1,seventh,10,33,female,R,IMT,2021-07-16_00h07.25.208,ImageRatingTask_S4,2021.1.4,Win32,59.95563283,,,,,,,,,
,,,,,,,,,,,,0,7,7,7,1,last,10,33,female,R,IMT,2021-07-16_00h07.25.208,ImageRatingTask_S4,2021.1.4,Win32,59.95563283,,,,,,,,,
,,,,,,,,,,,,,,,,,,10,33,female,R,IMT,2021-07-16_00h07.25.208,ImageRatingTask_S4,2021.1.4,Win32,59.95563283,0,51,51,114,1,DreamStudyImages_rs1000x750g/Children/People_031_v.jpg,,,
,,num_7,2.5344,num_2,1.3564,num_9,0.6512,num_1,0.7358,num_2,0.293,0,0,0,0,1,main,10,33,female,R,IMT,2021-07-16_00h07.25.208,ImageRatingTask_S4,2021.1.4,Win32,59.95563283,,,,,,,,,
,,,,,,,,,,,,0,1,1,1,1,second,10,33,female,R,IMT,2021-07-16_00h07.25.208,ImageRatingTask_S4,2021.1.4,Win32,59.95563283,,,,,,,,,
,,,,,,,,,,,,0,2,2,2,1,third,10,33,female,R,IMT,2021-07-16_00h07.25.208,ImageRatingTask_S4,2021.1.4,Win32,59.95563283,,,,,,,,,
,,,,,,,,,,,,0,3,3,3,1,fourth,10,33,female,R,IMT,2021-07-16_00h07.25.208,ImageRatingTask_S4,2021.1.4,Win32,59.95563283,,,,,,,,,
,,,,,,,,,,,,0,4,4,4,1,fifth,10,33,female,R,IMT,2021-07-16_00h07.25.208,ImageRatingTask_S4,2021.1.4,Win32,59.95563283,,,,,,,,,
,,,,,,,,,,,,0,5,5,5,1,sixth,10,33,female,R,IMT,2021-07-16_00h07.25.208,ImageRatingTask_S4,2021.1.4,Win32,59.95563283,,,,,,,,,
,,,,,,,,,,,,0,6,6,6,1,seventh,10,33,female,R,IMT,2021-07-16_00h07.25.208,ImageRatingTask_S4,2021.1.4,Win32,59.95563283,,,,,,,,,
,,,,,,,,,,,,0,7,7,7,1,last,10,33,female,R,IMT,2021-07-16_00h07.25.208,ImageRatingTask_S4,2021.1.4,Win32,59.95563283,,,,,,,,,
,,,,,,,,,,,,,,,,,,10,33,female,R,IMT,2021-07-16_00h07.25.208,ImageRatingTask_S4,2021.1.4,Win32,59.95563283,0,52,52,35,1,DreamStudyImages_rs1000x750g/Children/Excited face 2.jpg,,,
,,num_5,1.1183,num_1,0.2177,num_9,0.8362,num_1,1.1914,num_6,3.3102,0,0,0,0,1,main,10,33,female,R,IMT,2021-07-16_00h07.25.208,ImageRatingTask_S4,2021.1.4,Win32,59.95563283,,,,,,,,,
,,,,,,,,,,,,0,1,1,1,1,second,10,33,female,R,IMT,2021-07-16_00h07.25.208,ImageRatingTask_S4,2021.1.4,Win32,59.95563283,,,,,,,,,
,,,,,,,,,,,,0,2,2,2,1,third,10,33,female,R,IMT,2021-07-16_00h07.25.208,ImageRatingTask_S4,2021.1.4,Win32,59.95563283,,,,,,,,,
,,,,,,,,,,,,0,3,3,3,1,fourth,10,33,female,R,IMT,2021-07-16_00h07.25.208,ImageRatingTask_S4,2021.1.4,Win32,59.95563283,,,,,,,,,
,,,,,,,,,,,,0,4,4,4,1,fifth,10,33,female,R,IMT,2021-07-16_00h07.25.208,ImageRatingTask_S4,2021.1.4,Win32,59.95563283,,,,,,,,,
,,,,,,,,,,,,0,5,5,5,1,sixth,10,33,female,R,IMT,2021-07-16_00h07.25.208,ImageRatingTask_S4,2021.1.4,Win32,59.95563283,,,,,,,,,
,,,,,,,,,,,,0,6,6,6,1,seventh,10,33,female,R,IMT,2021-07-16_00h07.25.208,ImageRatingTask_S4,2021.1.4,Win32,59.95563283,,,,,,,,,
,,,,,,,,,,,,0,7,7,7,1,last,10,33,female,R,IMT,2021-07-16_00h07.25.208,ImageRatingTask_S4,2021.1.4,Win32,59.95563283,,,,,,,,,
,,,,,,,,,,,,,,,,,,10,33,female,R,IMT,2021-07-16_00h07.25.208,ImageRatingTask_S4,2021.1.4,Win32,59.95563283,0,53,53,6,1,DreamStudyImages_rs1000x750g/Houses/Objects_210_h.jpg,,,
,,num_6,3.3554,num_2,2.8846,num_9,0.9652,num_1,1.1808,num_3,0.2763,0,0,0,0,1,main,10,33,female,R,IMT,2021-07-16_00h07.25.208,ImageRatingTask_S4,2021.1.4,Win32,59.95563283,,,,,,,,,
,,,,,,,,,,,,0,1,1,1,1,second,10,33,female,R,IMT,2021-07-16_00h07.25.208,ImageRatingTask_S4,2021.1.4,Win32,59.95563283,,,,,,,,,
,,,,,,,,,,,,0,2,2,2,1,third,10,33,female,R,IMT,2021-07-16_00h07.25.208,ImageRatingTask_S4,2021.1.4,Win32,59.95563283,,,,,,,,,
,,,,,,,,,,,,0,3,3,3,1,fourth,10,33,female,R,IMT,2021-07-16_00h07.25.208,ImageRatingTask_S4,2021.1.4,Win32,59.95563283,,,,,,,,,
,,,,,,,,,,,,0,4,4,4,1,fifth,10,33,female,R,IMT,2021-07-16_00h07.25.208,ImageRatingTask_S4,2021.1.4,Win32,59.95563283,,,,,,,,,
,,,,,,,,,,,,0,5,5,5,1,sixth,10,33,female,R,IMT,2021-07-16_00h07.25.208,ImageRatingTask_S4,2021.1.4,Win32,59.95563283,,,,,,,,,
,,,,,,,,,,,,0,6,6,6,1,seventh,10,33,female,R,IMT,2021-07-16_00h07.25.208,ImageRatingTask_S4,2021.1.4,Win32,59.95563283,,,,,,,,,
,,,,,,,,,,,,0,7,7,7,1,last,10,33,female,R,IMT,2021-07-16_00h07.25.208,ImageRatingTask_S4,2021.1.4,Win32,59.95563283,,,,,,,,,
,,,,,,,,,,,,,,,,,,10,33,female,R,IMT,2021-07-16_00h07.25.208,ImageRatingTask_S4,2021.1.4,Win32,59.95563283,0,54,54,88,1,DreamStudyImages_rs1000x750g/Mammals/Animals_209_h.jpg,,,
,,num_5,1.4721,num_1,0.2685,num_9,0.7168,num_1,1.1821,num_8,0.4124,0,0,0,0,1,main,10,33,female,R,IMT,2021-07-16_00h07.25.208,ImageRatingTask_S4,2021.1.4,Win32,59.95563283,,,,,,,,,
,,,,,,,,,,,,0,1,1,1,1,second,10,33,female,R,IMT,2021-07-16_00h07.25.208,ImageRatingTask_S4,2021.1.4,Win32,59.95563283,,,,,,,,,
,,,,,,,,,,,,0,2,2,2,1,third,10,33,female,R,IMT,2021-07-16_00h07.25.208,ImageRatingTask_S4,2021.1.4,Win32,59.95563283,,,,,,,,,
,,,,,,,,,,,,0,3,3,3,1,fourth,10,33,female,R,IMT,2021-07-16_00h07.25.208,ImageRatingTask_S4,2021.1.4,Win32,59.95563283,,,,,,,,,
,,,,,,,,,,,,0,4,4,4,1,fifth,10,33,female,R,IMT,2021-07-16_00h07.25.208,ImageRatingTask_S4,2021.1.4,Win32,59.95563283,,,,,,,,,
,,,,,,,,,,,,0,5,5,5,1,sixth,10,33,female,R,IMT,2021-07-16_00h07.25.208,ImageRatingTask_S4,2021.1.4,Win32,59.95563283,,,,,,,,,
,,,,,,,,,,,,0,6,6,6,1,seventh,10,33,female,R,IMT,2021-07-16_00h07.25.208,ImageRatingTask_S4,2021.1.4,Win32,59.95563283,,,,,,,,,
,,,,,,,,,,,,0,7,7,7,1,last,10,33,female,R,IMT,2021-07-16_00h07.25.208,ImageRatingTask_S4,2021.1.4,Win32,59.95563283,,,,,,,,,
,,,,,,,,,,,,,,,,,,10,33,female,R,IMT,2021-07-16_00h07.25.208,ImageRatingTask_S4,2021.1.4,Win32,59.95563283,0,55,55,158,1,DreamStudyImages_rs1000x750g/Water/46.jpg,,,
,,num_5,1.7461,num_1,0.435,num_9,2.0424,num_1,16.6062,num_6,0.8994,0,0,0,0,1,main,10,33,female,R,IMT,2021-07-16_00h07.25.208,ImageRatingTask_S4,2021.1.4,Win32,59.95563283,,,,,,,,,
,,,,,,,,,,,,0,1,1,1,1,second,10,33,female,R,IMT,2021-07-16_00h07.25.208,ImageRatingTask_S4,2021.1.4,Win32,59.95563283,,,,,,,,,
,,,,,,,,,,,,0,2,2,2,1,third,10,33,female,R,IMT,2021-07-16_00h07.25.208,ImageRatingTask_S4,2021.1.4,Win32,59.95563283,,,,,,,,,
,,,,,,,,,,,,0,3,3,3,1,fourth,10,33,female,R,IMT,2021-07-16_00h07.25.208,ImageRatingTask_S4,2021.1.4,Win32,59.95563283,,,,,,,,,
,,,,,,,,,,,,0,4,4,4,1,fifth,10,33,female,R,IMT,2021-07-16_00h07.25.208,ImageRatingTask_S4,2021.1.4,Win32,59.95563283,,,,,,,,,
,,,,,,,,,,,,0,5,5,5,1,sixth,10,33,female,R,IMT,2021-07-16_00h07.25.208,ImageRatingTask_S4,2021.1.4,Win32,59.95563283,,,,,,,,,
,,,,,,,,,,,,0,6,6,6,1,seventh,10,33,female,R,IMT,2021-07-16_00h07.25.208,ImageRatingTask_S4,2021.1.4,Win32,59.95563283,,,,,,,,,
,,,,,,,,,,,,0,7,7,7,1,last,10,33,female,R,IMT,2021-07-16_00h07.25.208,ImageRatingTask_S4,2021.1.4,Win32,59.95563283,,,,,,,,,
,,,,,,,,,,,,,,,,,,10,33,female,R,IMT,2021-07-16_00h07.25.208,ImageRatingTask_S4,2021.1.4,Win32,59.95563283,0,56,56,136,1,DreamStudyImages_rs1000x750g/Houses/Graveyard 4.jpg,,,
,,num_5,2.1825,num_1,0.6416,num_9,0.8933,num_1,2.1681,num_7,0.8811,0,0,0,0,1,main,10,33,female,R,IMT,2021-07-16_00h07.25.208,ImageRatingTask_S4,2021.1.4,Win32,59.95563283,,,,,,,,,
,,,,,,,,,,,,0,1,1,1,1,second,10,33,female,R,IMT,2021-07-16_00h07.25.208,ImageRatingTask_S4,2021.1.4,Win32,59.95563283,,,,,,,,,
,,,,,,,,,,,,0,2,2,2,1,third,10,33,female,R,IMT,2021-07-16_00h07.25.208,ImageRatingTask_S4,2021.1.4,Win32,59.95563283,,,,,,,,,
,,,,,,,,,,,,0,3,3,3,1,fourth,10,33,female,R,IMT,2021-07-16_00h07.25.208,ImageRatingTask_S4,2021.1.4,Win32,59.95563283,,,,,,,,,
,,,,,,,,,,,,0,4,4,4,1,fifth,10,33,female,R,IMT,2021-07-16_00h07.25.208,ImageRatingTask_S4,2021.1.4,Win32,59.95563283,,,,,,,,,
,,,,,,,,,,,,0,5,5,5,1,sixth,10,33,female,R,IMT,2021-07-16_00h07.25.208,ImageRatingTask_S4,2021.1.4,Win32,59.95563283,,,,,,,,,
,,,,,,,,,,,,0,6,6,6,1,seventh,10,33,female,R,IMT,2021-07-16_00h07.25.208,ImageRatingTask_S4,2021.1.4,Win32,59.95563283,,,,,,,,,
,,,,,,,,,,,,0,7,7,7,1,last,10,33,female,R,IMT,2021-07-16_00h07.25.208,ImageRatingTask_S4,2021.1.4,Win32,59.95563283,,,,,,,,,
,,,,,,,,,,,,,,,,,,10,33,female,R,IMT,2021-07-16_00h07.25.208,ImageRatingTask_S4,2021.1.4,Win32,59.95563283,0,57,57,99,1,DreamStudyImages_rs1000x750g/Vehicles/quad.jpg,,,
,,num_5,2.5291,num_1,0.2918,num_9,1.1865,num_0,4.4964,,,0,0,0,0,1,main,10,33,female,R,IMT,2021-07-16_00h07.25.208,ImageRatingTask_S4,2021.1.4,Win32,59.95563283,,,,,,,,,
,,,,,,,,,,,,0,1,1,1,1,second,10,33,female,R,IMT,2021-07-16_00h07.25.208,ImageRatingTask_S4,2021.1.4,Win32,59.95563283,,,,,,,,,
,,,,,,,,,,,,0,2,2,2,1,third,10,33,female,R,IMT,2021-07-16_00h07.25.208,ImageRatingTask_S4,2021.1.4,Win32,59.95563283,,,,,,,,,
,,,,,,,,,,,,0,3,3,3,1,fourth,10,33,female,R,IMT,2021-07-16_00h07.25.208,ImageRatingTask_S4,2021.1.4,Win32,59.95563283,,,,,,,,,
,,,,,,,,,,,,0,4,4,4,1,fifth,10,33,female,R,IMT,2021-07-16_00h07.25.208,ImageRatingTask_S4,2021.1.4,Win32,59.95563283,,,,,,,,,
,,,,,,,,,,,,0,5,5,5,1,sixth,10,33,female,R,IMT,2021-07-16_00h07.25.208,ImageRatingTask_S4,2021.1.4,Win32,59.95563283,,,,,,,,,
,,,,,,,,,,,,0,6,6,6,1,seventh,10,33,female,R,IMT,2021-07-16_00h07.25.208,ImageRatingTask_S4,2021.1.4,Win32,59.95563283,,,,,,,,,
,,,,,,,,,,,,0,7,7,7,1,last,10,33,female,R,IMT,2021-07-16_00h07.25.208,ImageRatingTask_S4,2021.1.4,Win32,59.95563283,,,,,,,,,
,,,,,,,,,,,,,,,,,,10,33,female,R,IMT,2021-07-16_00h07.25.208,ImageRatingTask_S4,2021.1.4,Win32,59.95563283,0,58,58,155,1,DreamStudyImages_rs1000x750g/Food/Objects_028_v.jpg,,,
,,num_5,1.8582,num_1,0.341,num_9,0.8174,num_1,6.1795,num_7,0.9234,0,0,0,0,1,main,10,33,female,R,IMT,2021-07-16_00h07.25.208,ImageRatingTask_S4,2021.1.4,Win32,59.95563283,,,,,,,,,
,,,,,,,,,,,,0,1,1,1,1,second,10,33,female,R,IMT,2021-07-16_00h07.25.208,ImageRatingTask_S4,2021.1.4,Win32,59.95563283,,,,,,,,,
,,,,,,,,,,,,0,2,2,2,1,third,10,33,female,R,IMT,2021-07-16_00h07.25.208,ImageRatingTask_S4,2021.1.4,Win32,59.95563283,,,,,,,,,
,,,,,,,,,,,,0,3,3,3,1,fourth,10,33,female,R,IMT,2021-07-16_00h07.25.208,ImageRatingTask_S4,2021.1.4,Win32,59.95563283,,,,,,,,,
,,,,,,,,,,,,0,4,4,4,1,fifth,10,33,female,R,IMT,2021-07-16_00h07.25.208,ImageRatingTask_S4,2021.1.4,Win32,59.95563283,,,,,,,,,
,,,,,,,,,,,,0,5,5,5,1,sixth,10,33,female,R,IMT,2021-07-16_00h07.25.208,ImageRatingTask_S4,2021.1.4,Win32,59.95563283,,,,,,,,,
,,,,,,,,,,,,0,6,6,6,1,seventh,10,33,female,R,IMT,2021-07-16_00h07.25.208,ImageRatingTask_S4,2021.1.4,Win32,59.95563283,,,,,,,,,
,,,,,,,,,,,,0,7,7,7,1,last,10,33,female,R,IMT,2021-07-16_00h07.25.208,ImageRatingTask_S4,2021.1.4,Win32,59.95563283,,,,,,,,,
,,,,,,,,,,,,,,,,,,10,33,female,R,IMT,2021-07-16_00h07.25.208,ImageRatingTask_S4,2021.1.4,Win32,59.95563283,0,59,59,151,1,DreamStudyImages_rs1000x750g/Vehicles/Objects_320_h.jpg,,,
,,num_4,4.614,num_2,0.9921,num_9,1.0155,num_1,0.7303,num_2,0.2945,0,0,0,0,1,main,10,33,female,R,IMT,2021-07-16_00h07.25.208,ImageRatingTask_S4,2021.1.4,Win32,59.95563283,,,,,,,,,
,,,,,,,,,,,,0,1,1,1,1,second,10,33,female,R,IMT,2021-07-16_00h07.25.208,ImageRatingTask_S4,2021.1.4,Win32,59.95563283,,,,,,,,,
,,,,,,,,,,,,0,2,2,2,1,third,10,33,female,R,IMT,2021-07-16_00h07.25.208,ImageRatingTask_S4,2021.1.4,Win32,59.95563283,,,,,,,,,
,,,,,,,,,,,,0,3,3,3,1,fourth,10,33,female,R,IMT,2021-07-16_00h07.25.208,ImageRatingTask_S4,2021.1.4,Win32,59.95563283,,,,,,,,,
,,,,,,,,,,,,0,4,4,4,1,fifth,10,33,female,R,IMT,2021-07-16_00h07.25.208,ImageRatingTask_S4,2021.1.4,Win32,59.95563283,,,,,,,,,
,,,,,,,,,,,,0,5,5,5,1,sixth,10,33,female,R,IMT,2021-07-16_00h07.25.208,ImageRatingTask_S4,2021.1.4,Win32,59.95563283,,,,,,,,,
,,,,,,,,,,,,0,6,6,6,1,seventh,10,33,female,R,IMT,2021-07-16_00h07.25.208,ImageRatingTask_S4,2021.1.4,Win32,59.95563283,,,,,,,,,
,,,,,,,,,,,,0,7,7,7,1,last,10,33,female,R,IMT,2021-07-16_00h07.25.208,ImageRatingTask_S4,2021.1.4,Win32,59.95563283,,,,,,,,,
,,,,,,,,,,,,,,,,,,10,33,female,R,IMT,2021-07-16_00h07.25.208,ImageRatingTask_S4,2021.1.4,Win32,59.95563283,0,60,60,152,1,DreamStudyImages_rs1000x750g/Children/Faces_008_h.jpg,,,
,,num_5,2.5301,num_1,0.4845,num_9,0.9491,num_1,1.0664,num_5,0.478,0,0,0,0,1,main,10,33,female,R,IMT,2021-07-16_00h07.25.208,ImageRatingTask_S4,2021.1.4,Win32,59.95563283,,,,,,,,,
,,,,,,,,,,,,0,1,1,1,1,second,10,33,female,R,IMT,2021-07-16_00h07.25.208,ImageRatingTask_S4,2021.1.4,Win32,59.95563283,,,,,,,,,
,,,,,,,,,,,,0,2,2,2,1,third,10,33,female,R,IMT,2021-07-16_00h07.25.208,ImageRatingTask_S4,2021.1.4,Win32,59.95563283,,,,,,,,,
,,,,,,,,,,,,0,3,3,3,1,fourth,10,33,female,R,IMT,2021-07-16_00h07.25.208,ImageRatingTask_S4,2021.1.4,Win32,59.95563283,,,,,,,,,
,,,,,,,,,,,,0,4,4,4,1,fifth,10,33,female,R,IMT,2021-07-16_00h07.25.208,ImageRatingTask_S4,2021.1.4,Win32,59.95563283,,,,,,,,,
,,,,,,,,,,,,0,5,5,5,1,sixth,10,33,female,R,IMT,2021-07-16_00h07.25.208,ImageRatingTask_S4,2021.1.4,Win32,59.95563283,,,,,,,,,
,,,,,,,,,,,,0,6,6,6,1,seventh,10,33,female,R,IMT,2021-07-16_00h07.25.208,ImageRatingTask_S4,2021.1.4,Win32,59.95563283,,,,,,,,,
,,,,,,,,,,,,0,7,7,7,1,last,10,33,female,R,IMT,2021-07-16_00h07.25.208,ImageRatingTask_S4,2021.1.4,Win32,59.95563283,,,,,,,,,
,,,,,,,,,,,,,,,,,,10,33,female,R,IMT,2021-07-16_00h07.25.208,ImageRatingTask_S4,2021.1.4,Win32,59.95563283,0,61,61,129,1,DreamStudyImages_rs1000x750g/Food/IAPS7390_popsicles.jpg,,,
,,num_7,3.4337,num_2,0.784,num_9,0.5501,num_1,3.6031,num_3,0.4978,0,0,0,0,1,main,10,33,female,R,IMT,2021-07-16_00h07.25.208,ImageRatingTask_S4,2021.1.4,Win32,59.95563283,,,,,,,,,
,,,,,,,,,,,,0,1,1,1,1,second,10,33,female,R,IMT,2021-07-16_00h07.25.208,ImageRatingTask_S4,2021.1.4,Win32,59.95563283,,,,,,,,,
,,,,,,,,,,,,0,2,2,2,1,third,10,33,female,R,IMT,2021-07-16_00h07.25.208,ImageRatingTask_S4,2021.1.4,Win32,59.95563283,,,,,,,,,
,,,,,,,,,,,,0,3,3,3,1,fourth,10,33,female,R,IMT,2021-07-16_00h07.25.208,ImageRatingTask_S4,2021.1.4,Win32,59.95563283,,,,,,,,,
,,,,,,,,,,,,0,4,4,4,1,fifth,10,33,female,R,IMT,2021-07-16_00h07.25.208,ImageRatingTask_S4,2021.1.4,Win32,59.95563283,,,,,,,,,
,,,,,,,,,,,,0,5,5,5,1,sixth,10,33,female,R,IMT,2021-07-16_00h07.25.208,ImageRatingTask_S4,2021.1.4,Win32,59.95563283,,,,,,,,,
,,,,,,,,,,,,0,6,6,6,1,seventh,10,33,female,R,IMT,2021-07-16_00h07.25.208,ImageRatingTask_S4,2021.1.4,Win32,59.95563283,,,,,,,,,
,,,,,,,,,,,,0,7,7,7,1,last,10,33,female,R,IMT,2021-07-16_00h07.25.208,ImageRatingTask_S4,2021.1.4,Win32,59.95563283,,,,,,,,,
,,,,,,,,,,,,,,,,,,10,33,female,R,IMT,2021-07-16_00h07.25.208,ImageRatingTask_S4,2021.1.4,Win32,59.95563283,0,62,62,53,1,DreamStudyImages_rs1000x750g/Mammals/IAPS1510_dog8.jpg,,,
,,num_5,2.9401,num_1,0.1887,num_9,1.1275,num_1,1.6304,num_7,0.772,0,0,0,0,1,main,10,33,female,R,IMT,2021-07-16_00h07.25.208,ImageRatingTask_S4,2021.1.4,Win32,59.95563283,,,,,,,,,
,,,,,,,,,,,,0,1,1,1,1,second,10,33,female,R,IMT,2021-07-16_00h07.25.208,ImageRatingTask_S4,2021.1.4,Win32,59.95563283,,,,,,,,,
,,,,,,,,,,,,0,2,2,2,1,third,10,33,female,R,IMT,2021-07-16_00h07.25.208,ImageRatingTask_S4,2021.1.4,Win32,59.95563283,,,,,,,,,
,,,,,,,,,,,,0,3,3,3,1,fourth,10,33,female,R,IMT,2021-07-16_00h07.25.208,ImageRatingTask_S4,2021.1.4,Win32,59.95563283,,,,,,,,,
,,,,,,,,,,,,0,4,4,4,1,fifth,10,33,female,R,IMT,2021-07-16_00h07.25.208,ImageRatingTask_S4,2021.1.4,Win32,59.95563283,,,,,,,,,
,,,,,,,,,,,,0,5,5,5,1,sixth,10,33,female,R,IMT,2021-07-16_00h07.25.208,ImageRatingTask_S4,2021.1.4,Win32,59.95563283,,,,,,,,,
,,,,,,,,,,,,0,6,6,6,1,seventh,10,33,female,R,IMT,2021-07-16_00h07.25.208,ImageRatingTask_S4,2021.1.4,Win32,59.95563283,,,,,,,,,
,,,,,,,,,,,,0,7,7,7,1,last,10,33,female,R,IMT,2021-07-16_00h07.25.208,ImageRatingTask_S4,2021.1.4,Win32,59.95563283,,,,,,,,,
,,,,,,,,,,,,,,,,,,10,33,female,R,IMT,2021-07-16_00h07.25.208,ImageRatingTask_S4,2021.1.4,Win32,59.95563283,0,63,63,55,1,DreamStudyImages_rs1000x750g/Vehicles/Objects_250_h.jpg,,,
,,num_5,1.2677,num_1,0.1856,num_9,0.6291,num_1,0.9956,num_7,0.6971,0,0,0,0,1,main,10,33,female,R,IMT,2021-07-16_00h07.25.208,ImageRatingTask_S4,2021.1.4,Win32,59.95563283,,,,,,,,,
,,,,,,,,,,,,0,1,1,1,1,second,10,33,female,R,IMT,2021-07-16_00h07.25.208,ImageRatingTask_S4,2021.1.4,Win32,59.95563283,,,,,,,,,
,,,,,,,,,,,,0,2,2,2,1,third,10,33,female,R,IMT,2021-07-16_00h07.25.208,ImageRatingTask_S4,2021.1.4,Win32,59.95563283,,,,,,,,,
,,,,,,,,,,,,0,3,3,3,1,fourth,10,33,female,R,IMT,2021-07-16_00h07.25.208,ImageRatingTask_S4,2021.1.4,Win32,59.95563283,,,,,,,,,
,,,,,,,,,,,,0,4,4,4,1,fifth,10,33,female,R,IMT,2021-07-16_00h07.25.208,ImageRatingTask_S4,2021.1.4,Win32,59.95563283,,,,,,,,,
,,,,,,,,,,,,0,5,5,5,1,sixth,10,33,female,R,IMT,2021-07-16_00h07.25.208,ImageRatingTask_S4,2021.1.4,Win32,59.95563283,,,,,,,,,
,,,,,,,,,,,,0,6,6,6,1,seventh,10,33,female,R,IMT,2021-07-16_00h07.25.208,ImageRatingTask_S4,2021.1.4,Win32,59.95563283,,,,,,,,,
,,,,,,,,,,,,0,7,7,7,1,last,10,33,female,R,IMT,2021-07-16_00h07.25.208,ImageRatingTask_S4,2021.1.4,Win32,59.95563283,,,,,,,,,
,,,,,,,,,,,,,,,,,,10,33,female,R,IMT,2021-07-16_00h07.25.208,ImageRatingTask_S4,2021.1.4,Win32,59.95563283,0,64,64,104,1,DreamStudyImages_rs1000x750g/Vehicles/Objects_318_h.jpg,,,
,,num_4,4.2758,num_6,1.1616,num_9,1.1764,num_1,0.6131,num_3,0.3169,0,0,0,0,1,main,10,33,female,R,IMT,2021-07-16_00h07.25.208,ImageRatingTask_S4,2021.1.4,Win32,59.95563283,,,,,,,,,
,,,,,,,,,,,,0,1,1,1,1,second,10,33,female,R,IMT,2021-07-16_00h07.25.208,ImageRatingTask_S4,2021.1.4,Win32,59.95563283,,,,,,,,,
,,,,,,,,,,,,0,2,2,2,1,third,10,33,female,R,IMT,2021-07-16_00h07.25.208,ImageRatingTask_S4,2021.1.4,Win32,59.95563283,,,,,,,,,
,,,,,,,,,,,,0,3,3,3,1,fourth,10,33,female,R,IMT,2021-07-16_00h07.25.208,ImageRatingTask_S4,2021.1.4,Win32,59.95563283,,,,,,,,,
,,,,,,,,,,,,0,4,4,4,1,fifth,10,33,female,R,IMT,2021-07-16_00h07.25.208,ImageRatingTask_S4,2021.1.4,Win32,59.95563283,,,,,,,,,
,,,,,,,,,,,,0,5,5,5,1,sixth,10,33,female,R,IMT,2021-07-16_00h07.25.208,ImageRatingTask_S4,2021.1.4,Win32,59.95563283,,,,,,,,,
,,,,,,,,,,,,0,6,6,6,1,seventh,10,33,female,R,IMT,2021-07-16_00h07.25.208,ImageRatingTask_S4,2021.1.4,Win32,59.95563283,,,,,,,,,
,,,,,,,,,,,,0,7,7,7,1,last,10,33,female,R,IMT,2021-07-16_00h07.25.208,ImageRatingTask_S4,2021.1.4,Win32,59.95563283,,,,,,,,,
,,,,,,,,,,,,,,,,,,10,33,female,R,IMT,2021-07-16_00h07.25.208,ImageRatingTask_S4,2021.1.4,Win32,59.95563283,0,65,65,13,1,DreamStudyImages_rs1000x750g/Mammals/Monkey 4.jpg,,,
,,num_2,2.1503,num_5,1.3284,num_9,1.0659,num_1,1.8727,num_5,0.5924,0,0,0,0,1,main,10,33,female,R,IMT,2021-07-16_00h07.25.208,ImageRatingTask_S4,2021.1.4,Win32,59.95563283,,,,,,,,,
,,,,,,,,,,,,0,1,1,1,1,second,10,33,female,R,IMT,2021-07-16_00h07.25.208,ImageRatingTask_S4,2021.1.4,Win32,59.95563283,,,,,,,,,
,,,,,,,,,,,,0,2,2,2,1,third,10,33,female,R,IMT,2021-07-16_00h07.25.208,ImageRatingTask_S4,2021.1.4,Win32,59.95563283,,,,,,,,,
,,,,,,,,,,,,0,3,3,3,1,fourth,10,33,female,R,IMT,2021-07-16_00h07.25.208,ImageRatingTask_S4,2021.1.4,Win32,59.95563283,,,,,,,,,
,,,,,,,,,,,,0,4,4,4,1,fifth,10,33,female,R,IMT,2021-07-16_00h07.25.208,ImageRatingTask_S4,2021.1.4,Win32,59.95563283,,,,,,,,,
,,,,,,,,,,,,0,5,5,5,1,sixth,10,33,female,R,IMT,2021-07-16_00h07.25.208,ImageRatingTask_S4,2021.1.4,Win32,59.95563283,,,,,,,,,
,,,,,,,,,,,,0,6,6,6,1,seventh,10,33,female,R,IMT,2021-07-16_00h07.25.208,ImageRatingTask_S4,2021.1.4,Win32,59.95563283,,,,,,,,,
,,,,,,,,,,,,0,7,7,7,1,last,10,33,female,R,IMT,2021-07-16_00h07.25.208,ImageRatingTask_S4,2021.1.4,Win32,59.95563283,,,,,,,,,
,,,,,,,,,,,,,,,,,,10,33,female,R,IMT,2021-07-16_00h07.25.208,ImageRatingTask_S4,2021.1.4,Win32,59.95563283,0,66,66,121,1,DreamStudyImages_rs1000x750g/Food/Objects_031_h.jpg,,,
,,num_6,6.4495,num_1,0.4655,num_9,0.7973,num_1,1.0947,num_3,1.0501,0,0,0,0,1,main,10,33,female,R,IMT,2021-07-16_00h07.25.208,ImageRatingTask_S4,2021.1.4,Win32,59.95563283,,,,,,,,,
,,,,,,,,,,,,0,1,1,1,1,second,10,33,female,R,IMT,2021-07-16_00h07.25.208,ImageRatingTask_S4,2021.1.4,Win32,59.95563283,,,,,,,,,
,,,,,,,,,,,,0,2,2,2,1,third,10,33,female,R,IMT,2021-07-16_00h07.25.208,ImageRatingTask_S4,2021.1.4,Win32,59.95563283,,,,,,,,,
,,,,,,,,,,,,0,3,3,3,1,fourth,10,33,female,R,IMT,2021-07-16_00h07.25.208,ImageRatingTask_S4,2021.1.4,Win32,59.95563283,,,,,,,,,
,,,,,,,,,,,,0,4,4,4,1,fifth,10,33,female,R,IMT,2021-07-16_00h07.25.208,ImageRatingTask_S4,2021.1.4,Win32,59.95563283,,,,,,,,,
,,,,,,,,,,,,0,5,5,5,1,sixth,10,33,female,R,IMT,2021-07-16_00h07.25.208,ImageRatingTask_S4,2021.1.4,Win32,59.95563283,,,,,,,,,
,,,,,,,,,,,,0,6,6,6,1,seventh,10,33,female,R,IMT,2021-07-16_00h07.25.208,ImageRatingTask_S4,2021.1.4,Win32,59.95563283,,,,,,,,,
,,,,,,,,,,,,0,7,7,7,1,last,10,33,female,R,IMT,2021-07-16_00h07.25.208,ImageRatingTask_S4,2021.1.4,Win32,59.95563283,,,,,,,,,
,,,,,,,,,,,,,,,,,,10,33,female,R,IMT,2021-07-16_00h07.25.208,ImageRatingTask_S4,2021.1.4,Win32,59.95563283,0,67,67,11,1,DreamStudyImages_rs1000x750g/Mammals/Animals_097_h.jpg,,,
,,num_3,5.6452,num_5,1.207,num_9,0.8091,num_1,5.7167,num_6,0.9333,0,0,0,0,1,main,10,33,female,R,IMT,2021-07-16_00h07.25.208,ImageRatingTask_S4,2021.1.4,Win32,59.95563283,,,,,,,,,
,,,,,,,,,,,,0,1,1,1,1,second,10,33,female,R,IMT,2021-07-16_00h07.25.208,ImageRatingTask_S4,2021.1.4,Win32,59.95563283,,,,,,,,,
,,,,,,,,,,,,0,2,2,2,1,third,10,33,female,R,IMT,2021-07-16_00h07.25.208,ImageRatingTask_S4,2021.1.4,Win32,59.95563283,,,,,,,,,
,,,,,,,,,,,,0,3,3,3,1,fourth,10,33,female,R,IMT,2021-07-16_00h07.25.208,ImageRatingTask_S4,2021.1.4,Win32,59.95563283,,,,,,,,,
,,,,,,,,,,,,0,4,4,4,1,fifth,10,33,female,R,IMT,2021-07-16_00h07.25.208,ImageRatingTask_S4,2021.1.4,Win32,59.95563283,,,,,,,,,
,,,,,,,,,,,,0,5,5,5,1,sixth,10,33,female,R,IMT,2021-07-16_00h07.25.208,ImageRatingTask_S4,2021.1.4,Win32,59.95563283,,,,,,,,,
,,,,,,,,,,,,0,6,6,6,1,seventh,10,33,female,R,IMT,2021-07-16_00h07.25.208,ImageRatingTask_S4,2021.1.4,Win32,59.95563283,,,,,,,,,
,,,,,,,,,,,,0,7,7,7,1,last,10,33,female,R,IMT,2021-07-16_00h07.25.208,ImageRatingTask_S4,2021.1.4,Win32,59.95563283,,,,,,,,,
,,,,,,,,,,,,,,,,,,10,33,female,R,IMT,2021-07-16_00h07.25.208,ImageRatingTask_S4,2021.1.4,Win32,59.95563283,0,68,68,143,1,DreamStudyImages_rs1000x750g/Houses/NDPS39_houseonfire.jpg,,,
,,num_5,6.5084,num_1,0.4889,num_9,0.6791,num_1,1.3794,num_6,0.855,0,0,0,0,1,main,10,33,female,R,IMT,2021-07-16_00h07.25.208,ImageRatingTask_S4,2021.1.4,Win32,59.95563283,,,,,,,,,
,,,,,,,,,,,,0,1,1,1,1,second,10,33,female,R,IMT,2021-07-16_00h07.25.208,ImageRatingTask_S4,2021.1.4,Win32,59.95563283,,,,,,,,,
,,,,,,,,,,,,0,2,2,2,1,third,10,33,female,R,IMT,2021-07-16_00h07.25.208,ImageRatingTask_S4,2021.1.4,Win32,59.95563283,,,,,,,,,
,,,,,,,,,,,,0,3,3,3,1,fourth,10,33,female,R,IMT,2021-07-16_00h07.25.208,ImageRatingTask_S4,2021.1.4,Win32,59.95563283,,,,,,,,,
,,,,,,,,,,,,0,4,4,4,1,fifth,10,33,female,R,IMT,2021-07-16_00h07.25.208,ImageRatingTask_S4,2021.1.4,Win32,59.95563283,,,,,,,,,
,,,,,,,,,,,,0,5,5,5,1,sixth,10,33,female,R,IMT,2021-07-16_00h07.25.208,ImageRatingTask_S4,2021.1.4,Win32,59.95563283,,,,,,,,,
,,,,,,,,,,,,0,6,6,6,1,seventh,10,33,female,R,IMT,2021-07-16_00h07.25.208,ImageRatingTask_S4,2021.1.4,Win32,59.95563283,,,,,,,,,
,,,,,,,,,,,,0,7,7,7,1,last,10,33,female,R,IMT,2021-07-16_00h07.25.208,ImageRatingTask_S4,2021.1.4,Win32,59.95563283,,,,,,,,,
,,,,,,,,,,,,,,,,,,10,33,female,R,IMT,2021-07-16_00h07.25.208,ImageRatingTask_S4,2021.1.4,Win32,59.95563283,0,69,69,34,1,DreamStudyImages_rs1000x750g/Houses/NDPS108_houses6.jpg,,,
,,num_5,6.4016,num_1,0.2959,num_9,0.7629,num_1,0.6433,num_2,0.5805,0,0,0,0,1,main,10,33,female,R,IMT,2021-07-16_00h07.25.208,ImageRatingTask_S4,2021.1.4,Win32,59.95563283,,,,,,,,,
,,,,,,,,,,,,0,1,1,1,1,second,10,33,female,R,IMT,2021-07-16_00h07.25.208,ImageRatingTask_S4,2021.1.4,Win32,59.95563283,,,,,,,,,
,,,,,,,,,,,,0,2,2,2,1,third,10,33,female,R,IMT,2021-07-16_00h07.25.208,ImageRatingTask_S4,2021.1.4,Win32,59.95563283,,,,,,,,,
,,,,,,,,,,,,0,3,3,3,1,fourth,10,33,female,R,IMT,2021-07-16_00h07.25.208,ImageRatingTask_S4,2021.1.4,Win32,59.95563283,,,,,,,,,
,,,,,,,,,,,,0,4,4,4,1,fifth,10,33,female,R,IMT,2021-07-16_00h07.25.208,ImageRatingTask_S4,2021.1.4,Win32,59.95563283,,,,,,,,,
,,,,,,,,,,,,0,5,5,5,1,sixth,10,33,female,R,IMT,2021-07-16_00h07.25.208,ImageRatingTask_S4,2021.1.4,Win32,59.95563283,,,,,,,,,
,,,,,,,,,,,,0,6,6,6,1,seventh,10,33,female,R,IMT,2021-07-16_00h07.25.208,ImageRatingTask_S4,2021.1.4,Win32,59.95563283,,,,,,,,,
,,,,,,,,,,,,0,7,7,7,1,last,10,33,female,R,IMT,2021-07-16_00h07.25.208,ImageRatingTask_S4,2021.1.4,Win32,59.95563283,,,,,,,,,
,,,,,,,,,,,,,,,,,,10,33,female,R,IMT,2021-07-16_00h07.25.208,ImageRatingTask_S4,2021.1.4,Win32,59.95563283,0,70,70,23,1,DreamStudyImages_rs1000x750g/Children/Faces_101_h.jpg,,,
,,num_4,2.9649,num_5,1.8319,num_9,1.0841,num_1,0.531,num_2,0.3889,0,0,0,0,1,main,10,33,female,R,IMT,2021-07-16_00h07.25.208,ImageRatingTask_S4,2021.1.4,Win32,59.95563283,,,,,,,,,
,,,,,,,,,,,,0,1,1,1,1,second,10,33,female,R,IMT,2021-07-16_00h07.25.208,ImageRatingTask_S4,2021.1.4,Win32,59.95563283,,,,,,,,,
,,,,,,,,,,,,0,2,2,2,1,third,10,33,female,R,IMT,2021-07-16_00h07.25.208,ImageRatingTask_S4,2021.1.4,Win32,59.95563283,,,,,,,,,
,,,,,,,,,,,,0,3,3,3,1,fourth,10,33,female,R,IMT,2021-07-16_00h07.25.208,ImageRatingTask_S4,2021.1.4,Win32,59.95563283,,,,,,,,,
,,,,,,,,,,,,0,4,4,4,1,fifth,10,33,female,R,IMT,2021-07-16_00h07.25.208,ImageRatingTask_S4,2021.1.4,Win32,59.95563283,,,,,,,,,
,,,,,,,,,,,,0,5,5,5,1,sixth,10,33,female,R,IMT,2021-07-16_00h07.25.208,ImageRatingTask_S4,2021.1.4,Win32,59.95563283,,,,,,,,,
,,,,,,,,,,,,0,6,6,6,1,seventh,10,33,female,R,IMT,2021-07-16_00h07.25.208,ImageRatingTask_S4,2021.1.4,Win32,59.95563283,,,,,,,,,
,,,,,,,,,,,,0,7,7,7,1,last,10,33,female,R,IMT,2021-07-16_00h07.25.208,ImageRatingTask_S4,2021.1.4,Win32,59.95563283,,,,,,,,,
,,,,,,,,,,,,,,,,,,10,33,female,R,IMT,2021-07-16_00h07.25.208,ImageRatingTask_S4,2021.1.4,Win32,59.95563283,0,71,71,37,1,DreamStudyImages_rs1000x750g/Children/War 1.jpg,,,
,,num_5,3.4484,num_1,0.1986,num_9,0.661,num_1,0.9111,num_5,0.6078,0,0,0,0,1,main,10,33,female,R,IMT,2021-07-16_00h07.25.208,ImageRatingTask_S4,2021.1.4,Win32,59.95563283,,,,,,,,,
,,,,,,,,,,,,0,1,1,1,1,second,10,33,female,R,IMT,2021-07-16_00h07.25.208,ImageRatingTask_S4,2021.1.4,Win32,59.95563283,,,,,,,,,
,,,,,,,,,,,,0,2,2,2,1,third,10,33,female,R,IMT,2021-07-16_00h07.25.208,ImageRatingTask_S4,2021.1.4,Win32,59.95563283,,,,,,,,,
,,,,,,,,,,,,0,3,3,3,1,fourth,10,33,female,R,IMT,2021-07-16_00h07.25.208,ImageRatingTask_S4,2021.1.4,Win32,59.95563283,,,,,,,,,
,,,,,,,,,,,,0,4,4,4,1,fifth,10,33,female,R,IMT,2021-07-16_00h07.25.208,ImageRatingTask_S4,2021.1.4,Win32,59.95563283,,,,,,,,,
,,,,,,,,,,,,0,5,5,5,1,sixth,10,33,female,R,IMT,2021-07-16_00h07.25.208,ImageRatingTask_S4,2021.1.4,Win32,59.95563283,,,,,,,,,
,,,,,,,,,,,,0,6,6,6,1,seventh,10,33,female,R,IMT,2021-07-16_00h07.25.208,ImageRatingTask_S4,2021.1.4,Win32,59.95563283,,,,,,,,,
,,,,,,,,,,,,0,7,7,7,1,last,10,33,female,R,IMT,2021-07-16_00h07.25.208,ImageRatingTask_S4,2021.1.4,Win32,59.95563283,,,,,,,,,
,,,,,,,,,,,,,,,,,,10,33,female,R,IMT,2021-07-16_00h07.25.208,ImageRatingTask_S4,2021.1.4,Win32,59.95563283,0,72,72,154,1,DreamStudyImages_rs1000x750g/Food/Objects_032_v.jpg,,,
,,num_6,8.9655,num_1,3.5583,num_8,2.8172,num_1,0.8729,num_2,0.3055,0,0,0,0,1,main,10,33,female,R,IMT,2021-07-16_00h07.25.208,ImageRatingTask_S4,2021.1.4,Win32,59.95563283,,,,,,,,,
,,,,,,,,,,,,0,1,1,1,1,second,10,33,female,R,IMT,2021-07-16_00h07.25.208,ImageRatingTask_S4,2021.1.4,Win32,59.95563283,,,,,,,,,
,,,,,,,,,,,,0,2,2,2,1,third,10,33,female,R,IMT,2021-07-16_00h07.25.208,ImageRatingTask_S4,2021.1.4,Win32,59.95563283,,,,,,,,,
,,,,,,,,,,,,0,3,3,3,1,fourth,10,33,female,R,IMT,2021-07-16_00h07.25.208,ImageRatingTask_S4,2021.1.4,Win32,59.95563283,,,,,,,,,
,,,,,,,,,,,,0,4,4,4,1,fifth,10,33,female,R,IMT,2021-07-16_00h07.25.208,ImageRatingTask_S4,2021.1.4,Win32,59.95563283,,,,,,,,,
,,,,,,,,,,,,0,5,5,5,1,sixth,10,33,female,R,IMT,2021-07-16_00h07.25.208,ImageRatingTask_S4,2021.1.4,Win32,59.95563283,,,,,,,,,
,,,,,,,,,,,,0,6,6,6,1,seventh,10,33,female,R,IMT,2021-07-16_00h07.25.208,ImageRatingTask_S4,2021.1.4,Win32,59.95563283,,,,,,,,,
,,,,,,,,,,,,0,7,7,7,1,last,10,33,female,R,IMT,2021-07-16_00h07.25.208,ImageRatingTask_S4,2021.1.4,Win32,59.95563283,,,,,,,,,
,,,,,,,,,,,,,,,,,,10,33,female,R,IMT,2021-07-16_00h07.25.208,ImageRatingTask_S4,2021.1.4,Win32,59.95563283,0,73,73,79,1,DreamStudyImages_rs1000x750g/Children/IAPS2387_children13.jpg,,,
,,num_6,1.9309,num_1,0.4586,num_9,0.5196,num_1,1.0245,num_2,0.6747,0,0,0,0,1,main,10,33,female,R,IMT,2021-07-16_00h07.25.208,ImageRatingTask_S4,2021.1.4,Win32,59.95563283,,,,,,,,,
,,,,,,,,,,,,0,1,1,1,1,second,10,33,female,R,IMT,2021-07-16_00h07.25.208,ImageRatingTask_S4,2021.1.4,Win32,59.95563283,,,,,,,,,
,,,,,,,,,,,,0,2,2,2,1,third,10,33,female,R,IMT,2021-07-16_00h07.25.208,ImageRatingTask_S4,2021.1.4,Win32,59.95563283,,,,,,,,,
,,,,,,,,,,,,0,3,3,3,1,fourth,10,33,female,R,IMT,2021-07-16_00h07.25.208,ImageRatingTask_S4,2021.1.4,Win32,59.95563283,,,,,,,,,
,,,,,,,,,,,,0,4,4,4,1,fifth,10,33,female,R,IMT,2021-07-16_00h07.25.208,ImageRatingTask_S4,2021.1.4,Win32,59.95563283,,,,,,,,,
,,,,,,,,,,,,0,5,5,5,1,sixth,10,33,female,R,IMT,2021-07-16_00h07.25.208,ImageRatingTask_S4,2021.1.4,Win32,59.95563283,,,,,,,,,
,,,,,,,,,,,,0,6,6,6,1,seventh,10,33,female,R,IMT,2021-07-16_00h07.25.208,ImageRatingTask_S4,2021.1.4,Win32,59.95563283,,,,,,,,,
,,,,,,,,,,,,0,7,7,7,1,last,10,33,female,R,IMT,2021-07-16_00h07.25.208,ImageRatingTask_S4,2021.1.4,Win32,59.95563283,,,,,,,,,
,,,,,,,,,,,,,,,,,,10,33,female,R,IMT,2021-07-16_00h07.25.208,ImageRatingTask_S4,2021.1.4,Win32,59.95563283,0,74,74,83,1,DreamStudyImages_rs1000x750g/Children/2071.jpg,,,
,,num_6,4.2256,num_2,0.6486,num_9,0.5547,num_1,0.4613,num_5,0.6602,0,0,0,0,1,main,10,33,female,R,IMT,2021-07-16_00h07.25.208,ImageRatingTask_S4,2021.1.4,Win32,59.95563283,,,,,,,,,
,,,,,,,,,,,,0,1,1,1,1,second,10,33,female,R,IMT,2021-07-16_00h07.25.208,ImageRatingTask_S4,2021.1.4,Win32,59.95563283,,,,,,,,,
,,,,,,,,,,,,0,2,2,2,1,third,10,33,female,R,IMT,2021-07-16_00h07.25.208,ImageRatingTask_S4,2021.1.4,Win32,59.95563283,,,,,,,,,
,,,,,,,,,,,,0,3,3,3,1,fourth,10,33,female,R,IMT,2021-07-16_00h07.25.208,ImageRatingTask_S4,2021.1.4,Win32,59.95563283,,,,,,,,,
,,,,,,,,,,,,0,4,4,4,1,fifth,10,33,female,R,IMT,2021-07-16_00h07.25.208,ImageRatingTask_S4,2021.1.4,Win32,59.95563283,,,,,,,,,
,,,,,,,,,,,,0,5,5,5,1,sixth,10,33,female,R,IMT,2021-07-16_00h07.25.208,ImageRatingTask_S4,2021.1.4,Win32,59.95563283,,,,,,,,,
,,,,,,,,,,,,0,6,6,6,1,seventh,10,33,female,R,IMT,2021-07-16_00h07.25.208,ImageRatingTask_S4,2021.1.4,Win32,59.95563283,,,,,,,,,
,,,,,,,,,,,,0,7,7,7,1,last,10,33,female,R,IMT,2021-07-16_00h07.25.208,ImageRatingTask_S4,2021.1.4,Win32,59.95563283,,,,,,,,,
,,,,,,,,,,,,,,,,,,10,33,female,R,IMT,2021-07-16_00h07.25.208,ImageRatingTask_S4,2021.1.4,Win32,59.95563283,0,75,75,86,1,DreamStudyImages_rs1000x750g/Food/Objects_086_h.jpg,,,
,,num_5,1.3703,num_1,0.2629,num_9,1.0539,num_1,4.3335,num_6,0.9691,0,0,0,0,1,main,10,33,female,R,IMT,2021-07-16_00h07.25.208,ImageRatingTask_S4,2021.1.4,Win32,59.95563283,,,,,,,,,
,,,,,,,,,,,,0,1,1,1,1,second,10,33,female,R,IMT,2021-07-16_00h07.25.208,ImageRatingTask_S4,2021.1.4,Win32,59.95563283,,,,,,,,,
,,,,,,,,,,,,0,2,2,2,1,third,10,33,female,R,IMT,2021-07-16_00h07.25.208,ImageRatingTask_S4,2021.1.4,Win32,59.95563283,,,,,,,,,
,,,,,,,,,,,,0,3,3,3,1,fourth,10,33,female,R,IMT,2021-07-16_00h07.25.208,ImageRatingTask_S4,2021.1.4,Win32,59.95563283,,,,,,,,,
,,,,,,,,,,,,0,4,4,4,1,fifth,10,33,female,R,IMT,2021-07-16_00h07.25.208,ImageRatingTask_S4,2021.1.4,Win32,59.95563283,,,,,,,,,
,,,,,,,,,,,,0,5,5,5,1,sixth,10,33,female,R,IMT,2021-07-16_00h07.25.208,ImageRatingTask_S4,2021.1.4,Win32,59.95563283,,,,,,,,,
,,,,,,,,,,,,0,6,6,6,1,seventh,10,33,female,R,IMT,2021-07-16_00h07.25.208,ImageRatingTask_S4,2021.1.4,Win32,59.95563283,,,,,,,,,
,,,,,,,,,,,,0,7,7,7,1,last,10,33,female,R,IMT,2021-07-16_00h07.25.208,ImageRatingTask_S4,2021.1.4,Win32,59.95563283,,,,,,,,,
,,,,,,,,,,,,,,,,,,10,33,female,R,IMT,2021-07-16_00h07.25.208,ImageRatingTask_S4,2021.1.4,Win32,59.95563283,0,76,76,123,1,DreamStudyImages_rs1000x750g/Houses/whitehouse.jpg,,,
,,num_5,12.7643,num_1,0.2969,num_8,2.1966,num_1,0.7421,num_6,0.8704,0,0,0,0,1,main,10,33,female,R,IMT,2021-07-16_00h07.25.208,ImageRatingTask_S4,2021.1.4,Win32,59.95563283,,,,,,,,,
,,,,,,,,,,,,0,1,1,1,1,second,10,33,female,R,IMT,2021-07-16_00h07.25.208,ImageRatingTask_S4,2021.1.4,Win32,59.95563283,,,,,,,,,
,,,,,,,,,,,,0,2,2,2,1,third,10,33,female,R,IMT,2021-07-16_00h07.25.208,ImageRatingTask_S4,2021.1.4,Win32,59.95563283,,,,,,,,,
,,,,,,,,,,,,0,3,3,3,1,fourth,10,33,female,R,IMT,2021-07-16_00h07.25.208,ImageRatingTask_S4,2021.1.4,Win32,59.95563283,,,,,,,,,
,,,,,,,,,,,,0,4,4,4,1,fifth,10,33,female,R,IMT,2021-07-16_00h07.25.208,ImageRatingTask_S4,2021.1.4,Win32,59.95563283,,,,,,,,,
,,,,,,,,,,,,0,5,5,5,1,sixth,10,33,female,R,IMT,2021-07-16_00h07.25.208,ImageRatingTask_S4,2021.1.4,Win32,59.95563283,,,,,,,,,
,,,,,,,,,,,,0,6,6,6,1,seventh,10,33,female,R,IMT,2021-07-16_00h07.25.208,ImageRatingTask_S4,2021.1.4,Win32,59.95563283,,,,,,,,,
,,,,,,,,,,,,0,7,7,7,1,last,10,33,female,R,IMT,2021-07-16_00h07.25.208,ImageRatingTask_S4,2021.1.4,Win32,59.95563283,,,,,,,,,
,,,,,,,,,,,,,,,,,,10,33,female,R,IMT,2021-07-16_00h07.25.208,ImageRatingTask_S4,2021.1.4,Win32,59.95563283,0,77,77,66,1,DreamStudyImages_rs1000x750g/Houses/IAPS5665_house.jpg,,,
,,num_5,2.3269,num_1,2.0038,num_9,4.7424,num_1,5.048,num_5,0.8488,0,0,0,0,1,main,10,33,female,R,IMT,2021-07-16_00h07.25.208,ImageRatingTask_S4,2021.1.4,Win32,59.95563283,,,,,,,,,
,,,,,,,,,,,,0,1,1,1,1,second,10,33,female,R,IMT,2021-07-16_00h07.25.208,ImageRatingTask_S4,2021.1.4,Win32,59.95563283,,,,,,,,,
,,,,,,,,,,,,0,2,2,2,1,third,10,33,female,R,IMT,2021-07-16_00h07.25.208,ImageRatingTask_S4,2021.1.4,Win32,59.95563283,,,,,,,,,
,,,,,,,,,,,,0,3,3,3,1,fourth,10,33,female,R,IMT,2021-07-16_00h07.25.208,ImageRatingTask_S4,2021.1.4,Win32,59.95563283,,,,,,,,,
,,,,,,,,,,,,0,4,4,4,1,fifth,10,33,female,R,IMT,2021-07-16_00h07.25.208,ImageRatingTask_S4,2021.1.4,Win32,59.95563283,,,,,,,,,
,,,,,,,,,,,,0,5,5,5,1,sixth,10,33,female,R,IMT,2021-07-16_00h07.25.208,ImageRatingTask_S4,2021.1.4,Win32,59.95563283,,,,,,,,,
,,,,,,,,,,,,0,6,6,6,1,seventh,10,33,female,R,IMT,2021-07-16_00h07.25.208,ImageRatingTask_S4,2021.1.4,Win32,59.95563283,,,,,,,,,
,,,,,,,,,,,,0,7,7,7,1,last,10,33,female,R,IMT,2021-07-16_00h07.25.208,ImageRatingTask_S4,2021.1.4,Win32,59.95563283,,,,,,,,,
,,,,,,,,,,,,,,,,,,10,33,female,R,IMT,2021-07-16_00h07.25.208,ImageRatingTask_S4,2021.1.4,Win32,59.95563283,0,78,78,120,1,DreamStudyImages_rs1000x750g/Food/food_neg.jpg,,,
,,num_6,2.9238,num_2,1.057,num_9,9.9768,num_1,1.5502,num_8,0.8013,0,0,0,0,1,main,10,33,female,R,IMT,2021-07-16_00h07.25.208,ImageRatingTask_S4,2021.1.4,Win32,59.95563283,,,,,,,,,
,,,,,,,,,,,,0,1,1,1,1,second,10,33,female,R,IMT,2021-07-16_00h07.25.208,ImageRatingTask_S4,2021.1.4,Win32,59.95563283,,,,,,,,,
,,,,,,,,,,,,0,2,2,2,1,third,10,33,female,R,IMT,2021-07-16_00h07.25.208,ImageRatingTask_S4,2021.1.4,Win32,59.95563283,,,,,,,,,
,,,,,,,,,,,,0,3,3,3,1,fourth,10,33,female,R,IMT,2021-07-16_00h07.25.208,ImageRatingTask_S4,2021.1.4,Win32,59.95563283,,,,,,,,,
,,,,,,,,,,,,0,4,4,4,1,fifth,10,33,female,R,IMT,2021-07-16_00h07.25.208,ImageRatingTask_S4,2021.1.4,Win32,59.95563283,,,,,,,,,
,,,,,,,,,,,,0,5,5,5,1,sixth,10,33,female,R,IMT,2021-07-16_00h07.25.208,ImageRatingTask_S4,2021.1.4,Win32,59.95563283,,,,,,,,,
,,,,,,,,,,,,0,6,6,6,1,seventh,10,33,female,R,IMT,2021-07-16_00h07.25.208,ImageRatingTask_S4,2021.1.4,Win32,59.95563283,,,,,,,,,
,,,,,,,,,,,,0,7,7,7,1,last,10,33,female,R,IMT,2021-07-16_00h07.25.208,ImageRatingTask_S4,2021.1.4,Win32,59.95563283,,,,,,,,,
,,,,,,,,,,,,,,,,,,10,33,female,R,IMT,2021-07-16_00h07.25.208,ImageRatingTask_S4,2021.1.4,Win32,59.95563283,0,79,79,112,1,DreamStudyImages_rs1000x750g/Water/5825.jpg,,,
