slider_pre.response,slider_pre.rt,key_val.keys,key_val.rt,key_aro.keys,key_aro.rt,key_qual.keys,key_qual.rt,key_ncat.keys,key_ncat.rt,key_cats.keys,key_cats.rt,ncat_order.thisRepN,ncat_order.thisTrialN,ncat_order.thisN,ncat_order.thisIndex,ncat_order.ran,cond_cat,participant,age,gender,handedness (L/R),site (IMT/Donders),date,expName,psychopyVersion,OS,frameRate,img_trials.thisRepN,img_trials.thisTrialN,img_trials.thisN,img_trials.thisIndex,img_trials.ran,filename,slider_post.response,slider_post.rt,textbox_openfb.text
6,7.1025,5,4.3892,2,2.7267,9,2.758,1,2.9869,5,1.0391,0,0,0,0,1,main,10,33,female,R,IMT,2021-07-11_18h06.30.239,ImageRatingTask_S2,2021.1.4,Win32,60.27364234,,,,,,,,,
,,,,,,,,,,,,0,1,1,1,1,second,10,33,female,R,IMT,2021-07-11_18h06.30.239,ImageRatingTask_S2,2021.1.4,Win32,60.27364234,,,,,,,,,
,,,,,,,,,,,,0,2,2,2,1,third,10,33,female,R,IMT,2021-07-11_18h06.30.239,ImageRatingTask_S2,2021.1.4,Win32,60.27364234,,,,,,,,,
,,,,,,,,,,,,0,3,3,3,1,fourth,10,33,female,R,IMT,2021-07-11_18h06.30.239,ImageRatingTask_S2,2021.1.4,Win32,60.27364234,,,,,,,,,
,,,,,,,,,,,,0,4,4,4,1,fifth,10,33,female,R,IMT,2021-07-11_18h06.30.239,ImageRatingTask_S2,2021.1.4,Win32,60.27364234,,,,,,,,,
,,,,,,,,,,,,0,5,5,5,1,sixth,10,33,female,R,IMT,2021-07-11_18h06.30.239,ImageRatingTask_S2,2021.1.4,Win32,60.27364234,,,,,,,,,
,,,,,,,,,,,,0,6,6,6,1,seventh,10,33,female,R,IMT,2021-07-11_18h06.30.239,ImageRatingTask_S2,2021.1.4,Win32,60.27364234,,,,,,,,,
,,,,,,,,,,,,0,7,7,7,1,last,10,33,female,R,IMT,2021-07-11_18h06.30.239,ImageRatingTask_S2,2021.1.4,Win32,60.27364234,,,,,,,,,
,,,,,,,,,,,,,,,,,,10,33,female,R,IMT,2021-07-11_18h06.30.239,ImageRatingTask_S2,2021.1.4,Win32,60.27364234,0,0,0,47,1,DreamStudyImages_rs1000x750g/Food/Objects_087_h.jpg,,,
,,1,4.1088,9,1.7097,9,2.5734,1,1.4839,5,1.7439,0,0,0,0,1,main,10,33,female,R,IMT,2021-07-11_18h06.30.239,ImageRatingTask_S2,2021.1.4,Win32,60.27364234,,,,,,,,,
,,,,,,,,,,,,0,1,1,1,1,second,10,33,female,R,IMT,2021-07-11_18h06.30.239,ImageRatingTask_S2,2021.1.4,Win32,60.27364234,,,,,,,,,
,,,,,,,,,,,,0,2,2,2,1,third,10,33,female,R,IMT,2021-07-11_18h06.30.239,ImageRatingTask_S2,2021.1.4,Win32,60.27364234,,,,,,,,,
,,,,,,,,,,,,0,3,3,3,1,fourth,10,33,female,R,IMT,2021-07-11_18h06.30.239,ImageRatingTask_S2,2021.1.4,Win32,60.27364234,,,,,,,,,
,,,,,,,,,,,,0,4,4,4,1,fifth,10,33,female,R,IMT,2021-07-11_18h06.30.239,ImageRatingTask_S2,2021.1.4,Win32,60.27364234,,,,,,,,,
,,,,,,,,,,,,0,5,5,5,1,sixth,10,33,female,R,IMT,2021-07-11_18h06.30.239,ImageRatingTask_S2,2021.1.4,Win32,60.27364234,,,,,,,,,
,,,,,,,,,,,,0,6,6,6,1,seventh,10,33,female,R,IMT,2021-07-11_18h06.30.239,ImageRatingTask_S2,2021.1.4,Win32,60.27364234,,,,,,,,,
,,,,,,,,,,,,0,7,7,7,1,last,10,33,female,R,IMT,2021-07-11_18h06.30.239,ImageRatingTask_S2,2021.1.4,Win32,60.27364234,,,,,,,,,
,,,,,,,,,,,,,,,,,,10,33,female,R,IMT,2021-07-11_18h06.30.239,ImageRatingTask_S2,2021.1.4,Win32,60.27364234,0,1,1,145,1,DreamStudyImages_rs1000x750g/Food/Objects_088_h.jpg,,,
,,9,2.5405,1,0.8809,8,5.9181,1,1.1237,3,0.9414,0,0,0,0,1,main,10,33,female,R,IMT,2021-07-11_18h06.30.239,ImageRatingTask_S2,2021.1.4,Win32,60.27364234,,,,,,,,,
,,,,,,,,,,,,0,1,1,1,1,second,10,33,female,R,IMT,2021-07-11_18h06.30.239,ImageRatingTask_S2,2021.1.4,Win32,60.27364234,,,,,,,,,
,,,,,,,,,,,,0,2,2,2,1,third,10,33,female,R,IMT,2021-07-11_18h06.30.239,ImageRatingTask_S2,2021.1.4,Win32,60.27364234,,,,,,,,,
,,,,,,,,,,,,0,3,3,3,1,fourth,10,33,female,R,IMT,2021-07-11_18h06.30.239,ImageRatingTask_S2,2021.1.4,Win32,60.27364234,,,,,,,,,
,,,,,,,,,,,,0,4,4,4,1,fifth,10,33,female,R,IMT,2021-07-11_18h06.30.239,ImageRatingTask_S2,2021.1.4,Win32,60.27364234,,,,,,,,,
,,,,,,,,,,,,0,5,5,5,1,sixth,10,33,female,R,IMT,2021-07-11_18h06.30.239,ImageRatingTask_S2,2021.1.4,Win32,60.27364234,,,,,,,,,
,,,,,,,,,,,,0,6,6,6,1,seventh,10,33,female,R,IMT,2021-07-11_18h06.30.239,ImageRatingTask_S2,2021.1.4,Win32,60.27364234,,,,,,,,,
,,,,,,,,,,,,0,7,7,7,1,last,10,33,female,R,IMT,2021-07-11_18h06.30.239,ImageRatingTask_S2,2021.1.4,Win32,60.27364234,,,,,,,,,
,,,,,,,,,,,,,,,,,,10,33,female,R,IMT,2021-07-11_18h06.30.239,ImageRatingTask_S2,2021.1.4,Win32,60.27364234,0,2,2,146,1,DreamStudyImages_rs1000x750g/Mammals/Animals_158_h.jpg,,,
,,5,3.5643,3,2.681,8,2.7715,1,2.1307,5,1.0167,0,0,0,0,1,main,10,33,female,R,IMT,2021-07-11_18h06.30.239,ImageRatingTask_S2,2021.1.4,Win32,60.27364234,,,,,,,,,
,,,,,,,,,,,,0,1,1,1,1,second,10,33,female,R,IMT,2021-07-11_18h06.30.239,ImageRatingTask_S2,2021.1.4,Win32,60.27364234,,,,,,,,,
,,,,,,,,,,,,0,2,2,2,1,third,10,33,female,R,IMT,2021-07-11_18h06.30.239,ImageRatingTask_S2,2021.1.4,Win32,60.27364234,,,,,,,,,
,,,,,,,,,,,,0,3,3,3,1,fourth,10,33,female,R,IMT,2021-07-11_18h06.30.239,ImageRatingTask_S2,2021.1.4,Win32,60.27364234,,,,,,,,,
,,,,,,,,,,,,0,4,4,4,1,fifth,10,33,female,R,IMT,2021-07-11_18h06.30.239,ImageRatingTask_S2,2021.1.4,Win32,60.27364234,,,,,,,,,
,,,,,,,,,,,,0,5,5,5,1,sixth,10,33,female,R,IMT,2021-07-11_18h06.30.239,ImageRatingTask_S2,2021.1.4,Win32,60.27364234,,,,,,,,,
,,,,,,,,,,,,0,6,6,6,1,seventh,10,33,female,R,IMT,2021-07-11_18h06.30.239,ImageRatingTask_S2,2021.1.4,Win32,60.27364234,,,,,,,,,
,,,,,,,,,,,,0,7,7,7,1,last,10,33,female,R,IMT,2021-07-11_18h06.30.239,ImageRatingTask_S2,2021.1.4,Win32,60.27364234,,,,,,,,,
,,,,,,,,,,,,,,,,,,10,33,female,R,IMT,2021-07-11_18h06.30.239,ImageRatingTask_S2,2021.1.4,Win32,60.27364234,0,3,3,156,1,DreamStudyImages_rs1000x750g/Food/Objects_092_v.jpg,,,
,,8,9.4671,5,1.6118,9,2.0904,1,1.8323,5,0.8481,0,0,0,0,1,main,10,33,female,R,IMT,2021-07-11_18h06.30.239,ImageRatingTask_S2,2021.1.4,Win32,60.27364234,,,,,,,,,
,,,,,,,,,,,,0,1,1,1,1,second,10,33,female,R,IMT,2021-07-11_18h06.30.239,ImageRatingTask_S2,2021.1.4,Win32,60.27364234,,,,,,,,,
,,,,,,,,,,,,0,2,2,2,1,third,10,33,female,R,IMT,2021-07-11_18h06.30.239,ImageRatingTask_S2,2021.1.4,Win32,60.27364234,,,,,,,,,
,,,,,,,,,,,,0,3,3,3,1,fourth,10,33,female,R,IMT,2021-07-11_18h06.30.239,ImageRatingTask_S2,2021.1.4,Win32,60.27364234,,,,,,,,,
,,,,,,,,,,,,0,4,4,4,1,fifth,10,33,female,R,IMT,2021-07-11_18h06.30.239,ImageRatingTask_S2,2021.1.4,Win32,60.27364234,,,,,,,,,
,,,,,,,,,,,,0,5,5,5,1,sixth,10,33,female,R,IMT,2021-07-11_18h06.30.239,ImageRatingTask_S2,2021.1.4,Win32,60.27364234,,,,,,,,,
,,,,,,,,,,,,0,6,6,6,1,seventh,10,33,female,R,IMT,2021-07-11_18h06.30.239,ImageRatingTask_S2,2021.1.4,Win32,60.27364234,,,,,,,,,
,,,,,,,,,,,,0,7,7,7,1,last,10,33,female,R,IMT,2021-07-11_18h06.30.239,ImageRatingTask_S2,2021.1.4,Win32,60.27364234,,,,,,,,,
,,,,,,,,,,,,,,,,,,10,33,female,R,IMT,2021-07-11_18h06.30.239,ImageRatingTask_S2,2021.1.4,Win32,60.27364234,0,4,4,71,1,DreamStudyImages_rs1000x750g/Food/IAPS7461_fries2.jpg,,,
,,5,7.2942,2,2.3463,9,3.6307,1,6.3034,7,3.6103,0,0,0,0,1,main,10,33,female,R,IMT,2021-07-11_18h06.30.239,ImageRatingTask_S2,2021.1.4,Win32,60.27364234,,,,,,,,,
,,,,,,,,,,,,0,1,1,1,1,second,10,33,female,R,IMT,2021-07-11_18h06.30.239,ImageRatingTask_S2,2021.1.4,Win32,60.27364234,,,,,,,,,
,,,,,,,,,,,,0,2,2,2,1,third,10,33,female,R,IMT,2021-07-11_18h06.30.239,ImageRatingTask_S2,2021.1.4,Win32,60.27364234,,,,,,,,,
,,,,,,,,,,,,0,3,3,3,1,fourth,10,33,female,R,IMT,2021-07-11_18h06.30.239,ImageRatingTask_S2,2021.1.4,Win32,60.27364234,,,,,,,,,
,,,,,,,,,,,,0,4,4,4,1,fifth,10,33,female,R,IMT,2021-07-11_18h06.30.239,ImageRatingTask_S2,2021.1.4,Win32,60.27364234,,,,,,,,,
,,,,,,,,,,,,0,5,5,5,1,sixth,10,33,female,R,IMT,2021-07-11_18h06.30.239,ImageRatingTask_S2,2021.1.4,Win32,60.27364234,,,,,,,,,
,,,,,,,,,,,,0,6,6,6,1,seventh,10,33,female,R,IMT,2021-07-11_18h06.30.239,ImageRatingTask_S2,2021.1.4,Win32,60.27364234,,,,,,,,,
,,,,,,,,,,,,0,7,7,7,1,last,10,33,female,R,IMT,2021-07-11_18h06.30.239,ImageRatingTask_S2,2021.1.4,Win32,60.27364234,,,,,,,,,
,,,,,,,,,,,,,,,,,,10,33,female,R,IMT,2021-07-11_18h06.30.239,ImageRatingTask_S2,2021.1.4,Win32,60.27364234,0,5,5,90,1,DreamStudyImages_rs1000x750g/Vehicles/Objects_325_h.jpg,,,
,,8,5.1535,2,2.41,9,6.6982,1,2.0414,2,3.7699,0,0,0,0,1,main,10,33,female,R,IMT,2021-07-11_18h06.30.239,ImageRatingTask_S2,2021.1.4,Win32,60.27364234,,,,,,,,,
,,,,,,,,,,,,0,1,1,1,1,second,10,33,female,R,IMT,2021-07-11_18h06.30.239,ImageRatingTask_S2,2021.1.4,Win32,60.27364234,,,,,,,,,
,,,,,,,,,,,,0,2,2,2,1,third,10,33,female,R,IMT,2021-07-11_18h06.30.239,ImageRatingTask_S2,2021.1.4,Win32,60.27364234,,,,,,,,,
,,,,,,,,,,,,0,3,3,3,1,fourth,10,33,female,R,IMT,2021-07-11_18h06.30.239,ImageRatingTask_S2,2021.1.4,Win32,60.27364234,,,,,,,,,
,,,,,,,,,,,,0,4,4,4,1,fifth,10,33,female,R,IMT,2021-07-11_18h06.30.239,ImageRatingTask_S2,2021.1.4,Win32,60.27364234,,,,,,,,,
,,,,,,,,,,,,0,5,5,5,1,sixth,10,33,female,R,IMT,2021-07-11_18h06.30.239,ImageRatingTask_S2,2021.1.4,Win32,60.27364234,,,,,,,,,
,,,,,,,,,,,,0,6,6,6,1,seventh,10,33,female,R,IMT,2021-07-11_18h06.30.239,ImageRatingTask_S2,2021.1.4,Win32,60.27364234,,,,,,,,,
,,,,,,,,,,,,0,7,7,7,1,last,10,33,female,R,IMT,2021-07-11_18h06.30.239,ImageRatingTask_S2,2021.1.4,Win32,60.27364234,,,,,,,,,
,,,,,,,,,,,,,,,,,,10,33,female,R,IMT,2021-07-11_18h06.30.239,ImageRatingTask_S2,2021.1.4,Win32,60.27364234,0,6,6,56,1,DreamStudyImages_rs1000x750g/Children/People_043_h.jpg,,,
,,9,4.2968,1,0.5659,9,1.1619,1,1.3431,2,0.7342,0,0,0,0,1,main,10,33,female,R,IMT,2021-07-11_18h06.30.239,ImageRatingTask_S2,2021.1.4,Win32,60.27364234,,,,,,,,,
,,,,,,,,,,,,0,1,1,1,1,second,10,33,female,R,IMT,2021-07-11_18h06.30.239,ImageRatingTask_S2,2021.1.4,Win32,60.27364234,,,,,,,,,
,,,,,,,,,,,,0,2,2,2,1,third,10,33,female,R,IMT,2021-07-11_18h06.30.239,ImageRatingTask_S2,2021.1.4,Win32,60.27364234,,,,,,,,,
,,,,,,,,,,,,0,3,3,3,1,fourth,10,33,female,R,IMT,2021-07-11_18h06.30.239,ImageRatingTask_S2,2021.1.4,Win32,60.27364234,,,,,,,,,
,,,,,,,,,,,,0,4,4,4,1,fifth,10,33,female,R,IMT,2021-07-11_18h06.30.239,ImageRatingTask_S2,2021.1.4,Win32,60.27364234,,,,,,,,,
,,,,,,,,,,,,0,5,5,5,1,sixth,10,33,female,R,IMT,2021-07-11_18h06.30.239,ImageRatingTask_S2,2021.1.4,Win32,60.27364234,,,,,,,,,
,,,,,,,,,,,,0,6,6,6,1,seventh,10,33,female,R,IMT,2021-07-11_18h06.30.239,ImageRatingTask_S2,2021.1.4,Win32,60.27364234,,,,,,,,,
,,,,,,,,,,,,0,7,7,7,1,last,10,33,female,R,IMT,2021-07-11_18h06.30.239,ImageRatingTask_S2,2021.1.4,Win32,60.27364234,,,,,,,,,
,,,,,,,,,,,,,,,,,,10,33,female,R,IMT,2021-07-11_18h06.30.239,ImageRatingTask_S2,2021.1.4,Win32,60.27364234,0,7,7,72,1,DreamStudyImages_rs1000x750g/Children/IAPS2060_baby7.jpg,,,
,,9,6.3904,1,0.5741,9,0.9461,1,0.9634,3,1.7942,0,0,0,0,1,main,10,33,female,R,IMT,2021-07-11_18h06.30.239,ImageRatingTask_S2,2021.1.4,Win32,60.27364234,,,,,,,,,
,,,,,,,,,,,,0,1,1,1,1,second,10,33,female,R,IMT,2021-07-11_18h06.30.239,ImageRatingTask_S2,2021.1.4,Win32,60.27364234,,,,,,,,,
,,,,,,,,,,,,0,2,2,2,1,third,10,33,female,R,IMT,2021-07-11_18h06.30.239,ImageRatingTask_S2,2021.1.4,Win32,60.27364234,,,,,,,,,
,,,,,,,,,,,,0,3,3,3,1,fourth,10,33,female,R,IMT,2021-07-11_18h06.30.239,ImageRatingTask_S2,2021.1.4,Win32,60.27364234,,,,,,,,,
,,,,,,,,,,,,0,4,4,4,1,fifth,10,33,female,R,IMT,2021-07-11_18h06.30.239,ImageRatingTask_S2,2021.1.4,Win32,60.27364234,,,,,,,,,
,,,,,,,,,,,,0,5,5,5,1,sixth,10,33,female,R,IMT,2021-07-11_18h06.30.239,ImageRatingTask_S2,2021.1.4,Win32,60.27364234,,,,,,,,,
,,,,,,,,,,,,0,6,6,6,1,seventh,10,33,female,R,IMT,2021-07-11_18h06.30.239,ImageRatingTask_S2,2021.1.4,Win32,60.27364234,,,,,,,,,
,,,,,,,,,,,,0,7,7,7,1,last,10,33,female,R,IMT,2021-07-11_18h06.30.239,ImageRatingTask_S2,2021.1.4,Win32,60.27364234,,,,,,,,,
,,,,,,,,,,,,,,,,,,10,33,female,R,IMT,2021-07-11_18h06.30.239,ImageRatingTask_S2,2021.1.4,Win32,60.27364234,0,8,8,27,1,DreamStudyImages_rs1000x750g/Mammals/Animals_110_h.jpg,,,
,,9,1.5279,9,1.7947,1,0.5445,1,7.572,3,0.8442,0,0,0,0,1,main,10,33,female,R,IMT,2021-07-11_18h06.30.239,ImageRatingTask_S2,2021.1.4,Win32,60.27364234,,,,,,,,,
,,,,,,,,,,,,0,1,1,1,1,second,10,33,female,R,IMT,2021-07-11_18h06.30.239,ImageRatingTask_S2,2021.1.4,Win32,60.27364234,,,,,,,,,
,,,,,,,,,,,,0,2,2,2,1,third,10,33,female,R,IMT,2021-07-11_18h06.30.239,ImageRatingTask_S2,2021.1.4,Win32,60.27364234,,,,,,,,,
,,,,,,,,,,,,0,3,3,3,1,fourth,10,33,female,R,IMT,2021-07-11_18h06.30.239,ImageRatingTask_S2,2021.1.4,Win32,60.27364234,,,,,,,,,
,,,,,,,,,,,,0,4,4,4,1,fifth,10,33,female,R,IMT,2021-07-11_18h06.30.239,ImageRatingTask_S2,2021.1.4,Win32,60.27364234,,,,,,,,,
,,,,,,,,,,,,0,5,5,5,1,sixth,10,33,female,R,IMT,2021-07-11_18h06.30.239,ImageRatingTask_S2,2021.1.4,Win32,60.27364234,,,,,,,,,
,,,,,,,,,,,,0,6,6,6,1,seventh,10,33,female,R,IMT,2021-07-11_18h06.30.239,ImageRatingTask_S2,2021.1.4,Win32,60.27364234,,,,,,,,,
,,,,,,,,,,,,0,7,7,7,1,last,10,33,female,R,IMT,2021-07-11_18h06.30.239,ImageRatingTask_S2,2021.1.4,Win32,60.27364234,,,,,,,,,
,,,,,,,,,,,,,,,,,,10,33,female,R,IMT,2021-07-11_18h06.30.239,ImageRatingTask_S2,2021.1.4,Win32,60.27364234,0,9,9,122,1,DreamStudyImages_rs1000x750g/Mammals/Animals_177_h.jpg,,,
,,9,1.1992,1,0.5788,9,1.2564,1,4.2942,8,1.0255,0,0,0,0,1,main,10,33,female,R,IMT,2021-07-11_18h06.30.239,ImageRatingTask_S2,2021.1.4,Win32,60.27364234,,,,,,,,,
,,,,,,,,,,,,0,1,1,1,1,second,10,33,female,R,IMT,2021-07-11_18h06.30.239,ImageRatingTask_S2,2021.1.4,Win32,60.27364234,,,,,,,,,
,,,,,,,,,,,,0,2,2,2,1,third,10,33,female,R,IMT,2021-07-11_18h06.30.239,ImageRatingTask_S2,2021.1.4,Win32,60.27364234,,,,,,,,,
,,,,,,,,,,,,0,3,3,3,1,fourth,10,33,female,R,IMT,2021-07-11_18h06.30.239,ImageRatingTask_S2,2021.1.4,Win32,60.27364234,,,,,,,,,
,,,,,,,,,,,,0,4,4,4,1,fifth,10,33,female,R,IMT,2021-07-11_18h06.30.239,ImageRatingTask_S2,2021.1.4,Win32,60.27364234,,,,,,,,,
,,,,,,,,,,,,0,5,5,5,1,sixth,10,33,female,R,IMT,2021-07-11_18h06.30.239,ImageRatingTask_S2,2021.1.4,Win32,60.27364234,,,,,,,,,
,,,,,,,,,,,,0,6,6,6,1,seventh,10,33,female,R,IMT,2021-07-11_18h06.30.239,ImageRatingTask_S2,2021.1.4,Win32,60.27364234,,,,,,,,,
,,,,,,,,,,,,0,7,7,7,1,last,10,33,female,R,IMT,2021-07-11_18h06.30.239,ImageRatingTask_S2,2021.1.4,Win32,60.27364234,,,,,,,,,
,,,,,,,,,,,,,,,,,,10,33,female,R,IMT,2021-07-11_18h06.30.239,ImageRatingTask_S2,2021.1.4,Win32,60.27364234,0,10,10,49,1,DreamStudyImages_rs1000x750g/Water/sunsetsea.jpg,,,
,,9,2.2818,1,0.3099,9,1.1799,1,1.392,8,0.774,0,0,0,0,1,main,10,33,female,R,IMT,2021-07-11_18h06.30.239,ImageRatingTask_S2,2021.1.4,Win32,60.27364234,,,,,,,,,
,,,,,,,,,,,,0,1,1,1,1,second,10,33,female,R,IMT,2021-07-11_18h06.30.239,ImageRatingTask_S2,2021.1.4,Win32,60.27364234,,,,,,,,,
,,,,,,,,,,,,0,2,2,2,1,third,10,33,female,R,IMT,2021-07-11_18h06.30.239,ImageRatingTask_S2,2021.1.4,Win32,60.27364234,,,,,,,,,
,,,,,,,,,,,,0,3,3,3,1,fourth,10,33,female,R,IMT,2021-07-11_18h06.30.239,ImageRatingTask_S2,2021.1.4,Win32,60.27364234,,,,,,,,,
,,,,,,,,,,,,0,4,4,4,1,fifth,10,33,female,R,IMT,2021-07-11_18h06.30.239,ImageRatingTask_S2,2021.1.4,Win32,60.27364234,,,,,,,,,
,,,,,,,,,,,,0,5,5,5,1,sixth,10,33,female,R,IMT,2021-07-11_18h06.30.239,ImageRatingTask_S2,2021.1.4,Win32,60.27364234,,,,,,,,,
,,,,,,,,,,,,0,6,6,6,1,seventh,10,33,female,R,IMT,2021-07-11_18h06.30.239,ImageRatingTask_S2,2021.1.4,Win32,60.27364234,,,,,,,,,
,,,,,,,,,,,,0,7,7,7,1,last,10,33,female,R,IMT,2021-07-11_18h06.30.239,ImageRatingTask_S2,2021.1.4,Win32,60.27364234,,,,,,,,,
,,,,,,,,,,,,,,,,,,10,33,female,R,IMT,2021-07-11_18h06.30.239,ImageRatingTask_S2,2021.1.4,Win32,60.27364234,0,11,11,55,1,DreamStudyImages_rs1000x750g/Water/Sunset 6.jpg,,,
,,7,5.214,1,3.7797,9,4.053,1,2.5258,6,0.8504,0,0,0,0,1,main,10,33,female,R,IMT,2021-07-11_18h06.30.239,ImageRatingTask_S2,2021.1.4,Win32,60.27364234,,,,,,,,,
,,,,,,,,,,,,0,1,1,1,1,second,10,33,female,R,IMT,2021-07-11_18h06.30.239,ImageRatingTask_S2,2021.1.4,Win32,60.27364234,,,,,,,,,
,,,,,,,,,,,,0,2,2,2,1,third,10,33,female,R,IMT,2021-07-11_18h06.30.239,ImageRatingTask_S2,2021.1.4,Win32,60.27364234,,,,,,,,,
,,,,,,,,,,,,0,3,3,3,1,fourth,10,33,female,R,IMT,2021-07-11_18h06.30.239,ImageRatingTask_S2,2021.1.4,Win32,60.27364234,,,,,,,,,
,,,,,,,,,,,,0,4,4,4,1,fifth,10,33,female,R,IMT,2021-07-11_18h06.30.239,ImageRatingTask_S2,2021.1.4,Win32,60.27364234,,,,,,,,,
,,,,,,,,,,,,0,5,5,5,1,sixth,10,33,female,R,IMT,2021-07-11_18h06.30.239,ImageRatingTask_S2,2021.1.4,Win32,60.27364234,,,,,,,,,
,,,,,,,,,,,,0,6,6,6,1,seventh,10,33,female,R,IMT,2021-07-11_18h06.30.239,ImageRatingTask_S2,2021.1.4,Win32,60.27364234,,,,,,,,,
,,,,,,,,,,,,0,7,7,7,1,last,10,33,female,R,IMT,2021-07-11_18h06.30.239,ImageRatingTask_S2,2021.1.4,Win32,60.27364234,,,,,,,,,
,,,,,,,,,,,,,,,,,,10,33,female,R,IMT,2021-07-11_18h06.30.239,ImageRatingTask_S2,2021.1.4,Win32,60.27364234,0,12,12,73,1,DreamStudyImages_rs1000x750g/Houses/Landscapes_092_h.jpg,,,
,,9,4.895,1,0.264,8,1.8132,1,1.0001,2,2.6746,0,0,0,0,1,main,10,33,female,R,IMT,2021-07-11_18h06.30.239,ImageRatingTask_S2,2021.1.4,Win32,60.27364234,,,,,,,,,
,,,,,,,,,,,,0,1,1,1,1,second,10,33,female,R,IMT,2021-07-11_18h06.30.239,ImageRatingTask_S2,2021.1.4,Win32,60.27364234,,,,,,,,,
,,,,,,,,,,,,0,2,2,2,1,third,10,33,female,R,IMT,2021-07-11_18h06.30.239,ImageRatingTask_S2,2021.1.4,Win32,60.27364234,,,,,,,,,
,,,,,,,,,,,,0,3,3,3,1,fourth,10,33,female,R,IMT,2021-07-11_18h06.30.239,ImageRatingTask_S2,2021.1.4,Win32,60.27364234,,,,,,,,,
,,,,,,,,,,,,0,4,4,4,1,fifth,10,33,female,R,IMT,2021-07-11_18h06.30.239,ImageRatingTask_S2,2021.1.4,Win32,60.27364234,,,,,,,,,
,,,,,,,,,,,,0,5,5,5,1,sixth,10,33,female,R,IMT,2021-07-11_18h06.30.239,ImageRatingTask_S2,2021.1.4,Win32,60.27364234,,,,,,,,,
,,,,,,,,,,,,0,6,6,6,1,seventh,10,33,female,R,IMT,2021-07-11_18h06.30.239,ImageRatingTask_S2,2021.1.4,Win32,60.27364234,,,,,,,,,
,,,,,,,,,,,,0,7,7,7,1,last,10,33,female,R,IMT,2021-07-11_18h06.30.239,ImageRatingTask_S2,2021.1.4,Win32,60.27364234,,,,,,,,,
,,,,,,,,,,,,,,,,,,10,33,female,R,IMT,2021-07-11_18h06.30.239,ImageRatingTask_S2,2021.1.4,Win32,60.27364234,0,13,13,84,1,DreamStudyImages_rs1000x750g/Children/Faces_050_h.jpg,,,
,,9,1.6115,1,0.4972,9,0.8897,1,1.6674,8,0.8841,0,0,0,0,1,main,10,33,female,R,IMT,2021-07-11_18h06.30.239,ImageRatingTask_S2,2021.1.4,Win32,60.27364234,,,,,,,,,
,,,,,,,,,,,,0,1,1,1,1,second,10,33,female,R,IMT,2021-07-11_18h06.30.239,ImageRatingTask_S2,2021.1.4,Win32,60.27364234,,,,,,,,,
,,,,,,,,,,,,0,2,2,2,1,third,10,33,female,R,IMT,2021-07-11_18h06.30.239,ImageRatingTask_S2,2021.1.4,Win32,60.27364234,,,,,,,,,
,,,,,,,,,,,,0,3,3,3,1,fourth,10,33,female,R,IMT,2021-07-11_18h06.30.239,ImageRatingTask_S2,2021.1.4,Win32,60.27364234,,,,,,,,,
,,,,,,,,,,,,0,4,4,4,1,fifth,10,33,female,R,IMT,2021-07-11_18h06.30.239,ImageRatingTask_S2,2021.1.4,Win32,60.27364234,,,,,,,,,
,,,,,,,,,,,,0,5,5,5,1,sixth,10,33,female,R,IMT,2021-07-11_18h06.30.239,ImageRatingTask_S2,2021.1.4,Win32,60.27364234,,,,,,,,,
,,,,,,,,,,,,0,6,6,6,1,seventh,10,33,female,R,IMT,2021-07-11_18h06.30.239,ImageRatingTask_S2,2021.1.4,Win32,60.27364234,,,,,,,,,
,,,,,,,,,,,,0,7,7,7,1,last,10,33,female,R,IMT,2021-07-11_18h06.30.239,ImageRatingTask_S2,2021.1.4,Win32,60.27364234,,,,,,,,,
,,,,,,,,,,,,,,,,,,10,33,female,R,IMT,2021-07-11_18h06.30.239,ImageRatingTask_S2,2021.1.4,Win32,60.27364234,0,14,14,106,1,DreamStudyImages_rs1000x750g/Water/Landscapes_108_v.jpg,,,
,,8,2.7643,3,1.3242,9,2.1147,1,1.395,8,0.7821,0,0,0,0,1,main,10,33,female,R,IMT,2021-07-11_18h06.30.239,ImageRatingTask_S2,2021.1.4,Win32,60.27364234,,,,,,,,,
,,,,,,,,,,,,0,1,1,1,1,second,10,33,female,R,IMT,2021-07-11_18h06.30.239,ImageRatingTask_S2,2021.1.4,Win32,60.27364234,,,,,,,,,
,,,,,,,,,,,,0,2,2,2,1,third,10,33,female,R,IMT,2021-07-11_18h06.30.239,ImageRatingTask_S2,2021.1.4,Win32,60.27364234,,,,,,,,,
,,,,,,,,,,,,0,3,3,3,1,fourth,10,33,female,R,IMT,2021-07-11_18h06.30.239,ImageRatingTask_S2,2021.1.4,Win32,60.27364234,,,,,,,,,
,,,,,,,,,,,,0,4,4,4,1,fifth,10,33,female,R,IMT,2021-07-11_18h06.30.239,ImageRatingTask_S2,2021.1.4,Win32,60.27364234,,,,,,,,,
,,,,,,,,,,,,0,5,5,5,1,sixth,10,33,female,R,IMT,2021-07-11_18h06.30.239,ImageRatingTask_S2,2021.1.4,Win32,60.27364234,,,,,,,,,
,,,,,,,,,,,,0,6,6,6,1,seventh,10,33,female,R,IMT,2021-07-11_18h06.30.239,ImageRatingTask_S2,2021.1.4,Win32,60.27364234,,,,,,,,,
,,,,,,,,,,,,0,7,7,7,1,last,10,33,female,R,IMT,2021-07-11_18h06.30.239,ImageRatingTask_S2,2021.1.4,Win32,60.27364234,,,,,,,,,
,,,,,,,,,,,,,,,,,,10,33,female,R,IMT,2021-07-11_18h06.30.239,ImageRatingTask_S2,2021.1.4,Win32,60.27364234,0,15,15,109,1,DreamStudyImages_rs1000x750g/Water/naturepool.jpg,,,
,,7,5.4748,3,1.5039,6,1.9278,1,1.6889,8,0.773,0,0,0,0,1,main,10,33,female,R,IMT,2021-07-11_18h06.30.239,ImageRatingTask_S2,2021.1.4,Win32,60.27364234,,,,,,,,,
,,,,,,,,,,,,0,1,1,1,1,second,10,33,female,R,IMT,2021-07-11_18h06.30.239,ImageRatingTask_S2,2021.1.4,Win32,60.27364234,,,,,,,,,
,,,,,,,,,,,,0,2,2,2,1,third,10,33,female,R,IMT,2021-07-11_18h06.30.239,ImageRatingTask_S2,2021.1.4,Win32,60.27364234,,,,,,,,,
,,,,,,,,,,,,0,3,3,3,1,fourth,10,33,female,R,IMT,2021-07-11_18h06.30.239,ImageRatingTask_S2,2021.1.4,Win32,60.27364234,,,,,,,,,
,,,,,,,,,,,,0,4,4,4,1,fifth,10,33,female,R,IMT,2021-07-11_18h06.30.239,ImageRatingTask_S2,2021.1.4,Win32,60.27364234,,,,,,,,,
,,,,,,,,,,,,0,5,5,5,1,sixth,10,33,female,R,IMT,2021-07-11_18h06.30.239,ImageRatingTask_S2,2021.1.4,Win32,60.27364234,,,,,,,,,
,,,,,,,,,,,,0,6,6,6,1,seventh,10,33,female,R,IMT,2021-07-11_18h06.30.239,ImageRatingTask_S2,2021.1.4,Win32,60.27364234,,,,,,,,,
,,,,,,,,,,,,0,7,7,7,1,last,10,33,female,R,IMT,2021-07-11_18h06.30.239,ImageRatingTask_S2,2021.1.4,Win32,60.27364234,,,,,,,,,
,,,,,,,,,,,,,,,,,,10,33,female,R,IMT,2021-07-11_18h06.30.239,ImageRatingTask_S2,2021.1.4,Win32,60.27364234,0,16,16,3,1,DreamStudyImages_rs1000x750g/Water/5820.jpg,,,
,,5,5.3549,1,1.0174,9,2.8754,1,2.606,7,0.7608,0,0,0,0,1,main,10,33,female,R,IMT,2021-07-11_18h06.30.239,ImageRatingTask_S2,2021.1.4,Win32,60.27364234,,,,,,,,,
,,,,,,,,,,,,0,1,1,1,1,second,10,33,female,R,IMT,2021-07-11_18h06.30.239,ImageRatingTask_S2,2021.1.4,Win32,60.27364234,,,,,,,,,
,,,,,,,,,,,,0,2,2,2,1,third,10,33,female,R,IMT,2021-07-11_18h06.30.239,ImageRatingTask_S2,2021.1.4,Win32,60.27364234,,,,,,,,,
,,,,,,,,,,,,0,3,3,3,1,fourth,10,33,female,R,IMT,2021-07-11_18h06.30.239,ImageRatingTask_S2,2021.1.4,Win32,60.27364234,,,,,,,,,
,,,,,,,,,,,,0,4,4,4,1,fifth,10,33,female,R,IMT,2021-07-11_18h06.30.239,ImageRatingTask_S2,2021.1.4,Win32,60.27364234,,,,,,,,,
,,,,,,,,,,,,0,5,5,5,1,sixth,10,33,female,R,IMT,2021-07-11_18h06.30.239,ImageRatingTask_S2,2021.1.4,Win32,60.27364234,,,,,,,,,
,,,,,,,,,,,,0,6,6,6,1,seventh,10,33,female,R,IMT,2021-07-11_18h06.30.239,ImageRatingTask_S2,2021.1.4,Win32,60.27364234,,,,,,,,,
,,,,,,,,,,,,0,7,7,7,1,last,10,33,female,R,IMT,2021-07-11_18h06.30.239,ImageRatingTask_S2,2021.1.4,Win32,60.27364234,,,,,,,,,
,,,,,,,,,,,,,,,,,,10,33,female,R,IMT,2021-07-11_18h06.30.239,ImageRatingTask_S2,2021.1.4,Win32,60.27364234,0,17,17,76,1,DreamStudyImages_rs1000x750g/Vehicles/Objects_293_h.jpg,,,
,,9,4.4571,2,2.6694,9,1.7098,2,1.2114,2,2.5255,0,0,0,0,1,main,10,33,female,R,IMT,2021-07-11_18h06.30.239,ImageRatingTask_S2,2021.1.4,Win32,60.27364234,,,,,,,,,
,,,,,,,,,,1,0.9649,0,1,1,1,1,second,10,33,female,R,IMT,2021-07-11_18h06.30.239,ImageRatingTask_S2,2021.1.4,Win32,60.27364234,,,,,,,,,
,,,,,,,,,,,,0,2,2,2,1,third,10,33,female,R,IMT,2021-07-11_18h06.30.239,ImageRatingTask_S2,2021.1.4,Win32,60.27364234,,,,,,,,,
,,,,,,,,,,,,0,3,3,3,1,fourth,10,33,female,R,IMT,2021-07-11_18h06.30.239,ImageRatingTask_S2,2021.1.4,Win32,60.27364234,,,,,,,,,
,,,,,,,,,,,,0,4,4,4,1,fifth,10,33,female,R,IMT,2021-07-11_18h06.30.239,ImageRatingTask_S2,2021.1.4,Win32,60.27364234,,,,,,,,,
,,,,,,,,,,,,0,5,5,5,1,sixth,10,33,female,R,IMT,2021-07-11_18h06.30.239,ImageRatingTask_S2,2021.1.4,Win32,60.27364234,,,,,,,,,
,,,,,,,,,,,,0,6,6,6,1,seventh,10,33,female,R,IMT,2021-07-11_18h06.30.239,ImageRatingTask_S2,2021.1.4,Win32,60.27364234,,,,,,,,,
,,,,,,,,,,,,0,7,7,7,1,last,10,33,female,R,IMT,2021-07-11_18h06.30.239,ImageRatingTask_S2,2021.1.4,Win32,60.27364234,,,,,,,,,
,,,,,,,,,,,,,,,,,,10,33,female,R,IMT,2021-07-11_18h06.30.239,ImageRatingTask_S2,2021.1.4,Win32,60.27364234,0,18,18,104,1,DreamStudyImages_rs1000x750g/Children/IAPS2057_baby5.jpg,,,
,,7,3.6739,8,2.9108,9,1.6624,1,2.7845,3,2.1076,0,0,0,0,1,main,10,33,female,R,IMT,2021-07-11_18h06.30.239,ImageRatingTask_S2,2021.1.4,Win32,60.27364234,,,,,,,,,
,,,,,,,,,,,,0,1,1,1,1,second,10,33,female,R,IMT,2021-07-11_18h06.30.239,ImageRatingTask_S2,2021.1.4,Win32,60.27364234,,,,,,,,,
,,,,,,,,,,,,0,2,2,2,1,third,10,33,female,R,IMT,2021-07-11_18h06.30.239,ImageRatingTask_S2,2021.1.4,Win32,60.27364234,,,,,,,,,
,,,,,,,,,,,,0,3,3,3,1,fourth,10,33,female,R,IMT,2021-07-11_18h06.30.239,ImageRatingTask_S2,2021.1.4,Win32,60.27364234,,,,,,,,,
,,,,,,,,,,,,0,4,4,4,1,fifth,10,33,female,R,IMT,2021-07-11_18h06.30.239,ImageRatingTask_S2,2021.1.4,Win32,60.27364234,,,,,,,,,
,,,,,,,,,,,,0,5,5,5,1,sixth,10,33,female,R,IMT,2021-07-11_18h06.30.239,ImageRatingTask_S2,2021.1.4,Win32,60.27364234,,,,,,,,,
,,,,,,,,,,,,0,6,6,6,1,seventh,10,33,female,R,IMT,2021-07-11_18h06.30.239,ImageRatingTask_S2,2021.1.4,Win32,60.27364234,,,,,,,,,
,,,,,,,,,,,,0,7,7,7,1,last,10,33,female,R,IMT,2021-07-11_18h06.30.239,ImageRatingTask_S2,2021.1.4,Win32,60.27364234,,,,,,,,,
,,,,,,,,,,,,,,,,,,10,33,female,R,IMT,2021-07-11_18h06.30.239,ImageRatingTask_S2,2021.1.4,Win32,60.27364234,0,19,19,39,1,DreamStudyImages_rs1000x750g/Mammals/Lion 5.jpg,,,
,,4,2.9625,6,1.7922,9,1.5426,1,0.9449,2,0.728,0,0,0,0,1,main,10,33,female,R,IMT,2021-07-11_18h06.30.239,ImageRatingTask_S2,2021.1.4,Win32,60.27364234,,,,,,,,,
,,,,,,,,,,,,0,1,1,1,1,second,10,33,female,R,IMT,2021-07-11_18h06.30.239,ImageRatingTask_S2,2021.1.4,Win32,60.27364234,,,,,,,,,
,,,,,,,,,,,,0,2,2,2,1,third,10,33,female,R,IMT,2021-07-11_18h06.30.239,ImageRatingTask_S2,2021.1.4,Win32,60.27364234,,,,,,,,,
,,,,,,,,,,,,0,3,3,3,1,fourth,10,33,female,R,IMT,2021-07-11_18h06.30.239,ImageRatingTask_S2,2021.1.4,Win32,60.27364234,,,,,,,,,
,,,,,,,,,,,,0,4,4,4,1,fifth,10,33,female,R,IMT,2021-07-11_18h06.30.239,ImageRatingTask_S2,2021.1.4,Win32,60.27364234,,,,,,,,,
,,,,,,,,,,,,0,5,5,5,1,sixth,10,33,female,R,IMT,2021-07-11_18h06.30.239,ImageRatingTask_S2,2021.1.4,Win32,60.27364234,,,,,,,,,
,,,,,,,,,,,,0,6,6,6,1,seventh,10,33,female,R,IMT,2021-07-11_18h06.30.239,ImageRatingTask_S2,2021.1.4,Win32,60.27364234,,,,,,,,,
,,,,,,,,,,,,0,7,7,7,1,last,10,33,female,R,IMT,2021-07-11_18h06.30.239,ImageRatingTask_S2,2021.1.4,Win32,60.27364234,,,,,,,,,
,,,,,,,,,,,,,,,,,,10,33,female,R,IMT,2021-07-11_18h06.30.239,ImageRatingTask_S2,2021.1.4,Win32,60.27364234,0,20,20,29,1,DreamStudyImages_rs1000x750g/Children/Baby 7.jpg,,,
,,5,3.4749,4,1.8097,7,2.2185,1,1.2571,7,2.5121,0,0,0,0,1,main,10,33,female,R,IMT,2021-07-11_18h06.30.239,ImageRatingTask_S2,2021.1.4,Win32,60.27364234,,,,,,,,,
,,,,,,,,,,,,0,1,1,1,1,second,10,33,female,R,IMT,2021-07-11_18h06.30.239,ImageRatingTask_S2,2021.1.4,Win32,60.27364234,,,,,,,,,
,,,,,,,,,,,,0,2,2,2,1,third,10,33,female,R,IMT,2021-07-11_18h06.30.239,ImageRatingTask_S2,2021.1.4,Win32,60.27364234,,,,,,,,,
,,,,,,,,,,,,0,3,3,3,1,fourth,10,33,female,R,IMT,2021-07-11_18h06.30.239,ImageRatingTask_S2,2021.1.4,Win32,60.27364234,,,,,,,,,
,,,,,,,,,,,,0,4,4,4,1,fifth,10,33,female,R,IMT,2021-07-11_18h06.30.239,ImageRatingTask_S2,2021.1.4,Win32,60.27364234,,,,,,,,,
,,,,,,,,,,,,0,5,5,5,1,sixth,10,33,female,R,IMT,2021-07-11_18h06.30.239,ImageRatingTask_S2,2021.1.4,Win32,60.27364234,,,,,,,,,
,,,,,,,,,,,,0,6,6,6,1,seventh,10,33,female,R,IMT,2021-07-11_18h06.30.239,ImageRatingTask_S2,2021.1.4,Win32,60.27364234,,,,,,,,,
,,,,,,,,,,,,0,7,7,7,1,last,10,33,female,R,IMT,2021-07-11_18h06.30.239,ImageRatingTask_S2,2021.1.4,Win32,60.27364234,,,,,,,,,
,,,,,,,,,,,,,,,,,,10,33,female,R,IMT,2021-07-11_18h06.30.239,ImageRatingTask_S2,2021.1.4,Win32,60.27364234,0,21,21,75,1,DreamStudyImages_rs1000x750g/Vehicles/IAPS9912_abandonedcar.jpg,,,
,,9,2.7105,1,0.7074,9,0.961,1,0.856,2,0.2442,0,0,0,0,1,main,10,33,female,R,IMT,2021-07-11_18h06.30.239,ImageRatingTask_S2,2021.1.4,Win32,60.27364234,,,,,,,,,
,,,,,,,,,,,,0,1,1,1,1,second,10,33,female,R,IMT,2021-07-11_18h06.30.239,ImageRatingTask_S2,2021.1.4,Win32,60.27364234,,,,,,,,,
,,,,,,,,,,,,0,2,2,2,1,third,10,33,female,R,IMT,2021-07-11_18h06.30.239,ImageRatingTask_S2,2021.1.4,Win32,60.27364234,,,,,,,,,
,,,,,,,,,,,,0,3,3,3,1,fourth,10,33,female,R,IMT,2021-07-11_18h06.30.239,ImageRatingTask_S2,2021.1.4,Win32,60.27364234,,,,,,,,,
,,,,,,,,,,,,0,4,4,4,1,fifth,10,33,female,R,IMT,2021-07-11_18h06.30.239,ImageRatingTask_S2,2021.1.4,Win32,60.27364234,,,,,,,,,
,,,,,,,,,,,,0,5,5,5,1,sixth,10,33,female,R,IMT,2021-07-11_18h06.30.239,ImageRatingTask_S2,2021.1.4,Win32,60.27364234,,,,,,,,,
,,,,,,,,,,,,0,6,6,6,1,seventh,10,33,female,R,IMT,2021-07-11_18h06.30.239,ImageRatingTask_S2,2021.1.4,Win32,60.27364234,,,,,,,,,
,,,,,,,,,,,,0,7,7,7,1,last,10,33,female,R,IMT,2021-07-11_18h06.30.239,ImageRatingTask_S2,2021.1.4,Win32,60.27364234,,,,,,,,,
,,,,,,,,,,,,,,,,,,10,33,female,R,IMT,2021-07-11_18h06.30.239,ImageRatingTask_S2,2021.1.4,Win32,60.27364234,0,22,22,78,1,DreamStudyImages_rs1000x750g/Children/Baby 6.jpg,,,
,,3,3.5289,7,1.5344,9,2.0285,1,9.7604,8,1.3966,0,0,0,0,1,main,10,33,female,R,IMT,2021-07-11_18h06.30.239,ImageRatingTask_S2,2021.1.4,Win32,60.27364234,,,,,,,,,
,,,,,,,,,,,,0,1,1,1,1,second,10,33,female,R,IMT,2021-07-11_18h06.30.239,ImageRatingTask_S2,2021.1.4,Win32,60.27364234,,,,,,,,,
,,,,,,,,,,,,0,2,2,2,1,third,10,33,female,R,IMT,2021-07-11_18h06.30.239,ImageRatingTask_S2,2021.1.4,Win32,60.27364234,,,,,,,,,
,,,,,,,,,,,,0,3,3,3,1,fourth,10,33,female,R,IMT,2021-07-11_18h06.30.239,ImageRatingTask_S2,2021.1.4,Win32,60.27364234,,,,,,,,,
,,,,,,,,,,,,0,4,4,4,1,fifth,10,33,female,R,IMT,2021-07-11_18h06.30.239,ImageRatingTask_S2,2021.1.4,Win32,60.27364234,,,,,,,,,
,,,,,,,,,,,,0,5,5,5,1,sixth,10,33,female,R,IMT,2021-07-11_18h06.30.239,ImageRatingTask_S2,2021.1.4,Win32,60.27364234,,,,,,,,,
,,,,,,,,,,,,0,6,6,6,1,seventh,10,33,female,R,IMT,2021-07-11_18h06.30.239,ImageRatingTask_S2,2021.1.4,Win32,60.27364234,,,,,,,,,
,,,,,,,,,,,,0,7,7,7,1,last,10,33,female,R,IMT,2021-07-11_18h06.30.239,ImageRatingTask_S2,2021.1.4,Win32,60.27364234,,,,,,,,,
,,,,,,,,,,,,,,,,,,10,33,female,R,IMT,2021-07-11_18h06.30.239,ImageRatingTask_S2,2021.1.4,Win32,60.27364234,0,23,23,155,1,DreamStudyImages_rs1000x750g/Water/Graveyard 3.jpg,,,
,,9,2.0934,1,0.4682,7,4.3817,1,0.8982,3,1.0408,0,0,0,0,1,main,10,33,female,R,IMT,2021-07-11_18h06.30.239,ImageRatingTask_S2,2021.1.4,Win32,60.27364234,,,,,,,,,
,,,,,,,,,,,,0,1,1,1,1,second,10,33,female,R,IMT,2021-07-11_18h06.30.239,ImageRatingTask_S2,2021.1.4,Win32,60.27364234,,,,,,,,,
,,,,,,,,,,,,0,2,2,2,1,third,10,33,female,R,IMT,2021-07-11_18h06.30.239,ImageRatingTask_S2,2021.1.4,Win32,60.27364234,,,,,,,,,
,,,,,,,,,,,,0,3,3,3,1,fourth,10,33,female,R,IMT,2021-07-11_18h06.30.239,ImageRatingTask_S2,2021.1.4,Win32,60.27364234,,,,,,,,,
,,,,,,,,,,,,0,4,4,4,1,fifth,10,33,female,R,IMT,2021-07-11_18h06.30.239,ImageRatingTask_S2,2021.1.4,Win32,60.27364234,,,,,,,,,
,,,,,,,,,,,,0,5,5,5,1,sixth,10,33,female,R,IMT,2021-07-11_18h06.30.239,ImageRatingTask_S2,2021.1.4,Win32,60.27364234,,,,,,,,,
,,,,,,,,,,,,0,6,6,6,1,seventh,10,33,female,R,IMT,2021-07-11_18h06.30.239,ImageRatingTask_S2,2021.1.4,Win32,60.27364234,,,,,,,,,
,,,,,,,,,,,,0,7,7,7,1,last,10,33,female,R,IMT,2021-07-11_18h06.30.239,ImageRatingTask_S2,2021.1.4,Win32,60.27364234,,,,,,,,,
,,,,,,,,,,,,,,,,,,10,33,female,R,IMT,2021-07-11_18h06.30.239,ImageRatingTask_S2,2021.1.4,Win32,60.27364234,0,24,24,133,1,DreamStudyImages_rs1000x750g/Mammals/IAPS1540_cat.jpg,,,
,,2,2.1858,8,0.9907,9,1.4593,1,1.0679,7,1.4155,0,0,0,0,1,main,10,33,female,R,IMT,2021-07-11_18h06.30.239,ImageRatingTask_S2,2021.1.4,Win32,60.27364234,,,,,,,,,
,,,,,,,,,,,,0,1,1,1,1,second,10,33,female,R,IMT,2021-07-11_18h06.30.239,ImageRatingTask_S2,2021.1.4,Win32,60.27364234,,,,,,,,,
,,,,,,,,,,,,0,2,2,2,1,third,10,33,female,R,IMT,2021-07-11_18h06.30.239,ImageRatingTask_S2,2021.1.4,Win32,60.27364234,,,,,,,,,
,,,,,,,,,,,,0,3,3,3,1,fourth,10,33,female,R,IMT,2021-07-11_18h06.30.239,ImageRatingTask_S2,2021.1.4,Win32,60.27364234,,,,,,,,,
,,,,,,,,,,,,0,4,4,4,1,fifth,10,33,female,R,IMT,2021-07-11_18h06.30.239,ImageRatingTask_S2,2021.1.4,Win32,60.27364234,,,,,,,,,
,,,,,,,,,,,,0,5,5,5,1,sixth,10,33,female,R,IMT,2021-07-11_18h06.30.239,ImageRatingTask_S2,2021.1.4,Win32,60.27364234,,,,,,,,,
,,,,,,,,,,,,0,6,6,6,1,seventh,10,33,female,R,IMT,2021-07-11_18h06.30.239,ImageRatingTask_S2,2021.1.4,Win32,60.27364234,,,,,,,,,
,,,,,,,,,,,,0,7,7,7,1,last,10,33,female,R,IMT,2021-07-11_18h06.30.239,ImageRatingTask_S2,2021.1.4,Win32,60.27364234,,,,,,,,,
,,,,,,,,,,,,,,,,,,10,33,female,R,IMT,2021-07-11_18h06.30.239,ImageRatingTask_S2,2021.1.4,Win32,60.27364234,0,25,25,121,1,DreamStudyImages_rs1000x750g/Vehicles/Objects_003_h.jpg,,,
,,5,3.6571,4,1.7251,9,1.3959,1,1.1415,7,1.0469,0,0,0,0,1,main,10,33,female,R,IMT,2021-07-11_18h06.30.239,ImageRatingTask_S2,2021.1.4,Win32,60.27364234,,,,,,,,,
,,,,,,,,,,,,0,1,1,1,1,second,10,33,female,R,IMT,2021-07-11_18h06.30.239,ImageRatingTask_S2,2021.1.4,Win32,60.27364234,,,,,,,,,
,,,,,,,,,,,,0,2,2,2,1,third,10,33,female,R,IMT,2021-07-11_18h06.30.239,ImageRatingTask_S2,2021.1.4,Win32,60.27364234,,,,,,,,,
,,,,,,,,,,,,0,3,3,3,1,fourth,10,33,female,R,IMT,2021-07-11_18h06.30.239,ImageRatingTask_S2,2021.1.4,Win32,60.27364234,,,,,,,,,
,,,,,,,,,,,,0,4,4,4,1,fifth,10,33,female,R,IMT,2021-07-11_18h06.30.239,ImageRatingTask_S2,2021.1.4,Win32,60.27364234,,,,,,,,,
,,,,,,,,,,,,0,5,5,5,1,sixth,10,33,female,R,IMT,2021-07-11_18h06.30.239,ImageRatingTask_S2,2021.1.4,Win32,60.27364234,,,,,,,,,
,,,,,,,,,,,,0,6,6,6,1,seventh,10,33,female,R,IMT,2021-07-11_18h06.30.239,ImageRatingTask_S2,2021.1.4,Win32,60.27364234,,,,,,,,,
,,,,,,,,,,,,0,7,7,7,1,last,10,33,female,R,IMT,2021-07-11_18h06.30.239,ImageRatingTask_S2,2021.1.4,Win32,60.27364234,,,,,,,,,
,,,,,,,,,,,,,,,,,,10,33,female,R,IMT,2021-07-11_18h06.30.239,ImageRatingTask_S2,2021.1.4,Win32,60.27364234,0,26,26,141,1,DreamStudyImages_rs1000x750g/Vehicles/Objects_286_h.jpg,,,
,,9,2.2185,1,2.4316,9,1.0143,1,2.7852,8,0.7331,0,0,0,0,1,main,10,33,female,R,IMT,2021-07-11_18h06.30.239,ImageRatingTask_S2,2021.1.4,Win32,60.27364234,,,,,,,,,
,,,,,,,,,,,,0,1,1,1,1,second,10,33,female,R,IMT,2021-07-11_18h06.30.239,ImageRatingTask_S2,2021.1.4,Win32,60.27364234,,,,,,,,,
,,,,,,,,,,,,0,2,2,2,1,third,10,33,female,R,IMT,2021-07-11_18h06.30.239,ImageRatingTask_S2,2021.1.4,Win32,60.27364234,,,,,,,,,
,,,,,,,,,,,,0,3,3,3,1,fourth,10,33,female,R,IMT,2021-07-11_18h06.30.239,ImageRatingTask_S2,2021.1.4,Win32,60.27364234,,,,,,,,,
,,,,,,,,,,,,0,4,4,4,1,fifth,10,33,female,R,IMT,2021-07-11_18h06.30.239,ImageRatingTask_S2,2021.1.4,Win32,60.27364234,,,,,,,,,
,,,,,,,,,,,,0,5,5,5,1,sixth,10,33,female,R,IMT,2021-07-11_18h06.30.239,ImageRatingTask_S2,2021.1.4,Win32,60.27364234,,,,,,,,,
,,,,,,,,,,,,0,6,6,6,1,seventh,10,33,female,R,IMT,2021-07-11_18h06.30.239,ImageRatingTask_S2,2021.1.4,Win32,60.27364234,,,,,,,,,
,,,,,,,,,,,,0,7,7,7,1,last,10,33,female,R,IMT,2021-07-11_18h06.30.239,ImageRatingTask_S2,2021.1.4,Win32,60.27364234,,,,,,,,,
,,,,,,,,,,,,,,,,,,10,33,female,R,IMT,2021-07-11_18h06.30.239,ImageRatingTask_S2,2021.1.4,Win32,60.27364234,0,27,27,79,1,DreamStudyImages_rs1000x750g/Water/rockyriver.jpg,,,
,,5,2.2948,4,0.8726,9,1.0159,1,0.7307,7,0.8671,0,0,0,0,1,main,10,33,female,R,IMT,2021-07-11_18h06.30.239,ImageRatingTask_S2,2021.1.4,Win32,60.27364234,,,,,,,,,
,,,,,,,,,,,,0,1,1,1,1,second,10,33,female,R,IMT,2021-07-11_18h06.30.239,ImageRatingTask_S2,2021.1.4,Win32,60.27364234,,,,,,,,,
,,,,,,,,,,,,0,2,2,2,1,third,10,33,female,R,IMT,2021-07-11_18h06.30.239,ImageRatingTask_S2,2021.1.4,Win32,60.27364234,,,,,,,,,
,,,,,,,,,,,,0,3,3,3,1,fourth,10,33,female,R,IMT,2021-07-11_18h06.30.239,ImageRatingTask_S2,2021.1.4,Win32,60.27364234,,,,,,,,,
,,,,,,,,,,,,0,4,4,4,1,fifth,10,33,female,R,IMT,2021-07-11_18h06.30.239,ImageRatingTask_S2,2021.1.4,Win32,60.27364234,,,,,,,,,
,,,,,,,,,,,,0,5,5,5,1,sixth,10,33,female,R,IMT,2021-07-11_18h06.30.239,ImageRatingTask_S2,2021.1.4,Win32,60.27364234,,,,,,,,,
,,,,,,,,,,,,0,6,6,6,1,seventh,10,33,female,R,IMT,2021-07-11_18h06.30.239,ImageRatingTask_S2,2021.1.4,Win32,60.27364234,,,,,,,,,
,,,,,,,,,,,,0,7,7,7,1,last,10,33,female,R,IMT,2021-07-11_18h06.30.239,ImageRatingTask_S2,2021.1.4,Win32,60.27364234,,,,,,,,,
,,,,,,,,,,,,,,,,,,10,33,female,R,IMT,2021-07-11_18h06.30.239,ImageRatingTask_S2,2021.1.4,Win32,60.27364234,0,28,28,117,1,DreamStudyImages_rs1000x750g/Vehicles/Objects_308_h.jpg,,,
,,4,3.242,6,3.0498,9,2.657,1,1.3344,2,0.8084,0,0,0,0,1,main,10,33,female,R,IMT,2021-07-11_18h06.30.239,ImageRatingTask_S2,2021.1.4,Win32,60.27364234,,,,,,,,,
,,,,,,,,,,,,0,1,1,1,1,second,10,33,female,R,IMT,2021-07-11_18h06.30.239,ImageRatingTask_S2,2021.1.4,Win32,60.27364234,,,,,,,,,
,,,,,,,,,,,,0,2,2,2,1,third,10,33,female,R,IMT,2021-07-11_18h06.30.239,ImageRatingTask_S2,2021.1.4,Win32,60.27364234,,,,,,,,,
,,,,,,,,,,,,0,3,3,3,1,fourth,10,33,female,R,IMT,2021-07-11_18h06.30.239,ImageRatingTask_S2,2021.1.4,Win32,60.27364234,,,,,,,,,
,,,,,,,,,,,,0,4,4,4,1,fifth,10,33,female,R,IMT,2021-07-11_18h06.30.239,ImageRatingTask_S2,2021.1.4,Win32,60.27364234,,,,,,,,,
,,,,,,,,,,,,0,5,5,5,1,sixth,10,33,female,R,IMT,2021-07-11_18h06.30.239,ImageRatingTask_S2,2021.1.4,Win32,60.27364234,,,,,,,,,
,,,,,,,,,,,,0,6,6,6,1,seventh,10,33,female,R,IMT,2021-07-11_18h06.30.239,ImageRatingTask_S2,2021.1.4,Win32,60.27364234,,,,,,,,,
,,,,,,,,,,,,0,7,7,7,1,last,10,33,female,R,IMT,2021-07-11_18h06.30.239,ImageRatingTask_S2,2021.1.4,Win32,60.27364234,,,,,,,,,
,,,,,,,,,,,,,,,,,,10,33,female,R,IMT,2021-07-11_18h06.30.239,ImageRatingTask_S2,2021.1.4,Win32,60.27364234,0,29,29,149,1,DreamStudyImages_rs1000x750g/Children/Sad face 7.jpg,,,
,,5,3.2172,5,2.7462,9,3.4857,1,1.1391,5,1.1477,0,0,0,0,1,main,10,33,female,R,IMT,2021-07-11_18h06.30.239,ImageRatingTask_S2,2021.1.4,Win32,60.27364234,,,,,,,,,
,,,,,,,,,,,,0,1,1,1,1,second,10,33,female,R,IMT,2021-07-11_18h06.30.239,ImageRatingTask_S2,2021.1.4,Win32,60.27364234,,,,,,,,,
,,,,,,,,,,,,0,2,2,2,1,third,10,33,female,R,IMT,2021-07-11_18h06.30.239,ImageRatingTask_S2,2021.1.4,Win32,60.27364234,,,,,,,,,
,,,,,,,,,,,,0,3,3,3,1,fourth,10,33,female,R,IMT,2021-07-11_18h06.30.239,ImageRatingTask_S2,2021.1.4,Win32,60.27364234,,,,,,,,,
,,,,,,,,,,,,0,4,4,4,1,fifth,10,33,female,R,IMT,2021-07-11_18h06.30.239,ImageRatingTask_S2,2021.1.4,Win32,60.27364234,,,,,,,,,
,,,,,,,,,,,,0,5,5,5,1,sixth,10,33,female,R,IMT,2021-07-11_18h06.30.239,ImageRatingTask_S2,2021.1.4,Win32,60.27364234,,,,,,,,,
,,,,,,,,,,,,0,6,6,6,1,seventh,10,33,female,R,IMT,2021-07-11_18h06.30.239,ImageRatingTask_S2,2021.1.4,Win32,60.27364234,,,,,,,,,
,,,,,,,,,,,,0,7,7,7,1,last,10,33,female,R,IMT,2021-07-11_18h06.30.239,ImageRatingTask_S2,2021.1.4,Win32,60.27364234,,,,,,,,,
,,,,,,,,,,,,,,,,,,10,33,female,R,IMT,2021-07-11_18h06.30.239,ImageRatingTask_S2,2021.1.4,Win32,60.27364234,0,30,30,85,1,DreamStudyImages_rs1000x750g/Food/Objects_083_h.jpg,,,
,,1,3.9273,9,1.1953,9,1.2423,1,2.858,3,7.2625,0,0,0,0,1,main,10,33,female,R,IMT,2021-07-11_18h06.30.239,ImageRatingTask_S2,2021.1.4,Win32,60.27364234,,,,,,,,,
,,,,,,,,,,,,0,1,1,1,1,second,10,33,female,R,IMT,2021-07-11_18h06.30.239,ImageRatingTask_S2,2021.1.4,Win32,60.27364234,,,,,,,,,
,,,,,,,,,,,,0,2,2,2,1,third,10,33,female,R,IMT,2021-07-11_18h06.30.239,ImageRatingTask_S2,2021.1.4,Win32,60.27364234,,,,,,,,,
,,,,,,,,,,,,0,3,3,3,1,fourth,10,33,female,R,IMT,2021-07-11_18h06.30.239,ImageRatingTask_S2,2021.1.4,Win32,60.27364234,,,,,,,,,
,,,,,,,,,,,,0,4,4,4,1,fifth,10,33,female,R,IMT,2021-07-11_18h06.30.239,ImageRatingTask_S2,2021.1.4,Win32,60.27364234,,,,,,,,,
,,,,,,,,,,,,0,5,5,5,1,sixth,10,33,female,R,IMT,2021-07-11_18h06.30.239,ImageRatingTask_S2,2021.1.4,Win32,60.27364234,,,,,,,,,
,,,,,,,,,,,,0,6,6,6,1,seventh,10,33,female,R,IMT,2021-07-11_18h06.30.239,ImageRatingTask_S2,2021.1.4,Win32,60.27364234,,,,,,,,,
,,,,,,,,,,,,0,7,7,7,1,last,10,33,female,R,IMT,2021-07-11_18h06.30.239,ImageRatingTask_S2,2021.1.4,Win32,60.27364234,,,,,,,,,
,,,,,,,,,,,,,,,,,,10,33,female,R,IMT,2021-07-11_18h06.30.239,ImageRatingTask_S2,2021.1.4,Win32,60.27364234,0,31,31,114,1,DreamStudyImages_rs1000x750g/Mammals/Animals_067_h.jpg,,,
,,6,2.5194,4,1.4201,9,3.5599,2,3.9805,2,2.0497,0,0,0,0,1,main,10,33,female,R,IMT,2021-07-11_18h06.30.239,ImageRatingTask_S2,2021.1.4,Win32,60.27364234,,,,,,,,,
,,,,,,,,,,1,0.4145,0,1,1,1,1,second,10,33,female,R,IMT,2021-07-11_18h06.30.239,ImageRatingTask_S2,2021.1.4,Win32,60.27364234,,,,,,,,,
,,,,,,,,,,,,0,2,2,2,1,third,10,33,female,R,IMT,2021-07-11_18h06.30.239,ImageRatingTask_S2,2021.1.4,Win32,60.27364234,,,,,,,,,
,,,,,,,,,,,,0,3,3,3,1,fourth,10,33,female,R,IMT,2021-07-11_18h06.30.239,ImageRatingTask_S2,2021.1.4,Win32,60.27364234,,,,,,,,,
,,,,,,,,,,,,0,4,4,4,1,fifth,10,33,female,R,IMT,2021-07-11_18h06.30.239,ImageRatingTask_S2,2021.1.4,Win32,60.27364234,,,,,,,,,
,,,,,,,,,,,,0,5,5,5,1,sixth,10,33,female,R,IMT,2021-07-11_18h06.30.239,ImageRatingTask_S2,2021.1.4,Win32,60.27364234,,,,,,,,,
,,,,,,,,,,,,0,6,6,6,1,seventh,10,33,female,R,IMT,2021-07-11_18h06.30.239,ImageRatingTask_S2,2021.1.4,Win32,60.27364234,,,,,,,,,
,,,,,,,,,,,,0,7,7,7,1,last,10,33,female,R,IMT,2021-07-11_18h06.30.239,ImageRatingTask_S2,2021.1.4,Win32,60.27364234,,,,,,,,,
,,,,,,,,,,,,,,,,,,10,33,female,R,IMT,2021-07-11_18h06.30.239,ImageRatingTask_S2,2021.1.4,Win32,60.27364234,0,32,32,152,1,DreamStudyImages_rs1000x750g/Children/People_045_h.jpg,,,
,,5,3.675,1,1.1281,9,1.5629,1,3.6832,7,0.8473,0,0,0,0,1,main,10,33,female,R,IMT,2021-07-11_18h06.30.239,ImageRatingTask_S2,2021.1.4,Win32,60.27364234,,,,,,,,,
,,,,,,,,,,,,0,1,1,1,1,second,10,33,female,R,IMT,2021-07-11_18h06.30.239,ImageRatingTask_S2,2021.1.4,Win32,60.27364234,,,,,,,,,
,,,,,,,,,,,,0,2,2,2,1,third,10,33,female,R,IMT,2021-07-11_18h06.30.239,ImageRatingTask_S2,2021.1.4,Win32,60.27364234,,,,,,,,,
,,,,,,,,,,,,0,3,3,3,1,fourth,10,33,female,R,IMT,2021-07-11_18h06.30.239,ImageRatingTask_S2,2021.1.4,Win32,60.27364234,,,,,,,,,
,,,,,,,,,,,,0,4,4,4,1,fifth,10,33,female,R,IMT,2021-07-11_18h06.30.239,ImageRatingTask_S2,2021.1.4,Win32,60.27364234,,,,,,,,,
,,,,,,,,,,,,0,5,5,5,1,sixth,10,33,female,R,IMT,2021-07-11_18h06.30.239,ImageRatingTask_S2,2021.1.4,Win32,60.27364234,,,,,,,,,
,,,,,,,,,,,,0,6,6,6,1,seventh,10,33,female,R,IMT,2021-07-11_18h06.30.239,ImageRatingTask_S2,2021.1.4,Win32,60.27364234,,,,,,,,,
,,,,,,,,,,,,0,7,7,7,1,last,10,33,female,R,IMT,2021-07-11_18h06.30.239,ImageRatingTask_S2,2021.1.4,Win32,60.27364234,,,,,,,,,
,,,,,,,,,,,,,,,,,,10,33,female,R,IMT,2021-07-11_18h06.30.239,ImageRatingTask_S2,2021.1.4,Win32,60.27364234,0,33,33,23,1,DreamStudyImages_rs1000x750g/Vehicles/Ambulance 2.jpg,,,
,,5,2.2452,7,2.1295,8,2.7597,1,0.9215,5,1.0007,0,0,0,0,1,main,10,33,female,R,IMT,2021-07-11_18h06.30.239,ImageRatingTask_S2,2021.1.4,Win32,60.27364234,,,,,,,,,
,,,,,,,,,,,,0,1,1,1,1,second,10,33,female,R,IMT,2021-07-11_18h06.30.239,ImageRatingTask_S2,2021.1.4,Win32,60.27364234,,,,,,,,,
,,,,,,,,,,,,0,2,2,2,1,third,10,33,female,R,IMT,2021-07-11_18h06.30.239,ImageRatingTask_S2,2021.1.4,Win32,60.27364234,,,,,,,,,
,,,,,,,,,,,,0,3,3,3,1,fourth,10,33,female,R,IMT,2021-07-11_18h06.30.239,ImageRatingTask_S2,2021.1.4,Win32,60.27364234,,,,,,,,,
,,,,,,,,,,,,0,4,4,4,1,fifth,10,33,female,R,IMT,2021-07-11_18h06.30.239,ImageRatingTask_S2,2021.1.4,Win32,60.27364234,,,,,,,,,
,,,,,,,,,,,,0,5,5,5,1,sixth,10,33,female,R,IMT,2021-07-11_18h06.30.239,ImageRatingTask_S2,2021.1.4,Win32,60.27364234,,,,,,,,,
,,,,,,,,,,,,0,6,6,6,1,seventh,10,33,female,R,IMT,2021-07-11_18h06.30.239,ImageRatingTask_S2,2021.1.4,Win32,60.27364234,,,,,,,,,
,,,,,,,,,,,,0,7,7,7,1,last,10,33,female,R,IMT,2021-07-11_18h06.30.239,ImageRatingTask_S2,2021.1.4,Win32,60.27364234,,,,,,,,,
,,,,,,,,,,,,,,,,,,10,33,female,R,IMT,2021-07-11_18h06.30.239,ImageRatingTask_S2,2021.1.4,Win32,60.27364234,0,34,34,44,1,DreamStudyImages_rs1000x750g/Food/IAPS7460_fries.jpg,,,
,,6,2.9748,3,2.131,8,4.0132,1,0.8259,5,1.0032,0,0,0,0,1,main,10,33,female,R,IMT,2021-07-11_18h06.30.239,ImageRatingTask_S2,2021.1.4,Win32,60.27364234,,,,,,,,,
,,,,,,,,,,,,0,1,1,1,1,second,10,33,female,R,IMT,2021-07-11_18h06.30.239,ImageRatingTask_S2,2021.1.4,Win32,60.27364234,,,,,,,,,
,,,,,,,,,,,,0,2,2,2,1,third,10,33,female,R,IMT,2021-07-11_18h06.30.239,ImageRatingTask_S2,2021.1.4,Win32,60.27364234,,,,,,,,,
,,,,,,,,,,,,0,3,3,3,1,fourth,10,33,female,R,IMT,2021-07-11_18h06.30.239,ImageRatingTask_S2,2021.1.4,Win32,60.27364234,,,,,,,,,
,,,,,,,,,,,,0,4,4,4,1,fifth,10,33,female,R,IMT,2021-07-11_18h06.30.239,ImageRatingTask_S2,2021.1.4,Win32,60.27364234,,,,,,,,,
,,,,,,,,,,,,0,5,5,5,1,sixth,10,33,female,R,IMT,2021-07-11_18h06.30.239,ImageRatingTask_S2,2021.1.4,Win32,60.27364234,,,,,,,,,
,,,,,,,,,,,,0,6,6,6,1,seventh,10,33,female,R,IMT,2021-07-11_18h06.30.239,ImageRatingTask_S2,2021.1.4,Win32,60.27364234,,,,,,,,,
,,,,,,,,,,,,0,7,7,7,1,last,10,33,female,R,IMT,2021-07-11_18h06.30.239,ImageRatingTask_S2,2021.1.4,Win32,60.27364234,,,,,,,,,
,,,,,,,,,,,,,,,,,,10,33,female,R,IMT,2021-07-11_18h06.30.239,ImageRatingTask_S2,2021.1.4,Win32,60.27364234,0,35,35,35,1,DreamStudyImages_rs1000x750g/Food/Wedding 4.jpg,,,
,,5,2.9987,5,1.2465,9,1.9771,1,5.2729,6,1.0795,0,0,0,0,1,main,10,33,female,R,IMT,2021-07-11_18h06.30.239,ImageRatingTask_S2,2021.1.4,Win32,60.27364234,,,,,,,,,
,,,,,,,,,,,,0,1,1,1,1,second,10,33,female,R,IMT,2021-07-11_18h06.30.239,ImageRatingTask_S2,2021.1.4,Win32,60.27364234,,,,,,,,,
,,,,,,,,,,,,0,2,2,2,1,third,10,33,female,R,IMT,2021-07-11_18h06.30.239,ImageRatingTask_S2,2021.1.4,Win32,60.27364234,,,,,,,,,
,,,,,,,,,,,,0,3,3,3,1,fourth,10,33,female,R,IMT,2021-07-11_18h06.30.239,ImageRatingTask_S2,2021.1.4,Win32,60.27364234,,,,,,,,,
,,,,,,,,,,,,0,4,4,4,1,fifth,10,33,female,R,IMT,2021-07-11_18h06.30.239,ImageRatingTask_S2,2021.1.4,Win32,60.27364234,,,,,,,,,
,,,,,,,,,,,,0,5,5,5,1,sixth,10,33,female,R,IMT,2021-07-11_18h06.30.239,ImageRatingTask_S2,2021.1.4,Win32,60.27364234,,,,,,,,,
,,,,,,,,,,,,0,6,6,6,1,seventh,10,33,female,R,IMT,2021-07-11_18h06.30.239,ImageRatingTask_S2,2021.1.4,Win32,60.27364234,,,,,,,,,
,,,,,,,,,,,,0,7,7,7,1,last,10,33,female,R,IMT,2021-07-11_18h06.30.239,ImageRatingTask_S2,2021.1.4,Win32,60.27364234,,,,,,,,,
,,,,,,,,,,,,,,,,,,10,33,female,R,IMT,2021-07-11_18h06.30.239,ImageRatingTask_S2,2021.1.4,Win32,60.27364234,0,36,36,89,1,DreamStudyImages_rs1000x750g/Houses/Landscapes_059_v.jpg,,,
,,9,1.4813,2,1.5555,9,1.5236,1,1.4945,8,1.0011,0,0,0,0,1,main,10,33,female,R,IMT,2021-07-11_18h06.30.239,ImageRatingTask_S2,2021.1.4,Win32,60.27364234,,,,,,,,,
,,,,,,,,,,,,0,1,1,1,1,second,10,33,female,R,IMT,2021-07-11_18h06.30.239,ImageRatingTask_S2,2021.1.4,Win32,60.27364234,,,,,,,,,
,,,,,,,,,,,,0,2,2,2,1,third,10,33,female,R,IMT,2021-07-11_18h06.30.239,ImageRatingTask_S2,2021.1.4,Win32,60.27364234,,,,,,,,,
,,,,,,,,,,,,0,3,3,3,1,fourth,10,33,female,R,IMT,2021-07-11_18h06.30.239,ImageRatingTask_S2,2021.1.4,Win32,60.27364234,,,,,,,,,
,,,,,,,,,,,,0,4,4,4,1,fifth,10,33,female,R,IMT,2021-07-11_18h06.30.239,ImageRatingTask_S2,2021.1.4,Win32,60.27364234,,,,,,,,,
,,,,,,,,,,,,0,5,5,5,1,sixth,10,33,female,R,IMT,2021-07-11_18h06.30.239,ImageRatingTask_S2,2021.1.4,Win32,60.27364234,,,,,,,,,
,,,,,,,,,,,,0,6,6,6,1,seventh,10,33,female,R,IMT,2021-07-11_18h06.30.239,ImageRatingTask_S2,2021.1.4,Win32,60.27364234,,,,,,,,,
,,,,,,,,,,,,0,7,7,7,1,last,10,33,female,R,IMT,2021-07-11_18h06.30.239,ImageRatingTask_S2,2021.1.4,Win32,60.27364234,,,,,,,,,
,,,,,,,,,,,,,,,,,,10,33,female,R,IMT,2021-07-11_18h06.30.239,ImageRatingTask_S2,2021.1.4,Win32,60.27364234,0,37,37,100,1,DreamStudyImages_rs1000x750g/Water/fishingsunset_CROPPED.jpg,,,
,,5,7.5297,2,1.5456,9,1.4716,1,1.1088,7,1.043,0,0,0,0,1,main,10,33,female,R,IMT,2021-07-11_18h06.30.239,ImageRatingTask_S2,2021.1.4,Win32,60.27364234,,,,,,,,,
,,,,,,,,,,,,0,1,1,1,1,second,10,33,female,R,IMT,2021-07-11_18h06.30.239,ImageRatingTask_S2,2021.1.4,Win32,60.27364234,,,,,,,,,
,,,,,,,,,,,,0,2,2,2,1,third,10,33,female,R,IMT,2021-07-11_18h06.30.239,ImageRatingTask_S2,2021.1.4,Win32,60.27364234,,,,,,,,,
,,,,,,,,,,,,0,3,3,3,1,fourth,10,33,female,R,IMT,2021-07-11_18h06.30.239,ImageRatingTask_S2,2021.1.4,Win32,60.27364234,,,,,,,,,
,,,,,,,,,,,,0,4,4,4,1,fifth,10,33,female,R,IMT,2021-07-11_18h06.30.239,ImageRatingTask_S2,2021.1.4,Win32,60.27364234,,,,,,,,,
,,,,,,,,,,,,0,5,5,5,1,sixth,10,33,female,R,IMT,2021-07-11_18h06.30.239,ImageRatingTask_S2,2021.1.4,Win32,60.27364234,,,,,,,,,
,,,,,,,,,,,,0,6,6,6,1,seventh,10,33,female,R,IMT,2021-07-11_18h06.30.239,ImageRatingTask_S2,2021.1.4,Win32,60.27364234,,,,,,,,,
,,,,,,,,,,,,0,7,7,7,1,last,10,33,female,R,IMT,2021-07-11_18h06.30.239,ImageRatingTask_S2,2021.1.4,Win32,60.27364234,,,,,,,,,
,,,,,,,,,,,,,,,,,,10,33,female,R,IMT,2021-07-11_18h06.30.239,ImageRatingTask_S2,2021.1.4,Win32,60.27364234,0,38,38,111,1,DreamStudyImages_rs1000x750g/Vehicles/Objects_284_h.jpg,,,
,,5,2.602,2,1.1745,7,2.5917,1,0.7903,5,1.0127,0,0,0,0,1,main,10,33,female,R,IMT,2021-07-11_18h06.30.239,ImageRatingTask_S2,2021.1.4,Win32,60.27364234,,,,,,,,,
,,,,,,,,,,,,0,1,1,1,1,second,10,33,female,R,IMT,2021-07-11_18h06.30.239,ImageRatingTask_S2,2021.1.4,Win32,60.27364234,,,,,,,,,
,,,,,,,,,,,,0,2,2,2,1,third,10,33,female,R,IMT,2021-07-11_18h06.30.239,ImageRatingTask_S2,2021.1.4,Win32,60.27364234,,,,,,,,,
,,,,,,,,,,,,0,3,3,3,1,fourth,10,33,female,R,IMT,2021-07-11_18h06.30.239,ImageRatingTask_S2,2021.1.4,Win32,60.27364234,,,,,,,,,
,,,,,,,,,,,,0,4,4,4,1,fifth,10,33,female,R,IMT,2021-07-11_18h06.30.239,ImageRatingTask_S2,2021.1.4,Win32,60.27364234,,,,,,,,,
,,,,,,,,,,,,0,5,5,5,1,sixth,10,33,female,R,IMT,2021-07-11_18h06.30.239,ImageRatingTask_S2,2021.1.4,Win32,60.27364234,,,,,,,,,
,,,,,,,,,,,,0,6,6,6,1,seventh,10,33,female,R,IMT,2021-07-11_18h06.30.239,ImageRatingTask_S2,2021.1.4,Win32,60.27364234,,,,,,,,,
,,,,,,,,,,,,0,7,7,7,1,last,10,33,female,R,IMT,2021-07-11_18h06.30.239,ImageRatingTask_S2,2021.1.4,Win32,60.27364234,,,,,,,,,
,,,,,,,,,,,,,,,,,,10,33,female,R,IMT,2021-07-11_18h06.30.239,ImageRatingTask_S2,2021.1.4,Win32,60.27364234,0,39,39,86,1,DreamStudyImages_rs1000x750g/Food/IAPS7352_pizza2.jpg,,,
,,5,2.5587,2,1.0935,9,1.8463,1,0.6225,8,0.7971,0,0,0,0,1,main,10,33,female,R,IMT,2021-07-11_18h06.30.239,ImageRatingTask_S2,2021.1.4,Win32,60.27364234,,,,,,,,,
,,,,,,,,,,,,0,1,1,1,1,second,10,33,female,R,IMT,2021-07-11_18h06.30.239,ImageRatingTask_S2,2021.1.4,Win32,60.27364234,,,,,,,,,
,,,,,,,,,,,,0,2,2,2,1,third,10,33,female,R,IMT,2021-07-11_18h06.30.239,ImageRatingTask_S2,2021.1.4,Win32,60.27364234,,,,,,,,,
,,,,,,,,,,,,0,3,3,3,1,fourth,10,33,female,R,IMT,2021-07-11_18h06.30.239,ImageRatingTask_S2,2021.1.4,Win32,60.27364234,,,,,,,,,
,,,,,,,,,,,,0,4,4,4,1,fifth,10,33,female,R,IMT,2021-07-11_18h06.30.239,ImageRatingTask_S2,2021.1.4,Win32,60.27364234,,,,,,,,,
,,,,,,,,,,,,0,5,5,5,1,sixth,10,33,female,R,IMT,2021-07-11_18h06.30.239,ImageRatingTask_S2,2021.1.4,Win32,60.27364234,,,,,,,,,
,,,,,,,,,,,,0,6,6,6,1,seventh,10,33,female,R,IMT,2021-07-11_18h06.30.239,ImageRatingTask_S2,2021.1.4,Win32,60.27364234,,,,,,,,,
,,,,,,,,,,,,0,7,7,7,1,last,10,33,female,R,IMT,2021-07-11_18h06.30.239,ImageRatingTask_S2,2021.1.4,Win32,60.27364234,,,,,,,,,
,,,,,,,,,,,,,,,,,,10,33,female,R,IMT,2021-07-11_18h06.30.239,ImageRatingTask_S2,2021.1.4,Win32,60.27364234,0,40,40,70,1,DreamStudyImages_rs1000x750g/Water/waterneutral4.jpg,,,
,,9,1.9874,1,0.9795,8,1.8449,1,0.8664,3,1.1111,0,0,0,0,1,main,10,33,female,R,IMT,2021-07-11_18h06.30.239,ImageRatingTask_S2,2021.1.4,Win32,60.27364234,,,,,,,,,
,,,,,,,,,,,,0,1,1,1,1,second,10,33,female,R,IMT,2021-07-11_18h06.30.239,ImageRatingTask_S2,2021.1.4,Win32,60.27364234,,,,,,,,,
,,,,,,,,,,,,0,2,2,2,1,third,10,33,female,R,IMT,2021-07-11_18h06.30.239,ImageRatingTask_S2,2021.1.4,Win32,60.27364234,,,,,,,,,
,,,,,,,,,,,,0,3,3,3,1,fourth,10,33,female,R,IMT,2021-07-11_18h06.30.239,ImageRatingTask_S2,2021.1.4,Win32,60.27364234,,,,,,,,,
,,,,,,,,,,,,0,4,4,4,1,fifth,10,33,female,R,IMT,2021-07-11_18h06.30.239,ImageRatingTask_S2,2021.1.4,Win32,60.27364234,,,,,,,,,
,,,,,,,,,,,,0,5,5,5,1,sixth,10,33,female,R,IMT,2021-07-11_18h06.30.239,ImageRatingTask_S2,2021.1.4,Win32,60.27364234,,,,,,,,,
,,,,,,,,,,,,0,6,6,6,1,seventh,10,33,female,R,IMT,2021-07-11_18h06.30.239,ImageRatingTask_S2,2021.1.4,Win32,60.27364234,,,,,,,,,
,,,,,,,,,,,,0,7,7,7,1,last,10,33,female,R,IMT,2021-07-11_18h06.30.239,ImageRatingTask_S2,2021.1.4,Win32,60.27364234,,,,,,,,,
,,,,,,,,,,,,,,,,,,10,33,female,R,IMT,2021-07-11_18h06.30.239,ImageRatingTask_S2,2021.1.4,Win32,60.27364234,0,41,41,62,1,DreamStudyImages_rs1000x750g/Mammals/Goat 1.jpg,,,
,,6,3.7114,2,1.2263,7,4.1597,1,1.3208,5,0.9844,0,0,0,0,1,main,10,33,female,R,IMT,2021-07-11_18h06.30.239,ImageRatingTask_S2,2021.1.4,Win32,60.27364234,,,,,,,,,
,,,,,,,,,,,,0,1,1,1,1,second,10,33,female,R,IMT,2021-07-11_18h06.30.239,ImageRatingTask_S2,2021.1.4,Win32,60.27364234,,,,,,,,,
,,,,,,,,,,,,0,2,2,2,1,third,10,33,female,R,IMT,2021-07-11_18h06.30.239,ImageRatingTask_S2,2021.1.4,Win32,60.27364234,,,,,,,,,
,,,,,,,,,,,,0,3,3,3,1,fourth,10,33,female,R,IMT,2021-07-11_18h06.30.239,ImageRatingTask_S2,2021.1.4,Win32,60.27364234,,,,,,,,,
,,,,,,,,,,,,0,4,4,4,1,fifth,10,33,female,R,IMT,2021-07-11_18h06.30.239,ImageRatingTask_S2,2021.1.4,Win32,60.27364234,,,,,,,,,
,,,,,,,,,,,,0,5,5,5,1,sixth,10,33,female,R,IMT,2021-07-11_18h06.30.239,ImageRatingTask_S2,2021.1.4,Win32,60.27364234,,,,,,,,,
,,,,,,,,,,,,0,6,6,6,1,seventh,10,33,female,R,IMT,2021-07-11_18h06.30.239,ImageRatingTask_S2,2021.1.4,Win32,60.27364234,,,,,,,,,
,,,,,,,,,,,,0,7,7,7,1,last,10,33,female,R,IMT,2021-07-11_18h06.30.239,ImageRatingTask_S2,2021.1.4,Win32,60.27364234,,,,,,,,,
,,,,,,,,,,,,,,,,,,10,33,female,R,IMT,2021-07-11_18h06.30.239,ImageRatingTask_S2,2021.1.4,Win32,60.27364234,0,42,42,102,1,DreamStudyImages_rs1000x750g/Food/IAPS7402_pastries2.jpg,,,
,,1,1.8284,9,0.8739,8,1.1725,1,1.0106,3,1.2501,0,0,0,0,1,main,10,33,female,R,IMT,2021-07-11_18h06.30.239,ImageRatingTask_S2,2021.1.4,Win32,60.27364234,,,,,,,,,
,,,,,,,,,,,,0,1,1,1,1,second,10,33,female,R,IMT,2021-07-11_18h06.30.239,ImageRatingTask_S2,2021.1.4,Win32,60.27364234,,,,,,,,,
,,,,,,,,,,,,0,2,2,2,1,third,10,33,female,R,IMT,2021-07-11_18h06.30.239,ImageRatingTask_S2,2021.1.4,Win32,60.27364234,,,,,,,,,
,,,,,,,,,,,,0,3,3,3,1,fourth,10,33,female,R,IMT,2021-07-11_18h06.30.239,ImageRatingTask_S2,2021.1.4,Win32,60.27364234,,,,,,,,,
,,,,,,,,,,,,0,4,4,4,1,fifth,10,33,female,R,IMT,2021-07-11_18h06.30.239,ImageRatingTask_S2,2021.1.4,Win32,60.27364234,,,,,,,,,
,,,,,,,,,,,,0,5,5,5,1,sixth,10,33,female,R,IMT,2021-07-11_18h06.30.239,ImageRatingTask_S2,2021.1.4,Win32,60.27364234,,,,,,,,,
,,,,,,,,,,,,0,6,6,6,1,seventh,10,33,female,R,IMT,2021-07-11_18h06.30.239,ImageRatingTask_S2,2021.1.4,Win32,60.27364234,,,,,,,,,
,,,,,,,,,,,,0,7,7,7,1,last,10,33,female,R,IMT,2021-07-11_18h06.30.239,ImageRatingTask_S2,2021.1.4,Win32,60.27364234,,,,,,,,,
,,,,,,,,,,,,,,,,,,10,33,female,R,IMT,2021-07-11_18h06.30.239,ImageRatingTask_S2,2021.1.4,Win32,60.27364234,0,43,43,77,1,DreamStudyImages_rs1000x750g/Mammals/Dog 31.jpg,,,
,,5,3.4237,5,2.4437,9,2.7967,1,2.3798,7,0.874,0,0,0,0,1,main,10,33,female,R,IMT,2021-07-11_18h06.30.239,ImageRatingTask_S2,2021.1.4,Win32,60.27364234,,,,,,,,,
,,,,,,,,,,,,0,1,1,1,1,second,10,33,female,R,IMT,2021-07-11_18h06.30.239,ImageRatingTask_S2,2021.1.4,Win32,60.27364234,,,,,,,,,
,,,,,,,,,,,,0,2,2,2,1,third,10,33,female,R,IMT,2021-07-11_18h06.30.239,ImageRatingTask_S2,2021.1.4,Win32,60.27364234,,,,,,,,,
,,,,,,,,,,,,0,3,3,3,1,fourth,10,33,female,R,IMT,2021-07-11_18h06.30.239,ImageRatingTask_S2,2021.1.4,Win32,60.27364234,,,,,,,,,
,,,,,,,,,,,,0,4,4,4,1,fifth,10,33,female,R,IMT,2021-07-11_18h06.30.239,ImageRatingTask_S2,2021.1.4,Win32,60.27364234,,,,,,,,,
,,,,,,,,,,,,0,5,5,5,1,sixth,10,33,female,R,IMT,2021-07-11_18h06.30.239,ImageRatingTask_S2,2021.1.4,Win32,60.27364234,,,,,,,,,
,,,,,,,,,,,,0,6,6,6,1,seventh,10,33,female,R,IMT,2021-07-11_18h06.30.239,ImageRatingTask_S2,2021.1.4,Win32,60.27364234,,,,,,,,,
,,,,,,,,,,,,0,7,7,7,1,last,10,33,female,R,IMT,2021-07-11_18h06.30.239,ImageRatingTask_S2,2021.1.4,Win32,60.27364234,,,,,,,,,
,,,,,,,,,,,,,,,,,,10,33,female,R,IMT,2021-07-11_18h06.30.239,ImageRatingTask_S2,2021.1.4,Win32,60.27364234,0,44,44,61,1,DreamStudyImages_rs1000x750g/Vehicles/Objects_298_h.jpg,,,
,,1,2.2465,9,0.3901,9,1.3897,1,2.9262,3,0.7913,0,0,0,0,1,main,10,33,female,R,IMT,2021-07-11_18h06.30.239,ImageRatingTask_S2,2021.1.4,Win32,60.27364234,,,,,,,,,
,,,,,,,,,,,,0,1,1,1,1,second,10,33,female,R,IMT,2021-07-11_18h06.30.239,ImageRatingTask_S2,2021.1.4,Win32,60.27364234,,,,,,,,,
,,,,,,,,,,,,0,2,2,2,1,third,10,33,female,R,IMT,2021-07-11_18h06.30.239,ImageRatingTask_S2,2021.1.4,Win32,60.27364234,,,,,,,,,
,,,,,,,,,,,,0,3,3,3,1,fourth,10,33,female,R,IMT,2021-07-11_18h06.30.239,ImageRatingTask_S2,2021.1.4,Win32,60.27364234,,,,,,,,,
,,,,,,,,,,,,0,4,4,4,1,fifth,10,33,female,R,IMT,2021-07-11_18h06.30.239,ImageRatingTask_S2,2021.1.4,Win32,60.27364234,,,,,,,,,
,,,,,,,,,,,,0,5,5,5,1,sixth,10,33,female,R,IMT,2021-07-11_18h06.30.239,ImageRatingTask_S2,2021.1.4,Win32,60.27364234,,,,,,,,,
,,,,,,,,,,,,0,6,6,6,1,seventh,10,33,female,R,IMT,2021-07-11_18h06.30.239,ImageRatingTask_S2,2021.1.4,Win32,60.27364234,,,,,,,,,
,,,,,,,,,,,,0,7,7,7,1,last,10,33,female,R,IMT,2021-07-11_18h06.30.239,ImageRatingTask_S2,2021.1.4,Win32,60.27364234,,,,,,,,,
,,,,,,,,,,,,,,,,,,10,33,female,R,IMT,2021-07-11_18h06.30.239,ImageRatingTask_S2,2021.1.4,Win32,60.27364234,0,45,45,45,1,DreamStudyImages_rs1000x750g/Mammals/Animals_078_h.jpg,,,
,,9,2.123,1,0.6549,9,0.8643,1,0.93,6,1.0889,0,0,0,0,1,main,10,33,female,R,IMT,2021-07-11_18h06.30.239,ImageRatingTask_S2,2021.1.4,Win32,60.27364234,,,,,,,,,
,,,,,,,,,,,,0,1,1,1,1,second,10,33,female,R,IMT,2021-07-11_18h06.30.239,ImageRatingTask_S2,2021.1.4,Win32,60.27364234,,,,,,,,,
,,,,,,,,,,,,0,2,2,2,1,third,10,33,female,R,IMT,2021-07-11_18h06.30.239,ImageRatingTask_S2,2021.1.4,Win32,60.27364234,,,,,,,,,
,,,,,,,,,,,,0,3,3,3,1,fourth,10,33,female,R,IMT,2021-07-11_18h06.30.239,ImageRatingTask_S2,2021.1.4,Win32,60.27364234,,,,,,,,,
,,,,,,,,,,,,0,4,4,4,1,fifth,10,33,female,R,IMT,2021-07-11_18h06.30.239,ImageRatingTask_S2,2021.1.4,Win32,60.27364234,,,,,,,,,
,,,,,,,,,,,,0,5,5,5,1,sixth,10,33,female,R,IMT,2021-07-11_18h06.30.239,ImageRatingTask_S2,2021.1.4,Win32,60.27364234,,,,,,,,,
,,,,,,,,,,,,0,6,6,6,1,seventh,10,33,female,R,IMT,2021-07-11_18h06.30.239,ImageRatingTask_S2,2021.1.4,Win32,60.27364234,,,,,,,,,
,,,,,,,,,,,,0,7,7,7,1,last,10,33,female,R,IMT,2021-07-11_18h06.30.239,ImageRatingTask_S2,2021.1.4,Win32,60.27364234,,,,,,,,,
,,,,,,,,,,,,,,,,,,10,33,female,R,IMT,2021-07-11_18h06.30.239,ImageRatingTask_S2,2021.1.4,Win32,60.27364234,0,46,46,116,1,DreamStudyImages_rs1000x750g/Houses/Building 2.jpg,,,
,,5,1.8362,2,1.2947,8,1.9146,1,1.5192,7,0.6967,0,0,0,0,1,main,10,33,female,R,IMT,2021-07-11_18h06.30.239,ImageRatingTask_S2,2021.1.4,Win32,60.27364234,,,,,,,,,
,,,,,,,,,,,,0,1,1,1,1,second,10,33,female,R,IMT,2021-07-11_18h06.30.239,ImageRatingTask_S2,2021.1.4,Win32,60.27364234,,,,,,,,,
,,,,,,,,,,,,0,2,2,2,1,third,10,33,female,R,IMT,2021-07-11_18h06.30.239,ImageRatingTask_S2,2021.1.4,Win32,60.27364234,,,,,,,,,
,,,,,,,,,,,,0,3,3,3,1,fourth,10,33,female,R,IMT,2021-07-11_18h06.30.239,ImageRatingTask_S2,2021.1.4,Win32,60.27364234,,,,,,,,,
,,,,,,,,,,,,0,4,4,4,1,fifth,10,33,female,R,IMT,2021-07-11_18h06.30.239,ImageRatingTask_S2,2021.1.4,Win32,60.27364234,,,,,,,,,
,,,,,,,,,,,,0,5,5,5,1,sixth,10,33,female,R,IMT,2021-07-11_18h06.30.239,ImageRatingTask_S2,2021.1.4,Win32,60.27364234,,,,,,,,,
,,,,,,,,,,,,0,6,6,6,1,seventh,10,33,female,R,IMT,2021-07-11_18h06.30.239,ImageRatingTask_S2,2021.1.4,Win32,60.27364234,,,,,,,,,
,,,,,,,,,,,,0,7,7,7,1,last,10,33,female,R,IMT,2021-07-11_18h06.30.239,ImageRatingTask_S2,2021.1.4,Win32,60.27364234,,,,,,,,,
,,,,,,,,,,,,,,,,,,10,33,female,R,IMT,2021-07-11_18h06.30.239,ImageRatingTask_S2,2021.1.4,Win32,60.27364234,0,47,47,91,1,DreamStudyImages_rs1000x750g/Vehicles/Car race 2.jpg,,,
,,3,2.7785,6,1.4551,7,1.5084,2,5.5898,2,2.6115,0,0,0,0,1,main,10,33,female,R,IMT,2021-07-11_18h06.30.239,ImageRatingTask_S2,2021.1.4,Win32,60.27364234,,,,,,,,,
,,,,,,,,,,1,0.6331,0,1,1,1,1,second,10,33,female,R,IMT,2021-07-11_18h06.30.239,ImageRatingTask_S2,2021.1.4,Win32,60.27364234,,,,,,,,,
,,,,,,,,,,,,0,2,2,2,1,third,10,33,female,R,IMT,2021-07-11_18h06.30.239,ImageRatingTask_S2,2021.1.4,Win32,60.27364234,,,,,,,,,
,,,,,,,,,,,,0,3,3,3,1,fourth,10,33,female,R,IMT,2021-07-11_18h06.30.239,ImageRatingTask_S2,2021.1.4,Win32,60.27364234,,,,,,,,,
,,,,,,,,,,,,0,4,4,4,1,fifth,10,33,female,R,IMT,2021-07-11_18h06.30.239,ImageRatingTask_S2,2021.1.4,Win32,60.27364234,,,,,,,,,
,,,,,,,,,,,,0,5,5,5,1,sixth,10,33,female,R,IMT,2021-07-11_18h06.30.239,ImageRatingTask_S2,2021.1.4,Win32,60.27364234,,,,,,,,,
,,,,,,,,,,,,0,6,6,6,1,seventh,10,33,female,R,IMT,2021-07-11_18h06.30.239,ImageRatingTask_S2,2021.1.4,Win32,60.27364234,,,,,,,,,
,,,,,,,,,,,,0,7,7,7,1,last,10,33,female,R,IMT,2021-07-11_18h06.30.239,ImageRatingTask_S2,2021.1.4,Win32,60.27364234,,,,,,,,,
,,,,,,,,,,,,,,,,,,10,33,female,R,IMT,2021-07-11_18h06.30.239,ImageRatingTask_S2,2021.1.4,Win32,60.27364234,0,48,48,142,1,DreamStudyImages_rs1000x750g/Children/IAPS3280_boy14_humans.jpg,,,
,,7,3.5928,4,2.1597,9,2.1127,1,2.202,3,0.9974,0,0,0,0,1,main,10,33,female,R,IMT,2021-07-11_18h06.30.239,ImageRatingTask_S2,2021.1.4,Win32,60.27364234,,,,,,,,,
,,,,,,,,,,,,0,1,1,1,1,second,10,33,female,R,IMT,2021-07-11_18h06.30.239,ImageRatingTask_S2,2021.1.4,Win32,60.27364234,,,,,,,,,
,,,,,,,,,,,,0,2,2,2,1,third,10,33,female,R,IMT,2021-07-11_18h06.30.239,ImageRatingTask_S2,2021.1.4,Win32,60.27364234,,,,,,,,,
,,,,,,,,,,,,0,3,3,3,1,fourth,10,33,female,R,IMT,2021-07-11_18h06.30.239,ImageRatingTask_S2,2021.1.4,Win32,60.27364234,,,,,,,,,
,,,,,,,,,,,,0,4,4,4,1,fifth,10,33,female,R,IMT,2021-07-11_18h06.30.239,ImageRatingTask_S2,2021.1.4,Win32,60.27364234,,,,,,,,,
,,,,,,,,,,,,0,5,5,5,1,sixth,10,33,female,R,IMT,2021-07-11_18h06.30.239,ImageRatingTask_S2,2021.1.4,Win32,60.27364234,,,,,,,,,
,,,,,,,,,,,,0,6,6,6,1,seventh,10,33,female,R,IMT,2021-07-11_18h06.30.239,ImageRatingTask_S2,2021.1.4,Win32,60.27364234,,,,,,,,,
,,,,,,,,,,,,0,7,7,7,1,last,10,33,female,R,IMT,2021-07-11_18h06.30.239,ImageRatingTask_S2,2021.1.4,Win32,60.27364234,,,,,,,,,
,,,,,,,,,,,,,,,,,,10,33,female,R,IMT,2021-07-11_18h06.30.239,ImageRatingTask_S2,2021.1.4,Win32,60.27364234,0,49,49,32,1,DreamStudyImages_rs1000x750g/Mammals/Lion 1.jpg,,,
,,5,3.5437,2,1.677,9,7.6546,1,1.1861,8,0.6264,0,0,0,0,1,main,10,33,female,R,IMT,2021-07-11_18h06.30.239,ImageRatingTask_S2,2021.1.4,Win32,60.27364234,,,,,,,,,
,,,,,,,,,,,,0,1,1,1,1,second,10,33,female,R,IMT,2021-07-11_18h06.30.239,ImageRatingTask_S2,2021.1.4,Win32,60.27364234,,,,,,,,,
,,,,,,,,,,,,0,2,2,2,1,third,10,33,female,R,IMT,2021-07-11_18h06.30.239,ImageRatingTask_S2,2021.1.4,Win32,60.27364234,,,,,,,,,
,,,,,,,,,,,,0,3,3,3,1,fourth,10,33,female,R,IMT,2021-07-11_18h06.30.239,ImageRatingTask_S2,2021.1.4,Win32,60.27364234,,,,,,,,,
,,,,,,,,,,,,0,4,4,4,1,fifth,10,33,female,R,IMT,2021-07-11_18h06.30.239,ImageRatingTask_S2,2021.1.4,Win32,60.27364234,,,,,,,,,
,,,,,,,,,,,,0,5,5,5,1,sixth,10,33,female,R,IMT,2021-07-11_18h06.30.239,ImageRatingTask_S2,2021.1.4,Win32,60.27364234,,,,,,,,,
,,,,,,,,,,,,0,6,6,6,1,seventh,10,33,female,R,IMT,2021-07-11_18h06.30.239,ImageRatingTask_S2,2021.1.4,Win32,60.27364234,,,,,,,,,
,,,,,,,,,,,,0,7,7,7,1,last,10,33,female,R,IMT,2021-07-11_18h06.30.239,ImageRatingTask_S2,2021.1.4,Win32,60.27364234,,,,,,,,,
,,,,,,,,,,,,,,,,,,10,33,female,R,IMT,2021-07-11_18h06.30.239,ImageRatingTask_S2,2021.1.4,Win32,60.27364234,0,50,50,131,1,DreamStudyImages_rs1000x750g/Water/Rainbow 2.jpg,,,
,,9,2.4946,1,0.8294,9,0.9466,1,3.1957,3,1.4427,0,0,0,0,1,main,10,33,female,R,IMT,2021-07-11_18h06.30.239,ImageRatingTask_S2,2021.1.4,Win32,60.27364234,,,,,,,,,
,,,,,,,,,,,,0,1,1,1,1,second,10,33,female,R,IMT,2021-07-11_18h06.30.239,ImageRatingTask_S2,2021.1.4,Win32,60.27364234,,,,,,,,,
,,,,,,,,,,,,0,2,2,2,1,third,10,33,female,R,IMT,2021-07-11_18h06.30.239,ImageRatingTask_S2,2021.1.4,Win32,60.27364234,,,,,,,,,
,,,,,,,,,,,,0,3,3,3,1,fourth,10,33,female,R,IMT,2021-07-11_18h06.30.239,ImageRatingTask_S2,2021.1.4,Win32,60.27364234,,,,,,,,,
,,,,,,,,,,,,0,4,4,4,1,fifth,10,33,female,R,IMT,2021-07-11_18h06.30.239,ImageRatingTask_S2,2021.1.4,Win32,60.27364234,,,,,,,,,
,,,,,,,,,,,,0,5,5,5,1,sixth,10,33,female,R,IMT,2021-07-11_18h06.30.239,ImageRatingTask_S2,2021.1.4,Win32,60.27364234,,,,,,,,,
,,,,,,,,,,,,0,6,6,6,1,seventh,10,33,female,R,IMT,2021-07-11_18h06.30.239,ImageRatingTask_S2,2021.1.4,Win32,60.27364234,,,,,,,,,
,,,,,,,,,,,,0,7,7,7,1,last,10,33,female,R,IMT,2021-07-11_18h06.30.239,ImageRatingTask_S2,2021.1.4,Win32,60.27364234,,,,,,,,,
,,,,,,,,,,,,,,,,,,10,33,female,R,IMT,2021-07-11_18h06.30.239,ImageRatingTask_S2,2021.1.4,Win32,60.27364234,0,51,51,63,1,DreamStudyImages_rs1000x750g/Mammals/Chipmunk 2.jpg,,,
,,9,1.1736,1,0.5278,9,1.2835,1,1.9954,8,0.5852,0,0,0,0,1,main,10,33,female,R,IMT,2021-07-11_18h06.30.239,ImageRatingTask_S2,2021.1.4,Win32,60.27364234,,,,,,,,,
,,,,,,,,,,,,0,1,1,1,1,second,10,33,female,R,IMT,2021-07-11_18h06.30.239,ImageRatingTask_S2,2021.1.4,Win32,60.27364234,,,,,,,,,
,,,,,,,,,,,,0,2,2,2,1,third,10,33,female,R,IMT,2021-07-11_18h06.30.239,ImageRatingTask_S2,2021.1.4,Win32,60.27364234,,,,,,,,,
,,,,,,,,,,,,0,3,3,3,1,fourth,10,33,female,R,IMT,2021-07-11_18h06.30.239,ImageRatingTask_S2,2021.1.4,Win32,60.27364234,,,,,,,,,
,,,,,,,,,,,,0,4,4,4,1,fifth,10,33,female,R,IMT,2021-07-11_18h06.30.239,ImageRatingTask_S2,2021.1.4,Win32,60.27364234,,,,,,,,,
,,,,,,,,,,,,0,5,5,5,1,sixth,10,33,female,R,IMT,2021-07-11_18h06.30.239,ImageRatingTask_S2,2021.1.4,Win32,60.27364234,,,,,,,,,
,,,,,,,,,,,,0,6,6,6,1,seventh,10,33,female,R,IMT,2021-07-11_18h06.30.239,ImageRatingTask_S2,2021.1.4,Win32,60.27364234,,,,,,,,,
,,,,,,,,,,,,0,7,7,7,1,last,10,33,female,R,IMT,2021-07-11_18h06.30.239,ImageRatingTask_S2,2021.1.4,Win32,60.27364234,,,,,,,,,
,,,,,,,,,,,,,,,,,,10,33,female,R,IMT,2021-07-11_18h06.30.239,ImageRatingTask_S2,2021.1.4,Win32,60.27364234,0,52,52,9,1,DreamStudyImages_rs1000x750g/Water/NDPS122_bluelake.jpg,,,
,,3,1.9093,6,1.1455,9,4.5787,1,3.094,7,0.865,0,0,0,0,1,main,10,33,female,R,IMT,2021-07-11_18h06.30.239,ImageRatingTask_S2,2021.1.4,Win32,60.27364234,,,,,,,,,
,,,,,,,,,,,,0,1,1,1,1,second,10,33,female,R,IMT,2021-07-11_18h06.30.239,ImageRatingTask_S2,2021.1.4,Win32,60.27364234,,,,,,,,,
,,,,,,,,,,,,0,2,2,2,1,third,10,33,female,R,IMT,2021-07-11_18h06.30.239,ImageRatingTask_S2,2021.1.4,Win32,60.27364234,,,,,,,,,
,,,,,,,,,,,,0,3,3,3,1,fourth,10,33,female,R,IMT,2021-07-11_18h06.30.239,ImageRatingTask_S2,2021.1.4,Win32,60.27364234,,,,,,,,,
,,,,,,,,,,,,0,4,4,4,1,fifth,10,33,female,R,IMT,2021-07-11_18h06.30.239,ImageRatingTask_S2,2021.1.4,Win32,60.27364234,,,,,,,,,
,,,,,,,,,,,,0,5,5,5,1,sixth,10,33,female,R,IMT,2021-07-11_18h06.30.239,ImageRatingTask_S2,2021.1.4,Win32,60.27364234,,,,,,,,,
,,,,,,,,,,,,0,6,6,6,1,seventh,10,33,female,R,IMT,2021-07-11_18h06.30.239,ImageRatingTask_S2,2021.1.4,Win32,60.27364234,,,,,,,,,
,,,,,,,,,,,,0,7,7,7,1,last,10,33,female,R,IMT,2021-07-11_18h06.30.239,ImageRatingTask_S2,2021.1.4,Win32,60.27364234,,,,,,,,,
,,,,,,,,,,,,,,,,,,10,33,female,R,IMT,2021-07-11_18h06.30.239,ImageRatingTask_S2,2021.1.4,Win32,60.27364234,0,53,53,132,1,DreamStudyImages_rs1000x750g/Vehicles/Car crash 1.jpg,,,
,,8,6.9265,3,1.3789,9,1.5637,1,3.4501,2,0.6782,0,0,0,0,1,main,10,33,female,R,IMT,2021-07-11_18h06.30.239,ImageRatingTask_S2,2021.1.4,Win32,60.27364234,,,,,,,,,
,,,,,,,,,,,,0,1,1,1,1,second,10,33,female,R,IMT,2021-07-11_18h06.30.239,ImageRatingTask_S2,2021.1.4,Win32,60.27364234,,,,,,,,,
,,,,,,,,,,,,0,2,2,2,1,third,10,33,female,R,IMT,2021-07-11_18h06.30.239,ImageRatingTask_S2,2021.1.4,Win32,60.27364234,,,,,,,,,
,,,,,,,,,,,,0,3,3,3,1,fourth,10,33,female,R,IMT,2021-07-11_18h06.30.239,ImageRatingTask_S2,2021.1.4,Win32,60.27364234,,,,,,,,,
,,,,,,,,,,,,0,4,4,4,1,fifth,10,33,female,R,IMT,2021-07-11_18h06.30.239,ImageRatingTask_S2,2021.1.4,Win32,60.27364234,,,,,,,,,
,,,,,,,,,,,,0,5,5,5,1,sixth,10,33,female,R,IMT,2021-07-11_18h06.30.239,ImageRatingTask_S2,2021.1.4,Win32,60.27364234,,,,,,,,,
,,,,,,,,,,,,0,6,6,6,1,seventh,10,33,female,R,IMT,2021-07-11_18h06.30.239,ImageRatingTask_S2,2021.1.4,Win32,60.27364234,,,,,,,,,
,,,,,,,,,,,,0,7,7,7,1,last,10,33,female,R,IMT,2021-07-11_18h06.30.239,ImageRatingTask_S2,2021.1.4,Win32,60.27364234,,,,,,,,,
,,,,,,,,,,,,,,,,,,10,33,female,R,IMT,2021-07-11_18h06.30.239,ImageRatingTask_S2,2021.1.4,Win32,60.27364234,0,54,54,129,1,DreamStudyImages_rs1000x750g/Children/Siblings 1.jpg,,,
,,9,1.6845,1,1.479,9,1.5724,1,1.2944,8,0.6154,0,0,0,0,1,main,10,33,female,R,IMT,2021-07-11_18h06.30.239,ImageRatingTask_S2,2021.1.4,Win32,60.27364234,,,,,,,,,
,,,,,,,,,,,,0,1,1,1,1,second,10,33,female,R,IMT,2021-07-11_18h06.30.239,ImageRatingTask_S2,2021.1.4,Win32,60.27364234,,,,,,,,,
,,,,,,,,,,,,0,2,2,2,1,third,10,33,female,R,IMT,2021-07-11_18h06.30.239,ImageRatingTask_S2,2021.1.4,Win32,60.27364234,,,,,,,,,
,,,,,,,,,,,,0,3,3,3,1,fourth,10,33,female,R,IMT,2021-07-11_18h06.30.239,ImageRatingTask_S2,2021.1.4,Win32,60.27364234,,,,,,,,,
,,,,,,,,,,,,0,4,4,4,1,fifth,10,33,female,R,IMT,2021-07-11_18h06.30.239,ImageRatingTask_S2,2021.1.4,Win32,60.27364234,,,,,,,,,
,,,,,,,,,,,,0,5,5,5,1,sixth,10,33,female,R,IMT,2021-07-11_18h06.30.239,ImageRatingTask_S2,2021.1.4,Win32,60.27364234,,,,,,,,,
,,,,,,,,,,,,0,6,6,6,1,seventh,10,33,female,R,IMT,2021-07-11_18h06.30.239,ImageRatingTask_S2,2021.1.4,Win32,60.27364234,,,,,,,,,
,,,,,,,,,,,,0,7,7,7,1,last,10,33,female,R,IMT,2021-07-11_18h06.30.239,ImageRatingTask_S2,2021.1.4,Win32,60.27364234,,,,,,,,,
,,,,,,,,,,,,,,,,,,10,33,female,R,IMT,2021-07-11_18h06.30.239,ImageRatingTask_S2,2021.1.4,Win32,60.27364234,0,55,55,50,1,DreamStudyImages_rs1000x750g/Water/Landscapes_115_v.jpg,,,
,,9,1.6012,1,0.9396,9,1.6791,1,0.9014,8,0.5811,0,0,0,0,1,main,10,33,female,R,IMT,2021-07-11_18h06.30.239,ImageRatingTask_S2,2021.1.4,Win32,60.27364234,,,,,,,,,
,,,,,,,,,,,,0,1,1,1,1,second,10,33,female,R,IMT,2021-07-11_18h06.30.239,ImageRatingTask_S2,2021.1.4,Win32,60.27364234,,,,,,,,,
,,,,,,,,,,,,0,2,2,2,1,third,10,33,female,R,IMT,2021-07-11_18h06.30.239,ImageRatingTask_S2,2021.1.4,Win32,60.27364234,,,,,,,,,
,,,,,,,,,,,,0,3,3,3,1,fourth,10,33,female,R,IMT,2021-07-11_18h06.30.239,ImageRatingTask_S2,2021.1.4,Win32,60.27364234,,,,,,,,,
,,,,,,,,,,,,0,4,4,4,1,fifth,10,33,female,R,IMT,2021-07-11_18h06.30.239,ImageRatingTask_S2,2021.1.4,Win32,60.27364234,,,,,,,,,
,,,,,,,,,,,,0,5,5,5,1,sixth,10,33,female,R,IMT,2021-07-11_18h06.30.239,ImageRatingTask_S2,2021.1.4,Win32,60.27364234,,,,,,,,,
,,,,,,,,,,,,0,6,6,6,1,seventh,10,33,female,R,IMT,2021-07-11_18h06.30.239,ImageRatingTask_S2,2021.1.4,Win32,60.27364234,,,,,,,,,
,,,,,,,,,,,,0,7,7,7,1,last,10,33,female,R,IMT,2021-07-11_18h06.30.239,ImageRatingTask_S2,2021.1.4,Win32,60.27364234,,,,,,,,,
,,,,,,,,,,,,,,,,,,10,33,female,R,IMT,2021-07-11_18h06.30.239,ImageRatingTask_S2,2021.1.4,Win32,60.27364234,0,56,56,21,1,DreamStudyImages_rs1000x750g/Water/Landscapes_009_h.jpg,,,
,,9,1.6955,1,0.3255,9,1.3436,1,0.7365,3,0.9387,0,0,0,0,1,main,10,33,female,R,IMT,2021-07-11_18h06.30.239,ImageRatingTask_S2,2021.1.4,Win32,60.27364234,,,,,,,,,
,,,,,,,,,,,,0,1,1,1,1,second,10,33,female,R,IMT,2021-07-11_18h06.30.239,ImageRatingTask_S2,2021.1.4,Win32,60.27364234,,,,,,,,,
,,,,,,,,,,,,0,2,2,2,1,third,10,33,female,R,IMT,2021-07-11_18h06.30.239,ImageRatingTask_S2,2021.1.4,Win32,60.27364234,,,,,,,,,
,,,,,,,,,,,,0,3,3,3,1,fourth,10,33,female,R,IMT,2021-07-11_18h06.30.239,ImageRatingTask_S2,2021.1.4,Win32,60.27364234,,,,,,,,,
,,,,,,,,,,,,0,4,4,4,1,fifth,10,33,female,R,IMT,2021-07-11_18h06.30.239,ImageRatingTask_S2,2021.1.4,Win32,60.27364234,,,,,,,,,
,,,,,,,,,,,,0,5,5,5,1,sixth,10,33,female,R,IMT,2021-07-11_18h06.30.239,ImageRatingTask_S2,2021.1.4,Win32,60.27364234,,,,,,,,,
,,,,,,,,,,,,0,6,6,6,1,seventh,10,33,female,R,IMT,2021-07-11_18h06.30.239,ImageRatingTask_S2,2021.1.4,Win32,60.27364234,,,,,,,,,
,,,,,,,,,,,,0,7,7,7,1,last,10,33,female,R,IMT,2021-07-11_18h06.30.239,ImageRatingTask_S2,2021.1.4,Win32,60.27364234,,,,,,,,,
,,,,,,,,,,,,,,,,,,10,33,female,R,IMT,2021-07-11_18h06.30.239,ImageRatingTask_S2,2021.1.4,Win32,60.27364234,0,57,57,14,1,DreamStudyImages_rs1000x750g/Mammals/Animals_133_h.jpg,,,
,,9,2.0588,1,1.208,9,3.6903,1,2.0149,3,0.9659,0,0,0,0,1,main,10,33,female,R,IMT,2021-07-11_18h06.30.239,ImageRatingTask_S2,2021.1.4,Win32,60.27364234,,,,,,,,,
,,,,,,,,,,,,0,1,1,1,1,second,10,33,female,R,IMT,2021-07-11_18h06.30.239,ImageRatingTask_S2,2021.1.4,Win32,60.27364234,,,,,,,,,
,,,,,,,,,,,,0,2,2,2,1,third,10,33,female,R,IMT,2021-07-11_18h06.30.239,ImageRatingTask_S2,2021.1.4,Win32,60.27364234,,,,,,,,,
,,,,,,,,,,,,0,3,3,3,1,fourth,10,33,female,R,IMT,2021-07-11_18h06.30.239,ImageRatingTask_S2,2021.1.4,Win32,60.27364234,,,,,,,,,
,,,,,,,,,,,,0,4,4,4,1,fifth,10,33,female,R,IMT,2021-07-11_18h06.30.239,ImageRatingTask_S2,2021.1.4,Win32,60.27364234,,,,,,,,,
,,,,,,,,,,,,0,5,5,5,1,sixth,10,33,female,R,IMT,2021-07-11_18h06.30.239,ImageRatingTask_S2,2021.1.4,Win32,60.27364234,,,,,,,,,
,,,,,,,,,,,,0,6,6,6,1,seventh,10,33,female,R,IMT,2021-07-11_18h06.30.239,ImageRatingTask_S2,2021.1.4,Win32,60.27364234,,,,,,,,,
,,,,,,,,,,,,0,7,7,7,1,last,10,33,female,R,IMT,2021-07-11_18h06.30.239,ImageRatingTask_S2,2021.1.4,Win32,60.27364234,,,,,,,,,
,,,,,,,,,,,,,,,,,,10,33,female,R,IMT,2021-07-11_18h06.30.239,ImageRatingTask_S2,2021.1.4,Win32,60.27364234,0,58,58,101,1,DreamStudyImages_rs1000x750g/Mammals/Horse 1.jpg,,,
,,8,2.9456,3,1.611,9,2.3617,1,0.9097,3,0.8962,0,0,0,0,1,main,10,33,female,R,IMT,2021-07-11_18h06.30.239,ImageRatingTask_S2,2021.1.4,Win32,60.27364234,,,,,,,,,
,,,,,,,,,,,,0,1,1,1,1,second,10,33,female,R,IMT,2021-07-11_18h06.30.239,ImageRatingTask_S2,2021.1.4,Win32,60.27364234,,,,,,,,,
,,,,,,,,,,,,0,2,2,2,1,third,10,33,female,R,IMT,2021-07-11_18h06.30.239,ImageRatingTask_S2,2021.1.4,Win32,60.27364234,,,,,,,,,
,,,,,,,,,,,,0,3,3,3,1,fourth,10,33,female,R,IMT,2021-07-11_18h06.30.239,ImageRatingTask_S2,2021.1.4,Win32,60.27364234,,,,,,,,,
,,,,,,,,,,,,0,4,4,4,1,fifth,10,33,female,R,IMT,2021-07-11_18h06.30.239,ImageRatingTask_S2,2021.1.4,Win32,60.27364234,,,,,,,,,
,,,,,,,,,,,,0,5,5,5,1,sixth,10,33,female,R,IMT,2021-07-11_18h06.30.239,ImageRatingTask_S2,2021.1.4,Win32,60.27364234,,,,,,,,,
,,,,,,,,,,,,0,6,6,6,1,seventh,10,33,female,R,IMT,2021-07-11_18h06.30.239,ImageRatingTask_S2,2021.1.4,Win32,60.27364234,,,,,,,,,
,,,,,,,,,,,,0,7,7,7,1,last,10,33,female,R,IMT,2021-07-11_18h06.30.239,ImageRatingTask_S2,2021.1.4,Win32,60.27364234,,,,,,,,,
,,,,,,,,,,,,,,,,,,10,33,female,R,IMT,2021-07-11_18h06.30.239,ImageRatingTask_S2,2021.1.4,Win32,60.27364234,0,59,59,119,1,DreamStudyImages_rs1000x750g/Mammals/Animals_196_h.jpg,,,
,,3,3.6271,7,1.5583,9,1.778,1,2.1638,2,1.5178,0,0,0,0,1,main,10,33,female,R,IMT,2021-07-11_18h06.30.239,ImageRatingTask_S2,2021.1.4,Win32,60.27364234,,,,,,,,,
,,,,,,,,,,,,0,1,1,1,1,second,10,33,female,R,IMT,2021-07-11_18h06.30.239,ImageRatingTask_S2,2021.1.4,Win32,60.27364234,,,,,,,,,
,,,,,,,,,,,,0,2,2,2,1,third,10,33,female,R,IMT,2021-07-11_18h06.30.239,ImageRatingTask_S2,2021.1.4,Win32,60.27364234,,,,,,,,,
,,,,,,,,,,,,0,3,3,3,1,fourth,10,33,female,R,IMT,2021-07-11_18h06.30.239,ImageRatingTask_S2,2021.1.4,Win32,60.27364234,,,,,,,,,
,,,,,,,,,,,,0,4,4,4,1,fifth,10,33,female,R,IMT,2021-07-11_18h06.30.239,ImageRatingTask_S2,2021.1.4,Win32,60.27364234,,,,,,,,,
,,,,,,,,,,,,0,5,5,5,1,sixth,10,33,female,R,IMT,2021-07-11_18h06.30.239,ImageRatingTask_S2,2021.1.4,Win32,60.27364234,,,,,,,,,
,,,,,,,,,,,,0,6,6,6,1,seventh,10,33,female,R,IMT,2021-07-11_18h06.30.239,ImageRatingTask_S2,2021.1.4,Win32,60.27364234,,,,,,,,,
,,,,,,,,,,,,0,7,7,7,1,last,10,33,female,R,IMT,2021-07-11_18h06.30.239,ImageRatingTask_S2,2021.1.4,Win32,60.27364234,,,,,,,,,
,,,,,,,,,,,,,,,,,,10,33,female,R,IMT,2021-07-11_18h06.30.239,ImageRatingTask_S2,2021.1.4,Win32,60.27364234,0,60,60,147,1,DreamStudyImages_rs1000x750g/Children/Faces_019_h.jpg,,,
,,1,1.6695,8,1.2951,8,2.1298,1,0.7265,1,2.4472,0,0,0,0,1,main,10,33,female,R,IMT,2021-07-11_18h06.30.239,ImageRatingTask_S2,2021.1.4,Win32,60.27364234,,,,,,,,,
,,,,,,,,,,,,0,1,1,1,1,second,10,33,female,R,IMT,2021-07-11_18h06.30.239,ImageRatingTask_S2,2021.1.4,Win32,60.27364234,,,,,,,,,
,,,,,,,,,,,,0,2,2,2,1,third,10,33,female,R,IMT,2021-07-11_18h06.30.239,ImageRatingTask_S2,2021.1.4,Win32,60.27364234,,,,,,,,,
,,,,,,,,,,,,0,3,3,3,1,fourth,10,33,female,R,IMT,2021-07-11_18h06.30.239,ImageRatingTask_S2,2021.1.4,Win32,60.27364234,,,,,,,,,
,,,,,,,,,,,,0,4,4,4,1,fifth,10,33,female,R,IMT,2021-07-11_18h06.30.239,ImageRatingTask_S2,2021.1.4,Win32,60.27364234,,,,,,,,,
,,,,,,,,,,,,0,5,5,5,1,sixth,10,33,female,R,IMT,2021-07-11_18h06.30.239,ImageRatingTask_S2,2021.1.4,Win32,60.27364234,,,,,,,,,
,,,,,,,,,,,,0,6,6,6,1,seventh,10,33,female,R,IMT,2021-07-11_18h06.30.239,ImageRatingTask_S2,2021.1.4,Win32,60.27364234,,,,,,,,,
,,,,,,,,,,,,0,7,7,7,1,last,10,33,female,R,IMT,2021-07-11_18h06.30.239,ImageRatingTask_S2,2021.1.4,Win32,60.27364234,,,,,,,,,
,,,,,,,,,,,,,,,,,,10,33,female,R,IMT,2021-07-11_18h06.30.239,ImageRatingTask_S2,2021.1.4,Win32,60.27364234,0,61,61,46,1,DreamStudyImages_rs1000x750g/Children/IAPS2703_children15.jpg,,,
,,5,2.2341,4,1.5512,9,2.6978,1,2.1674,6,2.6177,0,0,0,0,1,main,10,33,female,R,IMT,2021-07-11_18h06.30.239,ImageRatingTask_S2,2021.1.4,Win32,60.27364234,,,,,,,,,
,,,,,,,,,,,,0,1,1,1,1,second,10,33,female,R,IMT,2021-07-11_18h06.30.239,ImageRatingTask_S2,2021.1.4,Win32,60.27364234,,,,,,,,,
,,,,,,,,,,,,0,2,2,2,1,third,10,33,female,R,IMT,2021-07-11_18h06.30.239,ImageRatingTask_S2,2021.1.4,Win32,60.27364234,,,,,,,,,
,,,,,,,,,,,,0,3,3,3,1,fourth,10,33,female,R,IMT,2021-07-11_18h06.30.239,ImageRatingTask_S2,2021.1.4,Win32,60.27364234,,,,,,,,,
,,,,,,,,,,,,0,4,4,4,1,fifth,10,33,female,R,IMT,2021-07-11_18h06.30.239,ImageRatingTask_S2,2021.1.4,Win32,60.27364234,,,,,,,,,
,,,,,,,,,,,,0,5,5,5,1,sixth,10,33,female,R,IMT,2021-07-11_18h06.30.239,ImageRatingTask_S2,2021.1.4,Win32,60.27364234,,,,,,,,,
,,,,,,,,,,,,0,6,6,6,1,seventh,10,33,female,R,IMT,2021-07-11_18h06.30.239,ImageRatingTask_S2,2021.1.4,Win32,60.27364234,,,,,,,,,
,,,,,,,,,,,,0,7,7,7,1,last,10,33,female,R,IMT,2021-07-11_18h06.30.239,ImageRatingTask_S2,2021.1.4,Win32,60.27364234,,,,,,,,,
,,,,,,,,,,,,,,,,,,10,33,female,R,IMT,2021-07-11_18h06.30.239,ImageRatingTask_S2,2021.1.4,Win32,60.27364234,0,62,62,94,1,DreamStudyImages_rs1000x750g/Houses/Landscapes_091_h.jpg,,,
,,3,2.8739,5,1.9264,9,1.6007,0,2.7428,,,0,0,0,0,1,main,10,33,female,R,IMT,2021-07-11_18h06.30.239,ImageRatingTask_S2,2021.1.4,Win32,60.27364234,,,,,,,,,
,,,,,,,,,,,,0,1,1,1,1,second,10,33,female,R,IMT,2021-07-11_18h06.30.239,ImageRatingTask_S2,2021.1.4,Win32,60.27364234,,,,,,,,,
,,,,,,,,,,,,0,2,2,2,1,third,10,33,female,R,IMT,2021-07-11_18h06.30.239,ImageRatingTask_S2,2021.1.4,Win32,60.27364234,,,,,,,,,
,,,,,,,,,,,,0,3,3,3,1,fourth,10,33,female,R,IMT,2021-07-11_18h06.30.239,ImageRatingTask_S2,2021.1.4,Win32,60.27364234,,,,,,,,,
,,,,,,,,,,,,0,4,4,4,1,fifth,10,33,female,R,IMT,2021-07-11_18h06.30.239,ImageRatingTask_S2,2021.1.4,Win32,60.27364234,,,,,,,,,
,,,,,,,,,,,,0,5,5,5,1,sixth,10,33,female,R,IMT,2021-07-11_18h06.30.239,ImageRatingTask_S2,2021.1.4,Win32,60.27364234,,,,,,,,,
,,,,,,,,,,,,0,6,6,6,1,seventh,10,33,female,R,IMT,2021-07-11_18h06.30.239,ImageRatingTask_S2,2021.1.4,Win32,60.27364234,,,,,,,,,
,,,,,,,,,,,,0,7,7,7,1,last,10,33,female,R,IMT,2021-07-11_18h06.30.239,ImageRatingTask_S2,2021.1.4,Win32,60.27364234,,,,,,,,,
,,,,,,,,,,,,,,,,,,10,33,female,R,IMT,2021-07-11_18h06.30.239,ImageRatingTask_S2,2021.1.4,Win32,60.27364234,0,63,63,12,1,DreamStudyImages_rs1000x750g/Food/Objects_011_h.jpg,,,
,,8,3.2238,2,1.5913,9,2.4589,1,1.6417,8,0.6636,0,0,0,0,1,main,10,33,female,R,IMT,2021-07-11_18h06.30.239,ImageRatingTask_S2,2021.1.4,Win32,60.27364234,,,,,,,,,
,,,,,,,,,,,,0,1,1,1,1,second,10,33,female,R,IMT,2021-07-11_18h06.30.239,ImageRatingTask_S2,2021.1.4,Win32,60.27364234,,,,,,,,,
,,,,,,,,,,,,0,2,2,2,1,third,10,33,female,R,IMT,2021-07-11_18h06.30.239,ImageRatingTask_S2,2021.1.4,Win32,60.27364234,,,,,,,,,
,,,,,,,,,,,,0,3,3,3,1,fourth,10,33,female,R,IMT,2021-07-11_18h06.30.239,ImageRatingTask_S2,2021.1.4,Win32,60.27364234,,,,,,,,,
,,,,,,,,,,,,0,4,4,4,1,fifth,10,33,female,R,IMT,2021-07-11_18h06.30.239,ImageRatingTask_S2,2021.1.4,Win32,60.27364234,,,,,,,,,
,,,,,,,,,,,,0,5,5,5,1,sixth,10,33,female,R,IMT,2021-07-11_18h06.30.239,ImageRatingTask_S2,2021.1.4,Win32,60.27364234,,,,,,,,,
,,,,,,,,,,,,0,6,6,6,1,seventh,10,33,female,R,IMT,2021-07-11_18h06.30.239,ImageRatingTask_S2,2021.1.4,Win32,60.27364234,,,,,,,,,
,,,,,,,,,,,,0,7,7,7,1,last,10,33,female,R,IMT,2021-07-11_18h06.30.239,ImageRatingTask_S2,2021.1.4,Win32,60.27364234,,,,,,,,,
,,,,,,,,,,,,,,,,,,10,33,female,R,IMT,2021-07-11_18h06.30.239,ImageRatingTask_S2,2021.1.4,Win32,60.27364234,0,64,64,87,1,DreamStudyImages_rs1000x750g/Water/Lake 5.jpg,,,
,,9,7.8772,1,0.8485,9,1.7991,1,5.9877,2,0.5308,0,0,0,0,1,main,10,33,female,R,IMT,2021-07-11_18h06.30.239,ImageRatingTask_S2,2021.1.4,Win32,60.27364234,,,,,,,,,
,,,,,,,,,,,,0,1,1,1,1,second,10,33,female,R,IMT,2021-07-11_18h06.30.239,ImageRatingTask_S2,2021.1.4,Win32,60.27364234,,,,,,,,,
,,,,,,,,,,,,0,2,2,2,1,third,10,33,female,R,IMT,2021-07-11_18h06.30.239,ImageRatingTask_S2,2021.1.4,Win32,60.27364234,,,,,,,,,
,,,,,,,,,,,,0,3,3,3,1,fourth,10,33,female,R,IMT,2021-07-11_18h06.30.239,ImageRatingTask_S2,2021.1.4,Win32,60.27364234,,,,,,,,,
,,,,,,,,,,,,0,4,4,4,1,fifth,10,33,female,R,IMT,2021-07-11_18h06.30.239,ImageRatingTask_S2,2021.1.4,Win32,60.27364234,,,,,,,,,
,,,,,,,,,,,,0,5,5,5,1,sixth,10,33,female,R,IMT,2021-07-11_18h06.30.239,ImageRatingTask_S2,2021.1.4,Win32,60.27364234,,,,,,,,,
,,,,,,,,,,,,0,6,6,6,1,seventh,10,33,female,R,IMT,2021-07-11_18h06.30.239,ImageRatingTask_S2,2021.1.4,Win32,60.27364234,,,,,,,,,
,,,,,,,,,,,,0,7,7,7,1,last,10,33,female,R,IMT,2021-07-11_18h06.30.239,ImageRatingTask_S2,2021.1.4,Win32,60.27364234,,,,,,,,,
,,,,,,,,,,,,,,,,,,10,33,female,R,IMT,2021-07-11_18h06.30.239,ImageRatingTask_S2,2021.1.4,Win32,60.27364234,0,65,65,115,1,DreamStudyImages_rs1000x750g/Children/IAPS2345_children11.jpg,,,
,,7,4.0066,4,2.7641,8,2.8891,1,1.1981,7,0.8532,0,0,0,0,1,main,10,33,female,R,IMT,2021-07-11_18h06.30.239,ImageRatingTask_S2,2021.1.4,Win32,60.27364234,,,,,,,,,
,,,,,,,,,,,,0,1,1,1,1,second,10,33,female,R,IMT,2021-07-11_18h06.30.239,ImageRatingTask_S2,2021.1.4,Win32,60.27364234,,,,,,,,,
,,,,,,,,,,,,0,2,2,2,1,third,10,33,female,R,IMT,2021-07-11_18h06.30.239,ImageRatingTask_S2,2021.1.4,Win32,60.27364234,,,,,,,,,
,,,,,,,,,,,,0,3,3,3,1,fourth,10,33,female,R,IMT,2021-07-11_18h06.30.239,ImageRatingTask_S2,2021.1.4,Win32,60.27364234,,,,,,,,,
,,,,,,,,,,,,0,4,4,4,1,fifth,10,33,female,R,IMT,2021-07-11_18h06.30.239,ImageRatingTask_S2,2021.1.4,Win32,60.27364234,,,,,,,,,
,,,,,,,,,,,,0,5,5,5,1,sixth,10,33,female,R,IMT,2021-07-11_18h06.30.239,ImageRatingTask_S2,2021.1.4,Win32,60.27364234,,,,,,,,,
,,,,,,,,,,,,0,6,6,6,1,seventh,10,33,female,R,IMT,2021-07-11_18h06.30.239,ImageRatingTask_S2,2021.1.4,Win32,60.27364234,,,,,,,,,
,,,,,,,,,,,,0,7,7,7,1,last,10,33,female,R,IMT,2021-07-11_18h06.30.239,ImageRatingTask_S2,2021.1.4,Win32,60.27364234,,,,,,,,,
,,,,,,,,,,,,,,,,,,10,33,female,R,IMT,2021-07-11_18h06.30.239,ImageRatingTask_S2,2021.1.4,Win32,60.27364234,0,66,66,24,1,DreamStudyImages_rs1000x750g/Vehicles/5450.jpg,,,
,,9,2.4398,1,0.8576,9,0.9149,1,0.8669,8,0.5466,0,0,0,0,1,main,10,33,female,R,IMT,2021-07-11_18h06.30.239,ImageRatingTask_S2,2021.1.4,Win32,60.27364234,,,,,,,,,
,,,,,,,,,,,,0,1,1,1,1,second,10,33,female,R,IMT,2021-07-11_18h06.30.239,ImageRatingTask_S2,2021.1.4,Win32,60.27364234,,,,,,,,,
,,,,,,,,,,,,0,2,2,2,1,third,10,33,female,R,IMT,2021-07-11_18h06.30.239,ImageRatingTask_S2,2021.1.4,Win32,60.27364234,,,,,,,,,
,,,,,,,,,,,,0,3,3,3,1,fourth,10,33,female,R,IMT,2021-07-11_18h06.30.239,ImageRatingTask_S2,2021.1.4,Win32,60.27364234,,,,,,,,,
,,,,,,,,,,,,0,4,4,4,1,fifth,10,33,female,R,IMT,2021-07-11_18h06.30.239,ImageRatingTask_S2,2021.1.4,Win32,60.27364234,,,,,,,,,
,,,,,,,,,,,,0,5,5,5,1,sixth,10,33,female,R,IMT,2021-07-11_18h06.30.239,ImageRatingTask_S2,2021.1.4,Win32,60.27364234,,,,,,,,,
,,,,,,,,,,,,0,6,6,6,1,seventh,10,33,female,R,IMT,2021-07-11_18h06.30.239,ImageRatingTask_S2,2021.1.4,Win32,60.27364234,,,,,,,,,
,,,,,,,,,,,,0,7,7,7,1,last,10,33,female,R,IMT,2021-07-11_18h06.30.239,ImageRatingTask_S2,2021.1.4,Win32,60.27364234,,,,,,,,,
,,,,,,,,,,,,,,,,,,10,33,female,R,IMT,2021-07-11_18h06.30.239,ImageRatingTask_S2,2021.1.4,Win32,60.27364234,0,67,67,151,1,DreamStudyImages_rs1000x750g/Water/lake_CROPPED.jpg,,,
,,5,1.7536,1,0.7233,9,2.5148,1,0.6163,8,0.6629,0,0,0,0,1,main,10,33,female,R,IMT,2021-07-11_18h06.30.239,ImageRatingTask_S2,2021.1.4,Win32,60.27364234,,,,,,,,,
,,,,,,,,,,,,0,1,1,1,1,second,10,33,female,R,IMT,2021-07-11_18h06.30.239,ImageRatingTask_S2,2021.1.4,Win32,60.27364234,,,,,,,,,
,,,,,,,,,,,,0,2,2,2,1,third,10,33,female,R,IMT,2021-07-11_18h06.30.239,ImageRatingTask_S2,2021.1.4,Win32,60.27364234,,,,,,,,,
,,,,,,,,,,,,0,3,3,3,1,fourth,10,33,female,R,IMT,2021-07-11_18h06.30.239,ImageRatingTask_S2,2021.1.4,Win32,60.27364234,,,,,,,,,
,,,,,,,,,,,,0,4,4,4,1,fifth,10,33,female,R,IMT,2021-07-11_18h06.30.239,ImageRatingTask_S2,2021.1.4,Win32,60.27364234,,,,,,,,,
,,,,,,,,,,,,0,5,5,5,1,sixth,10,33,female,R,IMT,2021-07-11_18h06.30.239,ImageRatingTask_S2,2021.1.4,Win32,60.27364234,,,,,,,,,
,,,,,,,,,,,,0,6,6,6,1,seventh,10,33,female,R,IMT,2021-07-11_18h06.30.239,ImageRatingTask_S2,2021.1.4,Win32,60.27364234,,,,,,,,,
,,,,,,,,,,,,0,7,7,7,1,last,10,33,female,R,IMT,2021-07-11_18h06.30.239,ImageRatingTask_S2,2021.1.4,Win32,60.27364234,,,,,,,,,
,,,,,,,,,,,,,,,,,,10,33,female,R,IMT,2021-07-11_18h06.30.239,ImageRatingTask_S2,2021.1.4,Win32,60.27364234,0,68,68,17,1,DreamStudyImages_rs1000x750g/Water/cityfountain.jpg,,,
,,9,2.5373,1,0.321,9,1.2113,1,0.6765,1,4.2599,0,0,0,0,1,main,10,33,female,R,IMT,2021-07-11_18h06.30.239,ImageRatingTask_S2,2021.1.4,Win32,60.27364234,,,,,,,,,
,,,,,,,,,,,,0,1,1,1,1,second,10,33,female,R,IMT,2021-07-11_18h06.30.239,ImageRatingTask_S2,2021.1.4,Win32,60.27364234,,,,,,,,,
,,,,,,,,,,,,0,2,2,2,1,third,10,33,female,R,IMT,2021-07-11_18h06.30.239,ImageRatingTask_S2,2021.1.4,Win32,60.27364234,,,,,,,,,
,,,,,,,,,,,,0,3,3,3,1,fourth,10,33,female,R,IMT,2021-07-11_18h06.30.239,ImageRatingTask_S2,2021.1.4,Win32,60.27364234,,,,,,,,,
,,,,,,,,,,,,0,4,4,4,1,fifth,10,33,female,R,IMT,2021-07-11_18h06.30.239,ImageRatingTask_S2,2021.1.4,Win32,60.27364234,,,,,,,,,
,,,,,,,,,,,,0,5,5,5,1,sixth,10,33,female,R,IMT,2021-07-11_18h06.30.239,ImageRatingTask_S2,2021.1.4,Win32,60.27364234,,,,,,,,,
,,,,,,,,,,,,0,6,6,6,1,seventh,10,33,female,R,IMT,2021-07-11_18h06.30.239,ImageRatingTask_S2,2021.1.4,Win32,60.27364234,,,,,,,,,
,,,,,,,,,,,,0,7,7,7,1,last,10,33,female,R,IMT,2021-07-11_18h06.30.239,ImageRatingTask_S2,2021.1.4,Win32,60.27364234,,,,,,,,,
,,,,,,,,,,,,,,,,,,10,33,female,R,IMT,2021-07-11_18h06.30.239,ImageRatingTask_S2,2021.1.4,Win32,60.27364234,0,69,69,136,1,DreamStudyImages_rs1000x750g/Houses/Landscapes_117_h.jpg,,,
,,9,2.5098,1,8.5919,9,0.9101,1,5.1594,8,0.913,0,0,0,0,1,main,10,33,female,R,IMT,2021-07-11_18h06.30.239,ImageRatingTask_S2,2021.1.4,Win32,60.27364234,,,,,,,,,
,,,,,,,,,,,,0,1,1,1,1,second,10,33,female,R,IMT,2021-07-11_18h06.30.239,ImageRatingTask_S2,2021.1.4,Win32,60.27364234,,,,,,,,,
,,,,,,,,,,,,0,2,2,2,1,third,10,33,female,R,IMT,2021-07-11_18h06.30.239,ImageRatingTask_S2,2021.1.4,Win32,60.27364234,,,,,,,,,
,,,,,,,,,,,,0,3,3,3,1,fourth,10,33,female,R,IMT,2021-07-11_18h06.30.239,ImageRatingTask_S2,2021.1.4,Win32,60.27364234,,,,,,,,,
,,,,,,,,,,,,0,4,4,4,1,fifth,10,33,female,R,IMT,2021-07-11_18h06.30.239,ImageRatingTask_S2,2021.1.4,Win32,60.27364234,,,,,,,,,
,,,,,,,,,,,,0,5,5,5,1,sixth,10,33,female,R,IMT,2021-07-11_18h06.30.239,ImageRatingTask_S2,2021.1.4,Win32,60.27364234,,,,,,,,,
,,,,,,,,,,,,0,6,6,6,1,seventh,10,33,female,R,IMT,2021-07-11_18h06.30.239,ImageRatingTask_S2,2021.1.4,Win32,60.27364234,,,,,,,,,
,,,,,,,,,,,,0,7,7,7,1,last,10,33,female,R,IMT,2021-07-11_18h06.30.239,ImageRatingTask_S2,2021.1.4,Win32,60.27364234,,,,,,,,,
,,,,,,,,,,,,,,,,,,10,33,female,R,IMT,2021-07-11_18h06.30.239,ImageRatingTask_S2,2021.1.4,Win32,60.27364234,0,70,70,110,1,DreamStudyImages_rs1000x750g/Water/dawnatlake.jpg,,,
,,8,3.4564,2,0.9803,7,5.739,1,1.1311,8,0.8612,0,0,0,0,1,main,10,33,female,R,IMT,2021-07-11_18h06.30.239,ImageRatingTask_S2,2021.1.4,Win32,60.27364234,,,,,,,,,
,,,,,,,,,,,,0,1,1,1,1,second,10,33,female,R,IMT,2021-07-11_18h06.30.239,ImageRatingTask_S2,2021.1.4,Win32,60.27364234,,,,,,,,,
,,,,,,,,,,,,0,2,2,2,1,third,10,33,female,R,IMT,2021-07-11_18h06.30.239,ImageRatingTask_S2,2021.1.4,Win32,60.27364234,,,,,,,,,
,,,,,,,,,,,,0,3,3,3,1,fourth,10,33,female,R,IMT,2021-07-11_18h06.30.239,ImageRatingTask_S2,2021.1.4,Win32,60.27364234,,,,,,,,,
,,,,,,,,,,,,0,4,4,4,1,fifth,10,33,female,R,IMT,2021-07-11_18h06.30.239,ImageRatingTask_S2,2021.1.4,Win32,60.27364234,,,,,,,,,
,,,,,,,,,,,,0,5,5,5,1,sixth,10,33,female,R,IMT,2021-07-11_18h06.30.239,ImageRatingTask_S2,2021.1.4,Win32,60.27364234,,,,,,,,,
,,,,,,,,,,,,0,6,6,6,1,seventh,10,33,female,R,IMT,2021-07-11_18h06.30.239,ImageRatingTask_S2,2021.1.4,Win32,60.27364234,,,,,,,,,
,,,,,,,,,,,,0,7,7,7,1,last,10,33,female,R,IMT,2021-07-11_18h06.30.239,ImageRatingTask_S2,2021.1.4,Win32,60.27364234,,,,,,,,,
,,,,,,,,,,,,,,,,,,10,33,female,R,IMT,2021-07-11_18h06.30.239,ImageRatingTask_S2,2021.1.4,Win32,60.27364234,0,71,71,43,1,DreamStudyImages_rs1000x750g/Water/Lake 1.jpg,,,
,,2,2.2299,7,3.194,9,1.4449,1,1.4286,6,1.1663,0,0,0,0,1,main,10,33,female,R,IMT,2021-07-11_18h06.30.239,ImageRatingTask_S2,2021.1.4,Win32,60.27364234,,,,,,,,,
,,,,,,,,,,,,0,1,1,1,1,second,10,33,female,R,IMT,2021-07-11_18h06.30.239,ImageRatingTask_S2,2021.1.4,Win32,60.27364234,,,,,,,,,
,,,,,,,,,,,,0,2,2,2,1,third,10,33,female,R,IMT,2021-07-11_18h06.30.239,ImageRatingTask_S2,2021.1.4,Win32,60.27364234,,,,,,,,,
,,,,,,,,,,,,0,3,3,3,1,fourth,10,33,female,R,IMT,2021-07-11_18h06.30.239,ImageRatingTask_S2,2021.1.4,Win32,60.27364234,,,,,,,,,
,,,,,,,,,,,,0,4,4,4,1,fifth,10,33,female,R,IMT,2021-07-11_18h06.30.239,ImageRatingTask_S2,2021.1.4,Win32,60.27364234,,,,,,,,,
,,,,,,,,,,,,0,5,5,5,1,sixth,10,33,female,R,IMT,2021-07-11_18h06.30.239,ImageRatingTask_S2,2021.1.4,Win32,60.27364234,,,,,,,,,
,,,,,,,,,,,,0,6,6,6,1,seventh,10,33,female,R,IMT,2021-07-11_18h06.30.239,ImageRatingTask_S2,2021.1.4,Win32,60.27364234,,,,,,,,,
,,,,,,,,,,,,0,7,7,7,1,last,10,33,female,R,IMT,2021-07-11_18h06.30.239,ImageRatingTask_S2,2021.1.4,Win32,60.27364234,,,,,,,,,
,,,,,,,,,,,,,,,,,,10,33,female,R,IMT,2021-07-11_18h06.30.239,ImageRatingTask_S2,2021.1.4,Win32,60.27364234,0,72,72,64,1,DreamStudyImages_rs1000x750g/Houses/NDPS6_buildings3.jpg,,,
,,5,3.9376,1,1.1549,9,1.7139,1,0.9123,6,1.1323,0,0,0,0,1,main,10,33,female,R,IMT,2021-07-11_18h06.30.239,ImageRatingTask_S2,2021.1.4,Win32,60.27364234,,,,,,,,,
,,,,,,,,,,,,0,1,1,1,1,second,10,33,female,R,IMT,2021-07-11_18h06.30.239,ImageRatingTask_S2,2021.1.4,Win32,60.27364234,,,,,,,,,
,,,,,,,,,,,,0,2,2,2,1,third,10,33,female,R,IMT,2021-07-11_18h06.30.239,ImageRatingTask_S2,2021.1.4,Win32,60.27364234,,,,,,,,,
,,,,,,,,,,,,0,3,3,3,1,fourth,10,33,female,R,IMT,2021-07-11_18h06.30.239,ImageRatingTask_S2,2021.1.4,Win32,60.27364234,,,,,,,,,
,,,,,,,,,,,,0,4,4,4,1,fifth,10,33,female,R,IMT,2021-07-11_18h06.30.239,ImageRatingTask_S2,2021.1.4,Win32,60.27364234,,,,,,,,,
,,,,,,,,,,,,0,5,5,5,1,sixth,10,33,female,R,IMT,2021-07-11_18h06.30.239,ImageRatingTask_S2,2021.1.4,Win32,60.27364234,,,,,,,,,
,,,,,,,,,,,,0,6,6,6,1,seventh,10,33,female,R,IMT,2021-07-11_18h06.30.239,ImageRatingTask_S2,2021.1.4,Win32,60.27364234,,,,,,,,,
,,,,,,,,,,,,0,7,7,7,1,last,10,33,female,R,IMT,2021-07-11_18h06.30.239,ImageRatingTask_S2,2021.1.4,Win32,60.27364234,,,,,,,,,
,,,,,,,,,,,,,,,,,,10,33,female,R,IMT,2021-07-11_18h06.30.239,ImageRatingTask_S2,2021.1.4,Win32,60.27364234,0,73,73,31,1,DreamStudyImages_rs1000x750g/Houses/Landscapes_049_h.jpg,,,
,,6,3.7058,4,1.7748,9,3.251,1,4.5063,8,0.6305,0,0,0,0,1,main,10,33,female,R,IMT,2021-07-11_18h06.30.239,ImageRatingTask_S2,2021.1.4,Win32,60.27364234,,,,,,,,,
,,,,,,,,,,,,0,1,1,1,1,second,10,33,female,R,IMT,2021-07-11_18h06.30.239,ImageRatingTask_S2,2021.1.4,Win32,60.27364234,,,,,,,,,
,,,,,,,,,,,,0,2,2,2,1,third,10,33,female,R,IMT,2021-07-11_18h06.30.239,ImageRatingTask_S2,2021.1.4,Win32,60.27364234,,,,,,,,,
,,,,,,,,,,,,0,3,3,3,1,fourth,10,33,female,R,IMT,2021-07-11_18h06.30.239,ImageRatingTask_S2,2021.1.4,Win32,60.27364234,,,,,,,,,
,,,,,,,,,,,,0,4,4,4,1,fifth,10,33,female,R,IMT,2021-07-11_18h06.30.239,ImageRatingTask_S2,2021.1.4,Win32,60.27364234,,,,,,,,,
,,,,,,,,,,,,0,5,5,5,1,sixth,10,33,female,R,IMT,2021-07-11_18h06.30.239,ImageRatingTask_S2,2021.1.4,Win32,60.27364234,,,,,,,,,
,,,,,,,,,,,,0,6,6,6,1,seventh,10,33,female,R,IMT,2021-07-11_18h06.30.239,ImageRatingTask_S2,2021.1.4,Win32,60.27364234,,,,,,,,,
,,,,,,,,,,,,0,7,7,7,1,last,10,33,female,R,IMT,2021-07-11_18h06.30.239,ImageRatingTask_S2,2021.1.4,Win32,60.27364234,,,,,,,,,
,,,,,,,,,,,,,,,,,,10,33,female,R,IMT,2021-07-11_18h06.30.239,ImageRatingTask_S2,2021.1.4,Win32,60.27364234,0,74,74,8,1,DreamStudyImages_rs1000x750g/Water/Waterfall 1.jpg,,,
,,6,2.6538,3,1.4463,9,1.5452,1,1.3109,6,0.7639,0,0,0,0,1,main,10,33,female,R,IMT,2021-07-11_18h06.30.239,ImageRatingTask_S2,2021.1.4,Win32,60.27364234,,,,,,,,,
,,,,,,,,,,,,0,1,1,1,1,second,10,33,female,R,IMT,2021-07-11_18h06.30.239,ImageRatingTask_S2,2021.1.4,Win32,60.27364234,,,,,,,,,
,,,,,,,,,,,,0,2,2,2,1,third,10,33,female,R,IMT,2021-07-11_18h06.30.239,ImageRatingTask_S2,2021.1.4,Win32,60.27364234,,,,,,,,,
,,,,,,,,,,,,0,3,3,3,1,fourth,10,33,female,R,IMT,2021-07-11_18h06.30.239,ImageRatingTask_S2,2021.1.4,Win32,60.27364234,,,,,,,,,
,,,,,,,,,,,,0,4,4,4,1,fifth,10,33,female,R,IMT,2021-07-11_18h06.30.239,ImageRatingTask_S2,2021.1.4,Win32,60.27364234,,,,,,,,,
,,,,,,,,,,,,0,5,5,5,1,sixth,10,33,female,R,IMT,2021-07-11_18h06.30.239,ImageRatingTask_S2,2021.1.4,Win32,60.27364234,,,,,,,,,
,,,,,,,,,,,,0,6,6,6,1,seventh,10,33,female,R,IMT,2021-07-11_18h06.30.239,ImageRatingTask_S2,2021.1.4,Win32,60.27364234,,,,,,,,,
,,,,,,,,,,,,0,7,7,7,1,last,10,33,female,R,IMT,2021-07-11_18h06.30.239,ImageRatingTask_S2,2021.1.4,Win32,60.27364234,,,,,,,,,
,,,,,,,,,,,,,,,,,,10,33,female,R,IMT,2021-07-11_18h06.30.239,ImageRatingTask_S2,2021.1.4,Win32,60.27364234,0,75,75,42,1,DreamStudyImages_rs1000x750g/Houses/Landscapes_034_h.jpg,,,
,,4,3.5471,6,2.8611,9,1.422,1,1.591,5,1.0869,0,0,0,0,1,main,10,33,female,R,IMT,2021-07-11_18h06.30.239,ImageRatingTask_S2,2021.1.4,Win32,60.27364234,,,,,,,,,
,,,,,,,,,,,,0,1,1,1,1,second,10,33,female,R,IMT,2021-07-11_18h06.30.239,ImageRatingTask_S2,2021.1.4,Win32,60.27364234,,,,,,,,,
,,,,,,,,,,,,0,2,2,2,1,third,10,33,female,R,IMT,2021-07-11_18h06.30.239,ImageRatingTask_S2,2021.1.4,Win32,60.27364234,,,,,,,,,
,,,,,,,,,,,,0,3,3,3,1,fourth,10,33,female,R,IMT,2021-07-11_18h06.30.239,ImageRatingTask_S2,2021.1.4,Win32,60.27364234,,,,,,,,,
,,,,,,,,,,,,0,4,4,4,1,fifth,10,33,female,R,IMT,2021-07-11_18h06.30.239,ImageRatingTask_S2,2021.1.4,Win32,60.27364234,,,,,,,,,
,,,,,,,,,,,,0,5,5,5,1,sixth,10,33,female,R,IMT,2021-07-11_18h06.30.239,ImageRatingTask_S2,2021.1.4,Win32,60.27364234,,,,,,,,,
,,,,,,,,,,,,0,6,6,6,1,seventh,10,33,female,R,IMT,2021-07-11_18h06.30.239,ImageRatingTask_S2,2021.1.4,Win32,60.27364234,,,,,,,,,
,,,,,,,,,,,,0,7,7,7,1,last,10,33,female,R,IMT,2021-07-11_18h06.30.239,ImageRatingTask_S2,2021.1.4,Win32,60.27364234,,,,,,,,,
,,,,,,,,,,,,,,,,,,10,33,female,R,IMT,2021-07-11_18h06.30.239,ImageRatingTask_S2,2021.1.4,Win32,60.27364234,0,76,76,105,1,DreamStudyImages_rs1000x750g/Food/food_neg_4bis.jpg,,,
,,5,3.0529,1,2.5403,9,3.362,1,1.1105,8,0.7017,0,0,0,0,1,main,10,33,female,R,IMT,2021-07-11_18h06.30.239,ImageRatingTask_S2,2021.1.4,Win32,60.27364234,,,,,,,,,
,,,,,,,,,,,,0,1,1,1,1,second,10,33,female,R,IMT,2021-07-11_18h06.30.239,ImageRatingTask_S2,2021.1.4,Win32,60.27364234,,,,,,,,,
,,,,,,,,,,,,0,2,2,2,1,third,10,33,female,R,IMT,2021-07-11_18h06.30.239,ImageRatingTask_S2,2021.1.4,Win32,60.27364234,,,,,,,,,
,,,,,,,,,,,,0,3,3,3,1,fourth,10,33,female,R,IMT,2021-07-11_18h06.30.239,ImageRatingTask_S2,2021.1.4,Win32,60.27364234,,,,,,,,,
,,,,,,,,,,,,0,4,4,4,1,fifth,10,33,female,R,IMT,2021-07-11_18h06.30.239,ImageRatingTask_S2,2021.1.4,Win32,60.27364234,,,,,,,,,
,,,,,,,,,,,,0,5,5,5,1,sixth,10,33,female,R,IMT,2021-07-11_18h06.30.239,ImageRatingTask_S2,2021.1.4,Win32,60.27364234,,,,,,,,,
,,,,,,,,,,,,0,6,6,6,1,seventh,10,33,female,R,IMT,2021-07-11_18h06.30.239,ImageRatingTask_S2,2021.1.4,Win32,60.27364234,,,,,,,,,
,,,,,,,,,,,,0,7,7,7,1,last,10,33,female,R,IMT,2021-07-11_18h06.30.239,ImageRatingTask_S2,2021.1.4,Win32,60.27364234,,,,,,,,,
,,,,,,,,,,,,,,,,,,10,33,female,R,IMT,2021-07-11_18h06.30.239,ImageRatingTask_S2,2021.1.4,Win32,60.27364234,0,77,77,6,1,DreamStudyImages_rs1000x750g/Water/Lake 7.jpg,,,
,,8,2.9889,3,2.0774,9,3.7751,1,0.9641,2,0.8559,0,0,0,0,1,main,10,33,female,R,IMT,2021-07-11_18h06.30.239,ImageRatingTask_S2,2021.1.4,Win32,60.27364234,,,,,,,,,
,,,,,,,,,,,,0,1,1,1,1,second,10,33,female,R,IMT,2021-07-11_18h06.30.239,ImageRatingTask_S2,2021.1.4,Win32,60.27364234,,,,,,,,,
,,,,,,,,,,,,0,2,2,2,1,third,10,33,female,R,IMT,2021-07-11_18h06.30.239,ImageRatingTask_S2,2021.1.4,Win32,60.27364234,,,,,,,,,
,,,,,,,,,,,,0,3,3,3,1,fourth,10,33,female,R,IMT,2021-07-11_18h06.30.239,ImageRatingTask_S2,2021.1.4,Win32,60.27364234,,,,,,,,,
,,,,,,,,,,,,0,4,4,4,1,fifth,10,33,female,R,IMT,2021-07-11_18h06.30.239,ImageRatingTask_S2,2021.1.4,Win32,60.27364234,,,,,,,,,
,,,,,,,,,,,,0,5,5,5,1,sixth,10,33,female,R,IMT,2021-07-11_18h06.30.239,ImageRatingTask_S2,2021.1.4,Win32,60.27364234,,,,,,,,,
,,,,,,,,,,,,0,6,6,6,1,seventh,10,33,female,R,IMT,2021-07-11_18h06.30.239,ImageRatingTask_S2,2021.1.4,Win32,60.27364234,,,,,,,,,
,,,,,,,,,,,,0,7,7,7,1,last,10,33,female,R,IMT,2021-07-11_18h06.30.239,ImageRatingTask_S2,2021.1.4,Win32,60.27364234,,,,,,,,,
,,,,,,,,,,,,,,,,,,10,33,female,R,IMT,2021-07-11_18h06.30.239,ImageRatingTask_S2,2021.1.4,Win32,60.27364234,0,78,78,0,1,DreamStudyImages_rs1000x750g/Children/IAPS9070_child10.jpg,,,
,,5,1.5495,1,1.0294,9,1.3683,1,0.7866,6,0.8585,0,0,0,0,1,main,10,33,female,R,IMT,2021-07-11_18h06.30.239,ImageRatingTask_S2,2021.1.4,Win32,60.27364234,,,,,,,,,
,,,,,,,,,,,,0,1,1,1,1,second,10,33,female,R,IMT,2021-07-11_18h06.30.239,ImageRatingTask_S2,2021.1.4,Win32,60.27364234,,,,,,,,,
,,,,,,,,,,,,0,2,2,2,1,third,10,33,female,R,IMT,2021-07-11_18h06.30.239,ImageRatingTask_S2,2021.1.4,Win32,60.27364234,,,,,,,,,
,,,,,,,,,,,,0,3,3,3,1,fourth,10,33,female,R,IMT,2021-07-11_18h06.30.239,ImageRatingTask_S2,2021.1.4,Win32,60.27364234,,,,,,,,,
,,,,,,,,,,,,0,4,4,4,1,fifth,10,33,female,R,IMT,2021-07-11_18h06.30.239,ImageRatingTask_S2,2021.1.4,Win32,60.27364234,,,,,,,,,
,,,,,,,,,,,,0,5,5,5,1,sixth,10,33,female,R,IMT,2021-07-11_18h06.30.239,ImageRatingTask_S2,2021.1.4,Win32,60.27364234,,,,,,,,,
,,,,,,,,,,,,0,6,6,6,1,seventh,10,33,female,R,IMT,2021-07-11_18h06.30.239,ImageRatingTask_S2,2021.1.4,Win32,60.27364234,,,,,,,,,
,,,,,,,,,,,,0,7,7,7,1,last,10,33,female,R,IMT,2021-07-11_18h06.30.239,ImageRatingTask_S2,2021.1.4,Win32,60.27364234,,,,,,,,,
,,,,,,,,,,,,,,,,,,10,33,female,R,IMT,2021-07-11_18h06.30.239,ImageRatingTask_S2,2021.1.4,Win32,60.27364234,0,79,79,36,1,DreamStudyImages_rs1000x750g/Houses/Landscapes_019_h.jpg,,,
,,5,3.1283,1,0.8762,9,1.596,1,2.289,7,0.641,0,0,0,0,1,main,10,33,female,R,IMT,2021-07-11_18h06.30.239,ImageRatingTask_S2,2021.1.4,Win32,60.27364234,,,,,,,,,
,,,,,,,,,,,,0,1,1,1,1,second,10,33,female,R,IMT,2021-07-11_18h06.30.239,ImageRatingTask_S2,2021.1.4,Win32,60.27364234,,,,,,,,,
,,,,,,,,,,,,0,2,2,2,1,third,10,33,female,R,IMT,2021-07-11_18h06.30.239,ImageRatingTask_S2,2021.1.4,Win32,60.27364234,,,,,,,,,
,,,,,,,,,,,,0,3,3,3,1,fourth,10,33,female,R,IMT,2021-07-11_18h06.30.239,ImageRatingTask_S2,2021.1.4,Win32,60.27364234,,,,,,,,,
,,,,,,,,,,,,0,4,4,4,1,fifth,10,33,female,R,IMT,2021-07-11_18h06.30.239,ImageRatingTask_S2,2021.1.4,Win32,60.27364234,,,,,,,,,
,,,,,,,,,,,,0,5,5,5,1,sixth,10,33,female,R,IMT,2021-07-11_18h06.30.239,ImageRatingTask_S2,2021.1.4,Win32,60.27364234,,,,,,,,,
,,,,,,,,,,,,0,6,6,6,1,seventh,10,33,female,R,IMT,2021-07-11_18h06.30.239,ImageRatingTask_S2,2021.1.4,Win32,60.27364234,,,,,,,,,
,,,,,,,,,,,,0,7,7,7,1,last,10,33,female,R,IMT,2021-07-11_18h06.30.239,ImageRatingTask_S2,2021.1.4,Win32,60.27364234,,,,,,,,,
,,,,,,,,,,,,,,,,,,10,33,female,R,IMT,2021-07-11_18h06.30.239,ImageRatingTask_S2,2021.1.4,Win32,60.27364234,0,80,80,113,1,DreamStudyImages_rs1000x750g/Vehicles/Objects_299_h.jpg,,,
,,6,2.3606,2,1.9975,9,1.8298,1,2.2127,2,0.7461,0,0,0,0,1,main,10,33,female,R,IMT,2021-07-11_18h06.30.239,ImageRatingTask_S2,2021.1.4,Win32,60.27364234,,,,,,,,,
,,,,,,,,,,,,0,1,1,1,1,second,10,33,female,R,IMT,2021-07-11_18h06.30.239,ImageRatingTask_S2,2021.1.4,Win32,60.27364234,,,,,,,,,
,,,,,,,,,,,,0,2,2,2,1,third,10,33,female,R,IMT,2021-07-11_18h06.30.239,ImageRatingTask_S2,2021.1.4,Win32,60.27364234,,,,,,,,,
,,,,,,,,,,,,0,3,3,3,1,fourth,10,33,female,R,IMT,2021-07-11_18h06.30.239,ImageRatingTask_S2,2021.1.4,Win32,60.27364234,,,,,,,,,
