test_key_val.keys,test_key_val.rt,test_key_aro.keys,test_key_aro.rt,test_key_qual.keys,test_key_qual.rt,test_key_ncat.keys,test_key_ncat.rt,test_key_cats.keys,test_key_cats.rt,test_ncat_order.thisRepN,test_ncat_order.thisTrialN,test_ncat_order.thisN,test_ncat_order.thisIndex,test_ncat_order.ran,cond_cat,participant,age,gender,handedness (L/R),site (IMT/Donders),date,expName,psychopyVersion,OS,frameRate,test_trials.thisRepN,test_trials.thisTrialN,test_trials.thisN,test_trials.thisIndex,test_trials.ran,test_filename,link,copyright,slider_pre.response,slider_pre.rt,key_val.keys,key_val.rt,key_aro.keys,key_aro.rt,key_qual.keys,key_qual.rt,key_ncat.keys,key_ncat.rt,key_cats.keys,key_cats.rt,ncat_order.thisRepN,ncat_order.thisTrialN,ncat_order.thisN,ncat_order.thisIndex,ncat_order.ran,img_trials.thisRepN,img_trials.thisTrialN,img_trials.thisN,img_trials.thisIndex,img_trials.ran,filename,slider_post.response,slider_post.rt,textbox_openfb.text
num_9,9.1381,num_1,7.9581,num_9,4.2056,num_3,16.8375,num_1,4.9574,0,0,0,0,1,main,10,33,female,R,IMT,2021-07-10_08h52.41.286,ImageRatingTask_S1,2021.1.4,Win32,59.99880002,,,,,,,,,,,,,,,,,,,,,,,,,,,,,,,,,,
,,,,,,,,num_4,2.597,0,1,1,1,1,second,10,33,female,R,IMT,2021-07-10_08h52.41.286,ImageRatingTask_S1,2021.1.4,Win32,59.99880002,,,,,,,,,,,,,,,,,,,,,,,,,,,,,,,,,,
,,,,,,,,num_6,2.6571,0,2,2,2,1,third,10,33,female,R,IMT,2021-07-10_08h52.41.286,ImageRatingTask_S1,2021.1.4,Win32,59.99880002,,,,,,,,,,,,,,,,,,,,,,,,,,,,,,,,,,
,,,,,,,,,,0,3,3,3,1,fourth,10,33,female,R,IMT,2021-07-10_08h52.41.286,ImageRatingTask_S1,2021.1.4,Win32,59.99880002,,,,,,,,,,,,,,,,,,,,,,,,,,,,,,,,,,
,,,,,,,,,,0,4,4,4,1,fifth,10,33,female,R,IMT,2021-07-10_08h52.41.286,ImageRatingTask_S1,2021.1.4,Win32,59.99880002,,,,,,,,,,,,,,,,,,,,,,,,,,,,,,,,,,
,,,,,,,,,,0,5,5,5,1,sixth,10,33,female,R,IMT,2021-07-10_08h52.41.286,ImageRatingTask_S1,2021.1.4,Win32,59.99880002,,,,,,,,,,,,,,,,,,,,,,,,,,,,,,,,,,
,,,,,,,,,,0,6,6,6,1,seventh,10,33,female,R,IMT,2021-07-10_08h52.41.286,ImageRatingTask_S1,2021.1.4,Win32,59.99880002,,,,,,,,,,,,,,,,,,,,,,,,,,,,,,,,,,
,,,,,,,,,,0,7,7,7,1,last,10,33,female,R,IMT,2021-07-10_08h52.41.286,ImageRatingTask_S1,2021.1.4,Win32,59.99880002,,,,,,,,,,,,,,,,,,,,,,,,,,,,,,,,,,
,,,,,,,,,,,,,,,,10,33,female,R,IMT,2021-07-10_08h52.41.286,ImageRatingTask_S1,2021.1.4,Win32,59.99880002,0,0,0,2,1,test3.jpg,https://www.flickr.com/photos/7487886@N04/35810127921/in/photolist-WyqgqD-DQSoP-6SrFCE-39ywib-39Bezs-9gt8aT-9gt83Z-eEgA9B-KnLx9-9gt8dK-HXwdie-2b6FA2g-4ekt5k-9ECfRg-2Zr5GQ-2Zr5mC-2Zr6kW-2Zr5Xu-2Zmyac-98TgbK-7U5XRj-am4oXb-98ThEB-2Bw3gh-vXo6D-Wt9U8o-DGiErb-DGiEqE-2m3CpV6-6E2aGG-6DXgqc-4PC3pQ-6HwMbx-dHYvkg-a2ycs-JLvMv-7k6DhM-bA81AL-8zwPFe-5nMrZu-3Ep2da-nhhd2L-DvDkr-81RkjZ-E1HXA-GzGH8Z-83vZYf-9krgXK-5nMxuU-DGiEqu,CC BY-NC 2.0,,,,,,,,,,,,,,,,,,,,,,,,,,
num_9,8.5435,num_1,5.3961,num_9,3.0231,num_0,10.6799,,,0,0,0,0,1,main,10,33,female,R,IMT,2021-07-10_08h52.41.286,ImageRatingTask_S1,2021.1.4,Win32,59.99880002,,,,,,,,,,,,,,,,,,,,,,,,,,,,,,,,,,
,,,,,,,,,,0,1,1,1,1,second,10,33,female,R,IMT,2021-07-10_08h52.41.286,ImageRatingTask_S1,2021.1.4,Win32,59.99880002,,,,,,,,,,,,,,,,,,,,,,,,,,,,,,,,,,
,,,,,,,,,,0,2,2,2,1,third,10,33,female,R,IMT,2021-07-10_08h52.41.286,ImageRatingTask_S1,2021.1.4,Win32,59.99880002,,,,,,,,,,,,,,,,,,,,,,,,,,,,,,,,,,
,,,,,,,,,,0,3,3,3,1,fourth,10,33,female,R,IMT,2021-07-10_08h52.41.286,ImageRatingTask_S1,2021.1.4,Win32,59.99880002,,,,,,,,,,,,,,,,,,,,,,,,,,,,,,,,,,
,,,,,,,,,,0,4,4,4,1,fifth,10,33,female,R,IMT,2021-07-10_08h52.41.286,ImageRatingTask_S1,2021.1.4,Win32,59.99880002,,,,,,,,,,,,,,,,,,,,,,,,,,,,,,,,,,
,,,,,,,,,,0,5,5,5,1,sixth,10,33,female,R,IMT,2021-07-10_08h52.41.286,ImageRatingTask_S1,2021.1.4,Win32,59.99880002,,,,,,,,,,,,,,,,,,,,,,,,,,,,,,,,,,
,,,,,,,,,,0,6,6,6,1,seventh,10,33,female,R,IMT,2021-07-10_08h52.41.286,ImageRatingTask_S1,2021.1.4,Win32,59.99880002,,,,,,,,,,,,,,,,,,,,,,,,,,,,,,,,,,
,,,,,,,,,,0,7,7,7,1,last,10,33,female,R,IMT,2021-07-10_08h52.41.286,ImageRatingTask_S1,2021.1.4,Win32,59.99880002,,,,,,,,,,,,,,,,,,,,,,,,,,,,,,,,,,
,,,,,,,,,,,,,,,,10,33,female,R,IMT,2021-07-10_08h52.41.286,ImageRatingTask_S1,2021.1.4,Win32,59.99880002,0,1,1,4,1,test5.jpg,https://www.flickr.com/photos/silkebaron/2778692021/in/photolist-5exwk8-CeHF3S-5gg796-95cM2x-LGUrp7-oFgB6-2k7B5QN-aufKzz-hn8Di-8A3htc-8EagiU-4Hvk3Y-2b7s1f8-KSEPr-KSseq-KSrU3-KSu4o-KSsS3-Tp6nDS-KSCUM-VpC5Br-4j8meK-bdrepT-7GRM78-e6Zw96-8cCPed-9ANgBi-oFg73-2GGRxm-5dcivP-7sa8oG-2GGRzW-7CFUnh-3giGx-5Bz4op-3gTuGh-5cSvq6-pUnXj-hwTpWT-48n3iY-e5zg7q-7u7zP8-49195x-3iQDe9-aL7cWX-5exvLk-48n2Yy-toytsg-rw5VR-78NSA2,CC BY 2.0,,,,,,,,,,,,,,,,,,,,,,,,,,
num_8,9.5734,num_1,4.9931,num_9,1.595,num_2,13.0842,num_7,3.2734,0,0,0,0,1,main,10,33,female,R,IMT,2021-07-10_08h52.41.286,ImageRatingTask_S1,2021.1.4,Win32,59.99880002,,,,,,,,,,,,,,,,,,,,,,,,,,,,,,,,,,
,,,,,,,,num_3,4.1056,0,1,1,1,1,second,10,33,female,R,IMT,2021-07-10_08h52.41.286,ImageRatingTask_S1,2021.1.4,Win32,59.99880002,,,,,,,,,,,,,,,,,,,,,,,,,,,,,,,,,,
,,,,,,,,,,0,2,2,2,1,third,10,33,female,R,IMT,2021-07-10_08h52.41.286,ImageRatingTask_S1,2021.1.4,Win32,59.99880002,,,,,,,,,,,,,,,,,,,,,,,,,,,,,,,,,,
,,,,,,,,,,0,3,3,3,1,fourth,10,33,female,R,IMT,2021-07-10_08h52.41.286,ImageRatingTask_S1,2021.1.4,Win32,59.99880002,,,,,,,,,,,,,,,,,,,,,,,,,,,,,,,,,,
,,,,,,,,,,0,4,4,4,1,fifth,10,33,female,R,IMT,2021-07-10_08h52.41.286,ImageRatingTask_S1,2021.1.4,Win32,59.99880002,,,,,,,,,,,,,,,,,,,,,,,,,,,,,,,,,,
,,,,,,,,,,0,5,5,5,1,sixth,10,33,female,R,IMT,2021-07-10_08h52.41.286,ImageRatingTask_S1,2021.1.4,Win32,59.99880002,,,,,,,,,,,,,,,,,,,,,,,,,,,,,,,,,,
,,,,,,,,,,0,6,6,6,1,seventh,10,33,female,R,IMT,2021-07-10_08h52.41.286,ImageRatingTask_S1,2021.1.4,Win32,59.99880002,,,,,,,,,,,,,,,,,,,,,,,,,,,,,,,,,,
,,,,,,,,,,0,7,7,7,1,last,10,33,female,R,IMT,2021-07-10_08h52.41.286,ImageRatingTask_S1,2021.1.4,Win32,59.99880002,,,,,,,,,,,,,,,,,,,,,,,,,,,,,,,,,,
,,,,,,,,,,,,,,,,10,33,female,R,IMT,2021-07-10_08h52.41.286,ImageRatingTask_S1,2021.1.4,Win32,59.99880002,0,2,2,3,1,test4.jpg,https://www.flickr.com/photos/8782469@N05/33550256294/in/photolist-T7HQjJ-6bL62X-gQ2ptt-eARbhf-dbgLvQ-uKUpgG-e6GNPD-e6iDuV-RwYJie-Ur28At-u6Dvwk-fwts3x-CgqS5E-dgJSNE-fwHPg9-bFQoWv-9qgCN-TQZT7E-475QF-v3ZBG9-v5TFQL-aQVeNV-49XCzE-e5Va7j-v3WosE-5jvzS-cBxjA5-fwJ2P3-TP86kq-eREpVC-rMTQZx-Um3k-ajziHj-CgqSzN-dgP2Ci-e6putY-652ZqG-eARzQm-6ikz1-vrGjvh-Chgvpm-pFFnYq-8bKoVw-eAsukg-daANXC-MwMMfW-5ArWsa-GMcDmn-bLo6CH-9KgagR,CC BY 2.0,,,,,,,,,,,,,,,,,,,,,,,,,,
num_9,2.6024,num_1,5.4454,num_9,2.3424,num_3,16.2258,num_8,4.4176,0,0,0,0,1,main,10,33,female,R,IMT,2021-07-10_08h52.41.286,ImageRatingTask_S1,2021.1.4,Win32,59.99880002,,,,,,,,,,,,,,,,,,,,,,,,,,,,,,,,,,
,,,,,,,,num_1,4.0855,0,1,1,1,1,second,10,33,female,R,IMT,2021-07-10_08h52.41.286,ImageRatingTask_S1,2021.1.4,Win32,59.99880002,,,,,,,,,,,,,,,,,,,,,,,,,,,,,,,,,,
,,,,,,,,num_7,1.1052,0,2,2,2,1,third,10,33,female,R,IMT,2021-07-10_08h52.41.286,ImageRatingTask_S1,2021.1.4,Win32,59.99880002,,,,,,,,,,,,,,,,,,,,,,,,,,,,,,,,,,
,,,,,,,,,,0,3,3,3,1,fourth,10,33,female,R,IMT,2021-07-10_08h52.41.286,ImageRatingTask_S1,2021.1.4,Win32,59.99880002,,,,,,,,,,,,,,,,,,,,,,,,,,,,,,,,,,
,,,,,,,,,,0,4,4,4,1,fifth,10,33,female,R,IMT,2021-07-10_08h52.41.286,ImageRatingTask_S1,2021.1.4,Win32,59.99880002,,,,,,,,,,,,,,,,,,,,,,,,,,,,,,,,,,
,,,,,,,,,,0,5,5,5,1,sixth,10,33,female,R,IMT,2021-07-10_08h52.41.286,ImageRatingTask_S1,2021.1.4,Win32,59.99880002,,,,,,,,,,,,,,,,,,,,,,,,,,,,,,,,,,
,,,,,,,,,,0,6,6,6,1,seventh,10,33,female,R,IMT,2021-07-10_08h52.41.286,ImageRatingTask_S1,2021.1.4,Win32,59.99880002,,,,,,,,,,,,,,,,,,,,,,,,,,,,,,,,,,
,,,,,,,,,,0,7,7,7,1,last,10,33,female,R,IMT,2021-07-10_08h52.41.286,ImageRatingTask_S1,2021.1.4,Win32,59.99880002,,,,,,,,,,,,,,,,,,,,,,,,,,,,,,,,,,
,,,,,,,,,,,,,,,,10,33,female,R,IMT,2021-07-10_08h52.41.286,ImageRatingTask_S1,2021.1.4,Win32,59.99880002,0,3,3,0,1,test1.jpg,https://www.flickr.com/photos/julzyax1/8713189147/in/photolist-egXnz6-Kg97g6-paYQjg-cDWcvy-e84vQU-fyRQKZ-dzuwVL-nzCPJw-dzp3r6-SXXSvw-aEgXGF-dzp1D8-aEgZ6F-prcoQG-aEgYd8-dt9EJ8-qTHZUL-dX8ut3-6eqh7x-aEkMyA-avjf71-6eqgKg-pNpDbJ-6euqa5-bo2EMC-q8hCLb-od8yyX-daaz4w-26cjVxB-CXaGmV-C7hSHf-aqmunq-9ek8a1-YcbBUe-apPWHB-HnB8rt-pHQLfh-8YgHaC-aqHteN-d5THbj-5dgTxP-afp2aV-8hNoSm-qhSjJS-d5TqoA-98WoKM-cjnSxo-9b4u7a-d5Tnzf-f7AETL,CC BY-NC 2.0,,,,,,,,,,,,,,,,,,,,,,,,,,
num_9,3.7539,num_3,9.6444,num_7,9.1223,num_3,10.45,num_2,1.8078,0,0,0,0,1,main,10,33,female,R,IMT,2021-07-10_08h52.41.286,ImageRatingTask_S1,2021.1.4,Win32,59.99880002,,,,,,,,,,,,,,,,,,,,,,,,,,,,,,,,,,
,,,,,,,,num_5,1.1205,0,1,1,1,1,second,10,33,female,R,IMT,2021-07-10_08h52.41.286,ImageRatingTask_S1,2021.1.4,Win32,59.99880002,,,,,,,,,,,,,,,,,,,,,,,,,,,,,,,,,,
,,,,,,,,num_6,1.6496,0,2,2,2,1,third,10,33,female,R,IMT,2021-07-10_08h52.41.286,ImageRatingTask_S1,2021.1.4,Win32,59.99880002,,,,,,,,,,,,,,,,,,,,,,,,,,,,,,,,,,
,,,,,,,,,,0,3,3,3,1,fourth,10,33,female,R,IMT,2021-07-10_08h52.41.286,ImageRatingTask_S1,2021.1.4,Win32,59.99880002,,,,,,,,,,,,,,,,,,,,,,,,,,,,,,,,,,
,,,,,,,,,,0,4,4,4,1,fifth,10,33,female,R,IMT,2021-07-10_08h52.41.286,ImageRatingTask_S1,2021.1.4,Win32,59.99880002,,,,,,,,,,,,,,,,,,,,,,,,,,,,,,,,,,
,,,,,,,,,,0,5,5,5,1,sixth,10,33,female,R,IMT,2021-07-10_08h52.41.286,ImageRatingTask_S1,2021.1.4,Win32,59.99880002,,,,,,,,,,,,,,,,,,,,,,,,,,,,,,,,,,
,,,,,,,,,,0,6,6,6,1,seventh,10,33,female,R,IMT,2021-07-10_08h52.41.286,ImageRatingTask_S1,2021.1.4,Win32,59.99880002,,,,,,,,,,,,,,,,,,,,,,,,,,,,,,,,,,
,,,,,,,,,,0,7,7,7,1,last,10,33,female,R,IMT,2021-07-10_08h52.41.286,ImageRatingTask_S1,2021.1.4,Win32,59.99880002,,,,,,,,,,,,,,,,,,,,,,,,,,,,,,,,,,
,,,,,,,,,,,,,,,,10,33,female,R,IMT,2021-07-10_08h52.41.286,ImageRatingTask_S1,2021.1.4,Win32,59.99880002,0,4,4,1,1,test2.jpg,https://www.flickr.com/photos/cavalier92/16036265548/,CC BY-NC-ND 2.0,,,,,,,,,,,,,,,,,,,,,,,,,,
,,,,,,,,,,,,,,,main,10,33,female,R,IMT,2021-07-10_08h52.41.286,ImageRatingTask_S1,2021.1.4,Win32,59.99880002,,,,,,,,,7,13.1885,num_9,6.8234,num_4,7.7569,num_9,1.7036,num_1,2.9241,num_8,0.8851,0,0,0,0,1,,,,,,,,,
,,,,,,,,,,,,,,,second,10,33,female,R,IMT,2021-07-10_08h52.41.286,ImageRatingTask_S1,2021.1.4,Win32,59.99880002,,,,,,,,,,,,,,,,,,,,,0,1,1,1,1,,,,,,,,,
,,,,,,,,,,,,,,,third,10,33,female,R,IMT,2021-07-10_08h52.41.286,ImageRatingTask_S1,2021.1.4,Win32,59.99880002,,,,,,,,,,,,,,,,,,,,,0,2,2,2,1,,,,,,,,,
,,,,,,,,,,,,,,,fourth,10,33,female,R,IMT,2021-07-10_08h52.41.286,ImageRatingTask_S1,2021.1.4,Win32,59.99880002,,,,,,,,,,,,,,,,,,,,,0,3,3,3,1,,,,,,,,,
,,,,,,,,,,,,,,,fifth,10,33,female,R,IMT,2021-07-10_08h52.41.286,ImageRatingTask_S1,2021.1.4,Win32,59.99880002,,,,,,,,,,,,,,,,,,,,,0,4,4,4,1,,,,,,,,,
,,,,,,,,,,,,,,,sixth,10,33,female,R,IMT,2021-07-10_08h52.41.286,ImageRatingTask_S1,2021.1.4,Win32,59.99880002,,,,,,,,,,,,,,,,,,,,,0,5,5,5,1,,,,,,,,,
,,,,,,,,,,,,,,,seventh,10,33,female,R,IMT,2021-07-10_08h52.41.286,ImageRatingTask_S1,2021.1.4,Win32,59.99880002,,,,,,,,,,,,,,,,,,,,,0,6,6,6,1,,,,,,,,,
,,,,,,,,,,,,,,,last,10,33,female,R,IMT,2021-07-10_08h52.41.286,ImageRatingTask_S1,2021.1.4,Win32,59.99880002,,,,,,,,,,,,,,,,,,,,,0,7,7,7,1,,,,,,,,,
,,,,,,,,,,,,,,,,10,33,female,R,IMT,2021-07-10_08h52.41.286,ImageRatingTask_S1,2021.1.4,Win32,59.99880002,,,,,,,,,,,,,,,,,,,,,,,,,,0,0,0,103,1,DreamStudyImages_rs1000x750g/Water/ocean.jpg,,,
,,,,,,,,,,,,,,,main,10,33,female,R,IMT,2021-07-10_08h52.41.286,ImageRatingTask_S1,2021.1.4,Win32,59.99880002,,,,,,,,,,,num_2,7.9388,num_8,4.5222,num_9,1.6007,num_1,6.6827,num_6,0.9689,0,0,0,0,1,,,,,,,,,
,,,,,,,,,,,,,,,second,10,33,female,R,IMT,2021-07-10_08h52.41.286,ImageRatingTask_S1,2021.1.4,Win32,59.99880002,,,,,,,,,,,,,,,,,,,,,0,1,1,1,1,,,,,,,,,
,,,,,,,,,,,,,,,third,10,33,female,R,IMT,2021-07-10_08h52.41.286,ImageRatingTask_S1,2021.1.4,Win32,59.99880002,,,,,,,,,,,,,,,,,,,,,0,2,2,2,1,,,,,,,,,
,,,,,,,,,,,,,,,fourth,10,33,female,R,IMT,2021-07-10_08h52.41.286,ImageRatingTask_S1,2021.1.4,Win32,59.99880002,,,,,,,,,,,,,,,,,,,,,0,3,3,3,1,,,,,,,,,
,,,,,,,,,,,,,,,fifth,10,33,female,R,IMT,2021-07-10_08h52.41.286,ImageRatingTask_S1,2021.1.4,Win32,59.99880002,,,,,,,,,,,,,,,,,,,,,0,4,4,4,1,,,,,,,,,
,,,,,,,,,,,,,,,sixth,10,33,female,R,IMT,2021-07-10_08h52.41.286,ImageRatingTask_S1,2021.1.4,Win32,59.99880002,,,,,,,,,,,,,,,,,,,,,0,5,5,5,1,,,,,,,,,
,,,,,,,,,,,,,,,seventh,10,33,female,R,IMT,2021-07-10_08h52.41.286,ImageRatingTask_S1,2021.1.4,Win32,59.99880002,,,,,,,,,,,,,,,,,,,,,0,6,6,6,1,,,,,,,,,
,,,,,,,,,,,,,,,last,10,33,female,R,IMT,2021-07-10_08h52.41.286,ImageRatingTask_S1,2021.1.4,Win32,59.99880002,,,,,,,,,,,,,,,,,,,,,0,7,7,7,1,,,,,,,,,
,,,,,,,,,,,,,,,,10,33,female,R,IMT,2021-07-10_08h52.41.286,ImageRatingTask_S1,2021.1.4,Win32,59.99880002,,,,,,,,,,,,,,,,,,,,,,,,,,0,1,1,13,1,DreamStudyImages_rs1000x750g/Houses/NDPS92_destroyedhouse.jpg,,,
,,,,,,,,,,,,,,,main,10,33,female,R,IMT,2021-07-10_08h52.41.286,ImageRatingTask_S1,2021.1.4,Win32,59.99880002,,,,,,,,,,,num_9,3.1956,num_1,8.9323,num_7,6.3884,num_2,7.8493,num_8,1.6798,0,0,0,0,1,,,,,,,,,
,,,,,,,,,,,,,,,second,10,33,female,R,IMT,2021-07-10_08h52.41.286,ImageRatingTask_S1,2021.1.4,Win32,59.99880002,,,,,,,,,,,,,,,,,,,num_6,1.8682,0,1,1,1,1,,,,,,,,,
,,,,,,,,,,,,,,,third,10,33,female,R,IMT,2021-07-10_08h52.41.286,ImageRatingTask_S1,2021.1.4,Win32,59.99880002,,,,,,,,,,,,,,,,,,,,,0,2,2,2,1,,,,,,,,,
,,,,,,,,,,,,,,,fourth,10,33,female,R,IMT,2021-07-10_08h52.41.286,ImageRatingTask_S1,2021.1.4,Win32,59.99880002,,,,,,,,,,,,,,,,,,,,,0,3,3,3,1,,,,,,,,,
,,,,,,,,,,,,,,,fifth,10,33,female,R,IMT,2021-07-10_08h52.41.286,ImageRatingTask_S1,2021.1.4,Win32,59.99880002,,,,,,,,,,,,,,,,,,,,,0,4,4,4,1,,,,,,,,,
,,,,,,,,,,,,,,,sixth,10,33,female,R,IMT,2021-07-10_08h52.41.286,ImageRatingTask_S1,2021.1.4,Win32,59.99880002,,,,,,,,,,,,,,,,,,,,,0,5,5,5,1,,,,,,,,,
,,,,,,,,,,,,,,,seventh,10,33,female,R,IMT,2021-07-10_08h52.41.286,ImageRatingTask_S1,2021.1.4,Win32,59.99880002,,,,,,,,,,,,,,,,,,,,,0,6,6,6,1,,,,,,,,,
,,,,,,,,,,,,,,,last,10,33,female,R,IMT,2021-07-10_08h52.41.286,ImageRatingTask_S1,2021.1.4,Win32,59.99880002,,,,,,,,,,,,,,,,,,,,,0,7,7,7,1,,,,,,,,,
,,,,,,,,,,,,,,,,10,33,female,R,IMT,2021-07-10_08h52.41.286,ImageRatingTask_S1,2021.1.4,Win32,59.99880002,,,,,,,,,,,,,,,,,,,,,,,,,,0,2,2,61,1,DreamStudyImages_rs1000x750g/Water/5210.jpg,,,
,,,,,,,,,,,,,,,main,10,33,female,R,IMT,2021-07-10_08h52.41.286,ImageRatingTask_S1,2021.1.4,Win32,59.99880002,,,,,,,,,,,num_5,21.8247,num_2,8.1386,num_8,2.7369,num_1,2.424,num_5,1.3605,0,0,0,0,1,,,,,,,,,
,,,,,,,,,,,,,,,second,10,33,female,R,IMT,2021-07-10_08h52.41.286,ImageRatingTask_S1,2021.1.4,Win32,59.99880002,,,,,,,,,,,,,,,,,,,,,0,1,1,1,1,,,,,,,,,
,,,,,,,,,,,,,,,third,10,33,female,R,IMT,2021-07-10_08h52.41.286,ImageRatingTask_S1,2021.1.4,Win32,59.99880002,,,,,,,,,,,,,,,,,,,,,0,2,2,2,1,,,,,,,,,
,,,,,,,,,,,,,,,fourth,10,33,female,R,IMT,2021-07-10_08h52.41.286,ImageRatingTask_S1,2021.1.4,Win32,59.99880002,,,,,,,,,,,,,,,,,,,,,0,3,3,3,1,,,,,,,,,
,,,,,,,,,,,,,,,fifth,10,33,female,R,IMT,2021-07-10_08h52.41.286,ImageRatingTask_S1,2021.1.4,Win32,59.99880002,,,,,,,,,,,,,,,,,,,,,0,4,4,4,1,,,,,,,,,
,,,,,,,,,,,,,,,sixth,10,33,female,R,IMT,2021-07-10_08h52.41.286,ImageRatingTask_S1,2021.1.4,Win32,59.99880002,,,,,,,,,,,,,,,,,,,,,0,5,5,5,1,,,,,,,,,
,,,,,,,,,,,,,,,seventh,10,33,female,R,IMT,2021-07-10_08h52.41.286,ImageRatingTask_S1,2021.1.4,Win32,59.99880002,,,,,,,,,,,,,,,,,,,,,0,6,6,6,1,,,,,,,,,
,,,,,,,,,,,,,,,last,10,33,female,R,IMT,2021-07-10_08h52.41.286,ImageRatingTask_S1,2021.1.4,Win32,59.99880002,,,,,,,,,,,,,,,,,,,,,0,7,7,7,1,,,,,,,,,
,,,,,,,,,,,,,,,,10,33,female,R,IMT,2021-07-10_08h52.41.286,ImageRatingTask_S1,2021.1.4,Win32,59.99880002,,,,,,,,,,,,,,,,,,,,,,,,,,0,3,3,75,1,DreamStudyImages_rs1000x750g/Food/Objects_038_v.jpg,,,
,,,,,,,,,,,,,,,main,10,33,female,R,IMT,2021-07-10_08h52.41.286,ImageRatingTask_S1,2021.1.4,Win32,59.99880002,,,,,,,,,,,num_7,7.6496,num_1,6.7873,num_9,2.0618,num_1,2.138,num_2,0.7216,0,0,0,0,1,,,,,,,,,
,,,,,,,,,,,,,,,second,10,33,female,R,IMT,2021-07-10_08h52.41.286,ImageRatingTask_S1,2021.1.4,Win32,59.99880002,,,,,,,,,,,,,,,,,,,,,0,1,1,1,1,,,,,,,,,
,,,,,,,,,,,,,,,third,10,33,female,R,IMT,2021-07-10_08h52.41.286,ImageRatingTask_S1,2021.1.4,Win32,59.99880002,,,,,,,,,,,,,,,,,,,,,0,2,2,2,1,,,,,,,,,
,,,,,,,,,,,,,,,fourth,10,33,female,R,IMT,2021-07-10_08h52.41.286,ImageRatingTask_S1,2021.1.4,Win32,59.99880002,,,,,,,,,,,,,,,,,,,,,0,3,3,3,1,,,,,,,,,
,,,,,,,,,,,,,,,fifth,10,33,female,R,IMT,2021-07-10_08h52.41.286,ImageRatingTask_S1,2021.1.4,Win32,59.99880002,,,,,,,,,,,,,,,,,,,,,0,4,4,4,1,,,,,,,,,
,,,,,,,,,,,,,,,sixth,10,33,female,R,IMT,2021-07-10_08h52.41.286,ImageRatingTask_S1,2021.1.4,Win32,59.99880002,,,,,,,,,,,,,,,,,,,,,0,5,5,5,1,,,,,,,,,
,,,,,,,,,,,,,,,seventh,10,33,female,R,IMT,2021-07-10_08h52.41.286,ImageRatingTask_S1,2021.1.4,Win32,59.99880002,,,,,,,,,,,,,,,,,,,,,0,6,6,6,1,,,,,,,,,
,,,,,,,,,,,,,,,last,10,33,female,R,IMT,2021-07-10_08h52.41.286,ImageRatingTask_S1,2021.1.4,Win32,59.99880002,,,,,,,,,,,,,,,,,,,,,0,7,7,7,1,,,,,,,,,
,,,,,,,,,,,,,,,,10,33,female,R,IMT,2021-07-10_08h52.41.286,ImageRatingTask_S1,2021.1.4,Win32,59.99880002,,,,,,,,,,,,,,,,,,,,,,,,,,0,4,4,60,1,DreamStudyImages_rs1000x750g/Children/Faces_073_v.jpg,,,
,,,,,,,,,,,,,,,main,10,33,female,R,IMT,2021-07-10_08h52.41.286,ImageRatingTask_S1,2021.1.4,Win32,59.99880002,,,,,,,,,,,num_4,17.9014,num_5,11.2102,num_8,2.8849,num_1,1.9449,num_7,0.9478,0,0,0,0,1,,,,,,,,,
,,,,,,,,,,,,,,,second,10,33,female,R,IMT,2021-07-10_08h52.41.286,ImageRatingTask_S1,2021.1.4,Win32,59.99880002,,,,,,,,,,,,,,,,,,,,,0,1,1,1,1,,,,,,,,,
,,,,,,,,,,,,,,,third,10,33,female,R,IMT,2021-07-10_08h52.41.286,ImageRatingTask_S1,2021.1.4,Win32,59.99880002,,,,,,,,,,,,,,,,,,,,,0,2,2,2,1,,,,,,,,,
,,,,,,,,,,,,,,,fourth,10,33,female,R,IMT,2021-07-10_08h52.41.286,ImageRatingTask_S1,2021.1.4,Win32,59.99880002,,,,,,,,,,,,,,,,,,,,,0,3,3,3,1,,,,,,,,,
,,,,,,,,,,,,,,,fifth,10,33,female,R,IMT,2021-07-10_08h52.41.286,ImageRatingTask_S1,2021.1.4,Win32,59.99880002,,,,,,,,,,,,,,,,,,,,,0,4,4,4,1,,,,,,,,,
,,,,,,,,,,,,,,,sixth,10,33,female,R,IMT,2021-07-10_08h52.41.286,ImageRatingTask_S1,2021.1.4,Win32,59.99880002,,,,,,,,,,,,,,,,,,,,,0,5,5,5,1,,,,,,,,,
,,,,,,,,,,,,,,,seventh,10,33,female,R,IMT,2021-07-10_08h52.41.286,ImageRatingTask_S1,2021.1.4,Win32,59.99880002,,,,,,,,,,,,,,,,,,,,,0,6,6,6,1,,,,,,,,,
,,,,,,,,,,,,,,,last,10,33,female,R,IMT,2021-07-10_08h52.41.286,ImageRatingTask_S1,2021.1.4,Win32,59.99880002,,,,,,,,,,,,,,,,,,,,,0,7,7,7,1,,,,,,,,,
,,,,,,,,,,,,,,,,10,33,female,R,IMT,2021-07-10_08h52.41.286,ImageRatingTask_S1,2021.1.4,Win32,59.99880002,,,,,,,,,,,,,,,,,,,,,,,,,,0,5,5,154,1,DreamStudyImages_rs1000x750g/Vehicles/Plane crash 2.jpg,,,
,,,,,,,,,,,,,,,main,10,33,female,R,IMT,2021-07-10_08h52.41.286,ImageRatingTask_S1,2021.1.4,Win32,59.99880002,,,,,,,,,,,num_7,5.7964,num_2,3.2548,num_9,1.6423,num_1,4.2271,num_2,1.5204,0,0,0,0,1,,,,,,,,,
,,,,,,,,,,,,,,,second,10,33,female,R,IMT,2021-07-10_08h52.41.286,ImageRatingTask_S1,2021.1.4,Win32,59.99880002,,,,,,,,,,,,,,,,,,,,,0,1,1,1,1,,,,,,,,,
,,,,,,,,,,,,,,,third,10,33,female,R,IMT,2021-07-10_08h52.41.286,ImageRatingTask_S1,2021.1.4,Win32,59.99880002,,,,,,,,,,,,,,,,,,,,,0,2,2,2,1,,,,,,,,,
,,,,,,,,,,,,,,,fourth,10,33,female,R,IMT,2021-07-10_08h52.41.286,ImageRatingTask_S1,2021.1.4,Win32,59.99880002,,,,,,,,,,,,,,,,,,,,,0,3,3,3,1,,,,,,,,,
,,,,,,,,,,,,,,,fifth,10,33,female,R,IMT,2021-07-10_08h52.41.286,ImageRatingTask_S1,2021.1.4,Win32,59.99880002,,,,,,,,,,,,,,,,,,,,,0,4,4,4,1,,,,,,,,,
,,,,,,,,,,,,,,,sixth,10,33,female,R,IMT,2021-07-10_08h52.41.286,ImageRatingTask_S1,2021.1.4,Win32,59.99880002,,,,,,,,,,,,,,,,,,,,,0,5,5,5,1,,,,,,,,,
,,,,,,,,,,,,,,,seventh,10,33,female,R,IMT,2021-07-10_08h52.41.286,ImageRatingTask_S1,2021.1.4,Win32,59.99880002,,,,,,,,,,,,,,,,,,,,,0,6,6,6,1,,,,,,,,,
,,,,,,,,,,,,,,,last,10,33,female,R,IMT,2021-07-10_08h52.41.286,ImageRatingTask_S1,2021.1.4,Win32,59.99880002,,,,,,,,,,,,,,,,,,,,,0,7,7,7,1,,,,,,,,,
,,,,,,,,,,,,,,,,10,33,female,R,IMT,2021-07-10_08h52.41.286,ImageRatingTask_S1,2021.1.4,Win32,59.99880002,,,,,,,,,,,,,,,,,,,,,,,,,,0,6,6,7,1,DreamStudyImages_rs1000x750g/Children/Faces_062_v.jpg,,,
,,,,,,,,,,,,,,,main,10,33,female,R,IMT,2021-07-10_08h52.41.286,ImageRatingTask_S1,2021.1.4,Win32,59.99880002,,,,,,,,,,,num_1,6.1423,num_6,6.311,num_9,10.7726,num_1,7.0173,num_8,2.1968,0,0,0,0,1,,,,,,,,,
,,,,,,,,,,,,,,,second,10,33,female,R,IMT,2021-07-10_08h52.41.286,ImageRatingTask_S1,2021.1.4,Win32,59.99880002,,,,,,,,,,,,,,,,,,,,,0,1,1,1,1,,,,,,,,,
,,,,,,,,,,,,,,,third,10,33,female,R,IMT,2021-07-10_08h52.41.286,ImageRatingTask_S1,2021.1.4,Win32,59.99880002,,,,,,,,,,,,,,,,,,,,,0,2,2,2,1,,,,,,,,,
,,,,,,,,,,,,,,,fourth,10,33,female,R,IMT,2021-07-10_08h52.41.286,ImageRatingTask_S1,2021.1.4,Win32,59.99880002,,,,,,,,,,,,,,,,,,,,,0,3,3,3,1,,,,,,,,,
,,,,,,,,,,,,,,,fifth,10,33,female,R,IMT,2021-07-10_08h52.41.286,ImageRatingTask_S1,2021.1.4,Win32,59.99880002,,,,,,,,,,,,,,,,,,,,,0,4,4,4,1,,,,,,,,,
,,,,,,,,,,,,,,,sixth,10,33,female,R,IMT,2021-07-10_08h52.41.286,ImageRatingTask_S1,2021.1.4,Win32,59.99880002,,,,,,,,,,,,,,,,,,,,,0,5,5,5,1,,,,,,,,,
,,,,,,,,,,,,,,,seventh,10,33,female,R,IMT,2021-07-10_08h52.41.286,ImageRatingTask_S1,2021.1.4,Win32,59.99880002,,,,,,,,,,,,,,,,,,,,,0,6,6,6,1,,,,,,,,,
,,,,,,,,,,,,,,,last,10,33,female,R,IMT,2021-07-10_08h52.41.286,ImageRatingTask_S1,2021.1.4,Win32,59.99880002,,,,,,,,,,,,,,,,,,,,,0,7,7,7,1,,,,,,,,,
,,,,,,,,,,,,,,,,10,33,female,R,IMT,2021-07-10_08h52.41.286,ImageRatingTask_S1,2021.1.4,Win32,59.99880002,,,,,,,,,,,,,,,,,,,,,,,,,,0,7,7,81,1,DreamStudyImages_rs1000x750g/Water/Explosion 5.jpg,,,
,,,,,,,,,,,,,,,main,10,33,female,R,IMT,2021-07-10_08h52.41.286,ImageRatingTask_S1,2021.1.4,Win32,59.99880002,,,,,,,,,,,num_5,9.4845,num_4,2.401,num_5,3.2937,num_1,6.8832,num_6,1.0095,0,0,0,0,1,,,,,,,,,
,,,,,,,,,,,,,,,second,10,33,female,R,IMT,2021-07-10_08h52.41.286,ImageRatingTask_S1,2021.1.4,Win32,59.99880002,,,,,,,,,,,,,,,,,,,,,0,1,1,1,1,,,,,,,,,
,,,,,,,,,,,,,,,third,10,33,female,R,IMT,2021-07-10_08h52.41.286,ImageRatingTask_S1,2021.1.4,Win32,59.99880002,,,,,,,,,,,,,,,,,,,,,0,2,2,2,1,,,,,,,,,
,,,,,,,,,,,,,,,fourth,10,33,female,R,IMT,2021-07-10_08h52.41.286,ImageRatingTask_S1,2021.1.4,Win32,59.99880002,,,,,,,,,,,,,,,,,,,,,0,3,3,3,1,,,,,,,,,
,,,,,,,,,,,,,,,fifth,10,33,female,R,IMT,2021-07-10_08h52.41.286,ImageRatingTask_S1,2021.1.4,Win32,59.99880002,,,,,,,,,,,,,,,,,,,,,0,4,4,4,1,,,,,,,,,
,,,,,,,,,,,,,,,sixth,10,33,female,R,IMT,2021-07-10_08h52.41.286,ImageRatingTask_S1,2021.1.4,Win32,59.99880002,,,,,,,,,,,,,,,,,,,,,0,5,5,5,1,,,,,,,,,
,,,,,,,,,,,,,,,seventh,10,33,female,R,IMT,2021-07-10_08h52.41.286,ImageRatingTask_S1,2021.1.4,Win32,59.99880002,,,,,,,,,,,,,,,,,,,,,0,6,6,6,1,,,,,,,,,
,,,,,,,,,,,,,,,last,10,33,female,R,IMT,2021-07-10_08h52.41.286,ImageRatingTask_S1,2021.1.4,Win32,59.99880002,,,,,,,,,,,,,,,,,,,,,0,7,7,7,1,,,,,,,,,
,,,,,,,,,,,,,,,,10,33,female,R,IMT,2021-07-10_08h52.41.286,ImageRatingTask_S1,2021.1.4,Win32,59.99880002,,,,,,,,,,,,,,,,,,,,,,,,,,0,8,8,138,1,DreamStudyImages_rs1000x750g/Houses/IAPS5994_hotels_CROPPED.jpg,,,
,,,,,,,,,,,,,,,main,10,33,female,R,IMT,2021-07-10_08h52.41.286,ImageRatingTask_S1,2021.1.4,Win32,59.99880002,,,,,,,,,,,num_5,3.1524,num_2,4.4268,num_8,4.0135,num_2,18.3267,num_8,1.5038,0,0,0,0,1,,,,,,,,,
,,,,,,,,,,,,,,,second,10,33,female,R,IMT,2021-07-10_08h52.41.286,ImageRatingTask_S1,2021.1.4,Win32,59.99880002,,,,,,,,,,,,,,,,,,,num_2,1.7025,0,1,1,1,1,,,,,,,,,
,,,,,,,,,,,,,,,third,10,33,female,R,IMT,2021-07-10_08h52.41.286,ImageRatingTask_S1,2021.1.4,Win32,59.99880002,,,,,,,,,,,,,,,,,,,,,0,2,2,2,1,,,,,,,,,
,,,,,,,,,,,,,,,fourth,10,33,female,R,IMT,2021-07-10_08h52.41.286,ImageRatingTask_S1,2021.1.4,Win32,59.99880002,,,,,,,,,,,,,,,,,,,,,0,3,3,3,1,,,,,,,,,
,,,,,,,,,,,,,,,fifth,10,33,female,R,IMT,2021-07-10_08h52.41.286,ImageRatingTask_S1,2021.1.4,Win32,59.99880002,,,,,,,,,,,,,,,,,,,,,0,4,4,4,1,,,,,,,,,
,,,,,,,,,,,,,,,sixth,10,33,female,R,IMT,2021-07-10_08h52.41.286,ImageRatingTask_S1,2021.1.4,Win32,59.99880002,,,,,,,,,,,,,,,,,,,,,0,5,5,5,1,,,,,,,,,
,,,,,,,,,,,,,,,seventh,10,33,female,R,IMT,2021-07-10_08h52.41.286,ImageRatingTask_S1,2021.1.4,Win32,59.99880002,,,,,,,,,,,,,,,,,,,,,0,6,6,6,1,,,,,,,,,
,,,,,,,,,,,,,,,last,10,33,female,R,IMT,2021-07-10_08h52.41.286,ImageRatingTask_S1,2021.1.4,Win32,59.99880002,,,,,,,,,,,,,,,,,,,,,0,7,7,7,1,,,,,,,,,
,,,,,,,,,,,,,,,,10,33,female,R,IMT,2021-07-10_08h52.41.286,ImageRatingTask_S1,2021.1.4,Win32,59.99880002,,,,,,,,,,,,,,,,,,,,,,,,,,0,9,9,18,1,DreamStudyImages_rs1000x750g/Water/IAPS2446_mudpuddle.jpg,,,
,,,,,,,,,,,,,,,main,10,33,female,R,IMT,2021-07-10_08h52.41.286,ImageRatingTask_S1,2021.1.4,Win32,59.99880002,,,,,,,,,,,num_9,2.2658,num_1,1.1454,num_8,2.3983,num_1,1.5988,num_2,1.0871,0,0,0,0,1,,,,,,,,,
,,,,,,,,,,,,,,,second,10,33,female,R,IMT,2021-07-10_08h52.41.286,ImageRatingTask_S1,2021.1.4,Win32,59.99880002,,,,,,,,,,,,,,,,,,,,,0,1,1,1,1,,,,,,,,,
,,,,,,,,,,,,,,,third,10,33,female,R,IMT,2021-07-10_08h52.41.286,ImageRatingTask_S1,2021.1.4,Win32,59.99880002,,,,,,,,,,,,,,,,,,,,,0,2,2,2,1,,,,,,,,,
,,,,,,,,,,,,,,,fourth,10,33,female,R,IMT,2021-07-10_08h52.41.286,ImageRatingTask_S1,2021.1.4,Win32,59.99880002,,,,,,,,,,,,,,,,,,,,,0,3,3,3,1,,,,,,,,,
,,,,,,,,,,,,,,,fifth,10,33,female,R,IMT,2021-07-10_08h52.41.286,ImageRatingTask_S1,2021.1.4,Win32,59.99880002,,,,,,,,,,,,,,,,,,,,,0,4,4,4,1,,,,,,,,,
,,,,,,,,,,,,,,,sixth,10,33,female,R,IMT,2021-07-10_08h52.41.286,ImageRatingTask_S1,2021.1.4,Win32,59.99880002,,,,,,,,,,,,,,,,,,,,,0,5,5,5,1,,,,,,,,,
,,,,,,,,,,,,,,,seventh,10,33,female,R,IMT,2021-07-10_08h52.41.286,ImageRatingTask_S1,2021.1.4,Win32,59.99880002,,,,,,,,,,,,,,,,,,,,,0,6,6,6,1,,,,,,,,,
,,,,,,,,,,,,,,,last,10,33,female,R,IMT,2021-07-10_08h52.41.286,ImageRatingTask_S1,2021.1.4,Win32,59.99880002,,,,,,,,,,,,,,,,,,,,,0,7,7,7,1,,,,,,,,,
,,,,,,,,,,,,,,,,10,33,female,R,IMT,2021-07-10_08h52.41.286,ImageRatingTask_S1,2021.1.4,Win32,59.99880002,,,,,,,,,,,,,,,,,,,,,,,,,,0,10,10,76,1,DreamStudyImages_rs1000x750g/Children/Faces_114_h.jpg,,,
,,,,,,,,,,,,,,,main,10,33,female,R,IMT,2021-07-10_08h52.41.286,ImageRatingTask_S1,2021.1.4,Win32,59.99880002,,,,,,,,,,,num_5,2.3566,num_2,5.5308,num_9,1.9654,num_1,1.8337,num_6,0.9558,0,0,0,0,1,,,,,,,,,
,,,,,,,,,,,,,,,second,10,33,female,R,IMT,2021-07-10_08h52.41.286,ImageRatingTask_S1,2021.1.4,Win32,59.99880002,,,,,,,,,,,,,,,,,,,,,0,1,1,1,1,,,,,,,,,
,,,,,,,,,,,,,,,third,10,33,female,R,IMT,2021-07-10_08h52.41.286,ImageRatingTask_S1,2021.1.4,Win32,59.99880002,,,,,,,,,,,,,,,,,,,,,0,2,2,2,1,,,,,,,,,
,,,,,,,,,,,,,,,fourth,10,33,female,R,IMT,2021-07-10_08h52.41.286,ImageRatingTask_S1,2021.1.4,Win32,59.99880002,,,,,,,,,,,,,,,,,,,,,0,3,3,3,1,,,,,,,,,
,,,,,,,,,,,,,,,fifth,10,33,female,R,IMT,2021-07-10_08h52.41.286,ImageRatingTask_S1,2021.1.4,Win32,59.99880002,,,,,,,,,,,,,,,,,,,,,0,4,4,4,1,,,,,,,,,
,,,,,,,,,,,,,,,sixth,10,33,female,R,IMT,2021-07-10_08h52.41.286,ImageRatingTask_S1,2021.1.4,Win32,59.99880002,,,,,,,,,,,,,,,,,,,,,0,5,5,5,1,,,,,,,,,
,,,,,,,,,,,,,,,seventh,10,33,female,R,IMT,2021-07-10_08h52.41.286,ImageRatingTask_S1,2021.1.4,Win32,59.99880002,,,,,,,,,,,,,,,,,,,,,0,6,6,6,1,,,,,,,,,
,,,,,,,,,,,,,,,last,10,33,female,R,IMT,2021-07-10_08h52.41.286,ImageRatingTask_S1,2021.1.4,Win32,59.99880002,,,,,,,,,,,,,,,,,,,,,0,7,7,7,1,,,,,,,,,
,,,,,,,,,,,,,,,,10,33,female,R,IMT,2021-07-10_08h52.41.286,ImageRatingTask_S1,2021.1.4,Win32,59.99880002,,,,,,,,,,,,,,,,,,,,,,,,,,0,11,11,117,1,DreamStudyImages_rs1000x750g/Houses/Landscapes_024_v.jpg,,,
,,,,,,,,,,,,,,,main,10,33,female,R,IMT,2021-07-10_08h52.41.286,ImageRatingTask_S1,2021.1.4,Win32,59.99880002,,,,,,,,,,,num_7,4.7601,num_2,1.6587,num_8,5.3774,num_1,2.812,num_5,0.9271,0,0,0,0,1,,,,,,,,,
,,,,,,,,,,,,,,,second,10,33,female,R,IMT,2021-07-10_08h52.41.286,ImageRatingTask_S1,2021.1.4,Win32,59.99880002,,,,,,,,,,,,,,,,,,,,,0,1,1,1,1,,,,,,,,,
,,,,,,,,,,,,,,,third,10,33,female,R,IMT,2021-07-10_08h52.41.286,ImageRatingTask_S1,2021.1.4,Win32,59.99880002,,,,,,,,,,,,,,,,,,,,,0,2,2,2,1,,,,,,,,,
,,,,,,,,,,,,,,,fourth,10,33,female,R,IMT,2021-07-10_08h52.41.286,ImageRatingTask_S1,2021.1.4,Win32,59.99880002,,,,,,,,,,,,,,,,,,,,,0,3,3,3,1,,,,,,,,,
,,,,,,,,,,,,,,,fifth,10,33,female,R,IMT,2021-07-10_08h52.41.286,ImageRatingTask_S1,2021.1.4,Win32,59.99880002,,,,,,,,,,,,,,,,,,,,,0,4,4,4,1,,,,,,,,,
,,,,,,,,,,,,,,,sixth,10,33,female,R,IMT,2021-07-10_08h52.41.286,ImageRatingTask_S1,2021.1.4,Win32,59.99880002,,,,,,,,,,,,,,,,,,,,,0,5,5,5,1,,,,,,,,,
,,,,,,,,,,,,,,,seventh,10,33,female,R,IMT,2021-07-10_08h52.41.286,ImageRatingTask_S1,2021.1.4,Win32,59.99880002,,,,,,,,,,,,,,,,,,,,,0,6,6,6,1,,,,,,,,,
,,,,,,,,,,,,,,,last,10,33,female,R,IMT,2021-07-10_08h52.41.286,ImageRatingTask_S1,2021.1.4,Win32,59.99880002,,,,,,,,,,,,,,,,,,,,,0,7,7,7,1,,,,,,,,,
,,,,,,,,,,,,,,,,10,33,female,R,IMT,2021-07-10_08h52.41.286,ImageRatingTask_S1,2021.1.4,Win32,59.99880002,,,,,,,,,,,,,,,,,,,,,,,,,,0,12,12,1,1,DreamStudyImages_rs1000x750g/Food/IAPS7289_diner2.jpg,,,
,,,,,,,,,,,,,,,main,10,33,female,R,IMT,2021-07-10_08h52.41.286,ImageRatingTask_S1,2021.1.4,Win32,59.99880002,,,,,,,,,,,num_5,3.4494,num_1,0.5771,num_8,2.9902,num_1,2.4452,num_7,0.874,0,0,0,0,1,,,,,,,,,
,,,,,,,,,,,,,,,second,10,33,female,R,IMT,2021-07-10_08h52.41.286,ImageRatingTask_S1,2021.1.4,Win32,59.99880002,,,,,,,,,,,,,,,,,,,,,0,1,1,1,1,,,,,,,,,
,,,,,,,,,,,,,,,third,10,33,female,R,IMT,2021-07-10_08h52.41.286,ImageRatingTask_S1,2021.1.4,Win32,59.99880002,,,,,,,,,,,,,,,,,,,,,0,2,2,2,1,,,,,,,,,
,,,,,,,,,,,,,,,fourth,10,33,female,R,IMT,2021-07-10_08h52.41.286,ImageRatingTask_S1,2021.1.4,Win32,59.99880002,,,,,,,,,,,,,,,,,,,,,0,3,3,3,1,,,,,,,,,
,,,,,,,,,,,,,,,fifth,10,33,female,R,IMT,2021-07-10_08h52.41.286,ImageRatingTask_S1,2021.1.4,Win32,59.99880002,,,,,,,,,,,,,,,,,,,,,0,4,4,4,1,,,,,,,,,
,,,,,,,,,,,,,,,sixth,10,33,female,R,IMT,2021-07-10_08h52.41.286,ImageRatingTask_S1,2021.1.4,Win32,59.99880002,,,,,,,,,,,,,,,,,,,,,0,5,5,5,1,,,,,,,,,
,,,,,,,,,,,,,,,seventh,10,33,female,R,IMT,2021-07-10_08h52.41.286,ImageRatingTask_S1,2021.1.4,Win32,59.99880002,,,,,,,,,,,,,,,,,,,,,0,6,6,6,1,,,,,,,,,
,,,,,,,,,,,,,,,last,10,33,female,R,IMT,2021-07-10_08h52.41.286,ImageRatingTask_S1,2021.1.4,Win32,59.99880002,,,,,,,,,,,,,,,,,,,,,0,7,7,7,1,,,,,,,,,
,,,,,,,,,,,,,,,,10,33,female,R,IMT,2021-07-10_08h52.41.286,ImageRatingTask_S1,2021.1.4,Win32,59.99880002,,,,,,,,,,,,,,,,,,,,,,,,,,0,13,13,126,1,DreamStudyImages_rs1000x750g/Vehicles/Objects_244_h.jpg,,,
,,,,,,,,,,,,,,,main,10,33,female,R,IMT,2021-07-10_08h52.41.286,ImageRatingTask_S1,2021.1.4,Win32,59.99880002,,,,,,,,,,,num_5,4.4713,num_2,2.5121,num_9,3.8462,num_1,1.9376,num_5,1.0312,0,0,0,0,1,,,,,,,,,
,,,,,,,,,,,,,,,second,10,33,female,R,IMT,2021-07-10_08h52.41.286,ImageRatingTask_S1,2021.1.4,Win32,59.99880002,,,,,,,,,,,,,,,,,,,,,0,1,1,1,1,,,,,,,,,
,,,,,,,,,,,,,,,third,10,33,female,R,IMT,2021-07-10_08h52.41.286,ImageRatingTask_S1,2021.1.4,Win32,59.99880002,,,,,,,,,,,,,,,,,,,,,0,2,2,2,1,,,,,,,,,
,,,,,,,,,,,,,,,fourth,10,33,female,R,IMT,2021-07-10_08h52.41.286,ImageRatingTask_S1,2021.1.4,Win32,59.99880002,,,,,,,,,,,,,,,,,,,,,0,3,3,3,1,,,,,,,,,
,,,,,,,,,,,,,,,fifth,10,33,female,R,IMT,2021-07-10_08h52.41.286,ImageRatingTask_S1,2021.1.4,Win32,59.99880002,,,,,,,,,,,,,,,,,,,,,0,4,4,4,1,,,,,,,,,
,,,,,,,,,,,,,,,sixth,10,33,female,R,IMT,2021-07-10_08h52.41.286,ImageRatingTask_S1,2021.1.4,Win32,59.99880002,,,,,,,,,,,,,,,,,,,,,0,5,5,5,1,,,,,,,,,
,,,,,,,,,,,,,,,seventh,10,33,female,R,IMT,2021-07-10_08h52.41.286,ImageRatingTask_S1,2021.1.4,Win32,59.99880002,,,,,,,,,,,,,,,,,,,,,0,6,6,6,1,,,,,,,,,
,,,,,,,,,,,,,,,last,10,33,female,R,IMT,2021-07-10_08h52.41.286,ImageRatingTask_S1,2021.1.4,Win32,59.99880002,,,,,,,,,,,,,,,,,,,,,0,7,7,7,1,,,,,,,,,
,,,,,,,,,,,,,,,,10,33,female,R,IMT,2021-07-10_08h52.41.286,ImageRatingTask_S1,2021.1.4,Win32,59.99880002,,,,,,,,,,,,,,,,,,,,,,,,,,0,14,14,109,1,DreamStudyImages_rs1000x750g/Food/Objects_033_h.jpg,,,
,,,,,,,,,,,,,,,main,10,33,female,R,IMT,2021-07-10_08h52.41.286,ImageRatingTask_S1,2021.1.4,Win32,59.99880002,,,,,,,,,,,num_9,2.4892,num_1,2.5086,num_9,1.2305,num_1,6.1505,num_3,1.843,0,0,0,0,1,,,,,,,,,
,,,,,,,,,,,,,,,second,10,33,female,R,IMT,2021-07-10_08h52.41.286,ImageRatingTask_S1,2021.1.4,Win32,59.99880002,,,,,,,,,,,,,,,,,,,,,0,1,1,1,1,,,,,,,,,
,,,,,,,,,,,,,,,third,10,33,female,R,IMT,2021-07-10_08h52.41.286,ImageRatingTask_S1,2021.1.4,Win32,59.99880002,,,,,,,,,,,,,,,,,,,,,0,2,2,2,1,,,,,,,,,
,,,,,,,,,,,,,,,fourth,10,33,female,R,IMT,2021-07-10_08h52.41.286,ImageRatingTask_S1,2021.1.4,Win32,59.99880002,,,,,,,,,,,,,,,,,,,,,0,3,3,3,1,,,,,,,,,
,,,,,,,,,,,,,,,fifth,10,33,female,R,IMT,2021-07-10_08h52.41.286,ImageRatingTask_S1,2021.1.4,Win32,59.99880002,,,,,,,,,,,,,,,,,,,,,0,4,4,4,1,,,,,,,,,
,,,,,,,,,,,,,,,sixth,10,33,female,R,IMT,2021-07-10_08h52.41.286,ImageRatingTask_S1,2021.1.4,Win32,59.99880002,,,,,,,,,,,,,,,,,,,,,0,5,5,5,1,,,,,,,,,
,,,,,,,,,,,,,,,seventh,10,33,female,R,IMT,2021-07-10_08h52.41.286,ImageRatingTask_S1,2021.1.4,Win32,59.99880002,,,,,,,,,,,,,,,,,,,,,0,6,6,6,1,,,,,,,,,
,,,,,,,,,,,,,,,last,10,33,female,R,IMT,2021-07-10_08h52.41.286,ImageRatingTask_S1,2021.1.4,Win32,59.99880002,,,,,,,,,,,,,,,,,,,,,0,7,7,7,1,,,,,,,,,
,,,,,,,,,,,,,,,,10,33,female,R,IMT,2021-07-10_08h52.41.286,ImageRatingTask_S1,2021.1.4,Win32,59.99880002,,,,,,,,,,,,,,,,,,,,,,,,,,0,15,15,65,1,DreamStudyImages_rs1000x750g/Mammals/Chipmunk 3.jpg,,,
,,,,,,,,,,,,,,,main,10,33,female,R,IMT,2021-07-10_08h52.41.286,ImageRatingTask_S1,2021.1.4,Win32,59.99880002,,,,,,,,,,,num_5,7.0242,num_6,5.3376,num_8,6.4421,num_1,1.955,num_3,1.1693,0,0,0,0,1,,,,,,,,,
,,,,,,,,,,,,,,,second,10,33,female,R,IMT,2021-07-10_08h52.41.286,ImageRatingTask_S1,2021.1.4,Win32,59.99880002,,,,,,,,,,,,,,,,,,,,,0,1,1,1,1,,,,,,,,,
,,,,,,,,,,,,,,,third,10,33,female,R,IMT,2021-07-10_08h52.41.286,ImageRatingTask_S1,2021.1.4,Win32,59.99880002,,,,,,,,,,,,,,,,,,,,,0,2,2,2,1,,,,,,,,,
,,,,,,,,,,,,,,,fourth,10,33,female,R,IMT,2021-07-10_08h52.41.286,ImageRatingTask_S1,2021.1.4,Win32,59.99880002,,,,,,,,,,,,,,,,,,,,,0,3,3,3,1,,,,,,,,,
,,,,,,,,,,,,,,,fifth,10,33,female,R,IMT,2021-07-10_08h52.41.286,ImageRatingTask_S1,2021.1.4,Win32,59.99880002,,,,,,,,,,,,,,,,,,,,,0,4,4,4,1,,,,,,,,,
,,,,,,,,,,,,,,,sixth,10,33,female,R,IMT,2021-07-10_08h52.41.286,ImageRatingTask_S1,2021.1.4,Win32,59.99880002,,,,,,,,,,,,,,,,,,,,,0,5,5,5,1,,,,,,,,,
,,,,,,,,,,,,,,,seventh,10,33,female,R,IMT,2021-07-10_08h52.41.286,ImageRatingTask_S1,2021.1.4,Win32,59.99880002,,,,,,,,,,,,,,,,,,,,,0,6,6,6,1,,,,,,,,,
,,,,,,,,,,,,,,,last,10,33,female,R,IMT,2021-07-10_08h52.41.286,ImageRatingTask_S1,2021.1.4,Win32,59.99880002,,,,,,,,,,,,,,,,,,,,,0,7,7,7,1,,,,,,,,,
,,,,,,,,,,,,,,,,10,33,female,R,IMT,2021-07-10_08h52.41.286,ImageRatingTask_S1,2021.1.4,Win32,59.99880002,,,,,,,,,,,,,,,,,,,,,,,,,,0,16,16,112,1,DreamStudyImages_rs1000x750g/Mammals/1675.jpg,,,
,,,,,,,,,,,,,,,main,10,33,female,R,IMT,2021-07-10_08h52.41.286,ImageRatingTask_S1,2021.1.4,Win32,59.99880002,,,,,,,,,,,num_5,3.8528,num_5,3.7431,num_9,2.5577,num_1,2.3824,num_6,0.9904,0,0,0,0,1,,,,,,,,,
,,,,,,,,,,,,,,,second,10,33,female,R,IMT,2021-07-10_08h52.41.286,ImageRatingTask_S1,2021.1.4,Win32,59.99880002,,,,,,,,,,,,,,,,,,,,,0,1,1,1,1,,,,,,,,,
,,,,,,,,,,,,,,,third,10,33,female,R,IMT,2021-07-10_08h52.41.286,ImageRatingTask_S1,2021.1.4,Win32,59.99880002,,,,,,,,,,,,,,,,,,,,,0,2,2,2,1,,,,,,,,,
,,,,,,,,,,,,,,,fourth,10,33,female,R,IMT,2021-07-10_08h52.41.286,ImageRatingTask_S1,2021.1.4,Win32,59.99880002,,,,,,,,,,,,,,,,,,,,,0,3,3,3,1,,,,,,,,,
,,,,,,,,,,,,,,,fifth,10,33,female,R,IMT,2021-07-10_08h52.41.286,ImageRatingTask_S1,2021.1.4,Win32,59.99880002,,,,,,,,,,,,,,,,,,,,,0,4,4,4,1,,,,,,,,,
,,,,,,,,,,,,,,,sixth,10,33,female,R,IMT,2021-07-10_08h52.41.286,ImageRatingTask_S1,2021.1.4,Win32,59.99880002,,,,,,,,,,,,,,,,,,,,,0,5,5,5,1,,,,,,,,,
,,,,,,,,,,,,,,,seventh,10,33,female,R,IMT,2021-07-10_08h52.41.286,ImageRatingTask_S1,2021.1.4,Win32,59.99880002,,,,,,,,,,,,,,,,,,,,,0,6,6,6,1,,,,,,,,,
,,,,,,,,,,,,,,,last,10,33,female,R,IMT,2021-07-10_08h52.41.286,ImageRatingTask_S1,2021.1.4,Win32,59.99880002,,,,,,,,,,,,,,,,,,,,,0,7,7,7,1,,,,,,,,,
,,,,,,,,,,,,,,,,10,33,female,R,IMT,2021-07-10_08h52.41.286,ImageRatingTask_S1,2021.1.4,Win32,59.99880002,,,,,,,,,,,,,,,,,,,,,,,,,,0,17,17,64,1,DreamStudyImages_rs1000x750g/Houses/Objects_128_h.jpg,,,
,,,,,,,,,,,,,,,main,10,33,female,R,IMT,2021-07-10_08h52.41.286,ImageRatingTask_S1,2021.1.4,Win32,59.99880002,,,,,,,,,,,num_5,8.6897,num_4,1.3251,num_9,1.3523,num_1,1.8841,num_5,1.1183,0,0,0,0,1,,,,,,,,,
,,,,,,,,,,,,,,,second,10,33,female,R,IMT,2021-07-10_08h52.41.286,ImageRatingTask_S1,2021.1.4,Win32,59.99880002,,,,,,,,,,,,,,,,,,,,,0,1,1,1,1,,,,,,,,,
,,,,,,,,,,,,,,,third,10,33,female,R,IMT,2021-07-10_08h52.41.286,ImageRatingTask_S1,2021.1.4,Win32,59.99880002,,,,,,,,,,,,,,,,,,,,,0,2,2,2,1,,,,,,,,,
,,,,,,,,,,,,,,,fourth,10,33,female,R,IMT,2021-07-10_08h52.41.286,ImageRatingTask_S1,2021.1.4,Win32,59.99880002,,,,,,,,,,,,,,,,,,,,,0,3,3,3,1,,,,,,,,,
,,,,,,,,,,,,,,,fifth,10,33,female,R,IMT,2021-07-10_08h52.41.286,ImageRatingTask_S1,2021.1.4,Win32,59.99880002,,,,,,,,,,,,,,,,,,,,,0,4,4,4,1,,,,,,,,,
,,,,,,,,,,,,,,,sixth,10,33,female,R,IMT,2021-07-10_08h52.41.286,ImageRatingTask_S1,2021.1.4,Win32,59.99880002,,,,,,,,,,,,,,,,,,,,,0,5,5,5,1,,,,,,,,,
,,,,,,,,,,,,,,,seventh,10,33,female,R,IMT,2021-07-10_08h52.41.286,ImageRatingTask_S1,2021.1.4,Win32,59.99880002,,,,,,,,,,,,,,,,,,,,,0,6,6,6,1,,,,,,,,,
,,,,,,,,,,,,,,,last,10,33,female,R,IMT,2021-07-10_08h52.41.286,ImageRatingTask_S1,2021.1.4,Win32,59.99880002,,,,,,,,,,,,,,,,,,,,,0,7,7,7,1,,,,,,,,,
,,,,,,,,,,,,,,,,10,33,female,R,IMT,2021-07-10_08h52.41.286,ImageRatingTask_S1,2021.1.4,Win32,59.99880002,,,,,,,,,,,,,,,,,,,,,,,,,,0,18,18,90,1,DreamStudyImages_rs1000x750g/Food/Objects_056_h.jpg,,,
,,,,,,,,,,,,,,,main,10,33,female,R,IMT,2021-07-10_08h52.41.286,ImageRatingTask_S1,2021.1.4,Win32,59.99880002,,,,,,,,,,,num_2,3.3428,num_8,3.1772,num_9,1.2412,num_1,4.6886,num_3,1.4954,0,0,0,0,1,,,,,,,,,
,,,,,,,,,,,,,,,second,10,33,female,R,IMT,2021-07-10_08h52.41.286,ImageRatingTask_S1,2021.1.4,Win32,59.99880002,,,,,,,,,,,,,,,,,,,,,0,1,1,1,1,,,,,,,,,
,,,,,,,,,,,,,,,third,10,33,female,R,IMT,2021-07-10_08h52.41.286,ImageRatingTask_S1,2021.1.4,Win32,59.99880002,,,,,,,,,,,,,,,,,,,,,0,2,2,2,1,,,,,,,,,
,,,,,,,,,,,,,,,fourth,10,33,female,R,IMT,2021-07-10_08h52.41.286,ImageRatingTask_S1,2021.1.4,Win32,59.99880002,,,,,,,,,,,,,,,,,,,,,0,3,3,3,1,,,,,,,,,
,,,,,,,,,,,,,,,fifth,10,33,female,R,IMT,2021-07-10_08h52.41.286,ImageRatingTask_S1,2021.1.4,Win32,59.99880002,,,,,,,,,,,,,,,,,,,,,0,4,4,4,1,,,,,,,,,
,,,,,,,,,,,,,,,sixth,10,33,female,R,IMT,2021-07-10_08h52.41.286,ImageRatingTask_S1,2021.1.4,Win32,59.99880002,,,,,,,,,,,,,,,,,,,,,0,5,5,5,1,,,,,,,,,
,,,,,,,,,,,,,,,seventh,10,33,female,R,IMT,2021-07-10_08h52.41.286,ImageRatingTask_S1,2021.1.4,Win32,59.99880002,,,,,,,,,,,,,,,,,,,,,0,6,6,6,1,,,,,,,,,
,,,,,,,,,,,,,,,last,10,33,female,R,IMT,2021-07-10_08h52.41.286,ImageRatingTask_S1,2021.1.4,Win32,59.99880002,,,,,,,,,,,,,,,,,,,,,0,7,7,7,1,,,,,,,,,
,,,,,,,,,,,,,,,,10,33,female,R,IMT,2021-07-10_08h52.41.286,ImageRatingTask_S1,2021.1.4,Win32,59.99880002,,,,,,,,,,,,,,,,,,,,,,,,,,0,19,19,57,1,DreamStudyImages_rs1000x750g/Mammals/Animals_012_h.jpg,,,
,,,,,,,,,,,,,,,main,10,33,female,R,IMT,2021-07-10_08h52.41.286,ImageRatingTask_S1,2021.1.4,Win32,59.99880002,,,,,,,,,,,num_9,4.2457,num_1,2.355,num_9,1.1434,num_1,1.2791,num_2,0.7266,0,0,0,0,1,,,,,,,,,
,,,,,,,,,,,,,,,second,10,33,female,R,IMT,2021-07-10_08h52.41.286,ImageRatingTask_S1,2021.1.4,Win32,59.99880002,,,,,,,,,,,,,,,,,,,,,0,1,1,1,1,,,,,,,,,
,,,,,,,,,,,,,,,third,10,33,female,R,IMT,2021-07-10_08h52.41.286,ImageRatingTask_S1,2021.1.4,Win32,59.99880002,,,,,,,,,,,,,,,,,,,,,0,2,2,2,1,,,,,,,,,
,,,,,,,,,,,,,,,fourth,10,33,female,R,IMT,2021-07-10_08h52.41.286,ImageRatingTask_S1,2021.1.4,Win32,59.99880002,,,,,,,,,,,,,,,,,,,,,0,3,3,3,1,,,,,,,,,
,,,,,,,,,,,,,,,fifth,10,33,female,R,IMT,2021-07-10_08h52.41.286,ImageRatingTask_S1,2021.1.4,Win32,59.99880002,,,,,,,,,,,,,,,,,,,,,0,4,4,4,1,,,,,,,,,
,,,,,,,,,,,,,,,sixth,10,33,female,R,IMT,2021-07-10_08h52.41.286,ImageRatingTask_S1,2021.1.4,Win32,59.99880002,,,,,,,,,,,,,,,,,,,,,0,5,5,5,1,,,,,,,,,
,,,,,,,,,,,,,,,seventh,10,33,female,R,IMT,2021-07-10_08h52.41.286,ImageRatingTask_S1,2021.1.4,Win32,59.99880002,,,,,,,,,,,,,,,,,,,,,0,6,6,6,1,,,,,,,,,
,,,,,,,,,,,,,,,last,10,33,female,R,IMT,2021-07-10_08h52.41.286,ImageRatingTask_S1,2021.1.4,Win32,59.99880002,,,,,,,,,,,,,,,,,,,,,0,7,7,7,1,,,,,,,,,
,,,,,,,,,,,,,,,,10,33,female,R,IMT,2021-07-10_08h52.41.286,ImageRatingTask_S1,2021.1.4,Win32,59.99880002,,,,,,,,,,,,,,,,,,,,,,,,,,0,20,20,141,1,DreamStudyImages_rs1000x750g/Children/IAPS2075_baby10.jpg,,,
,,,,,,,,,,,,,,,main,10,33,female,R,IMT,2021-07-10_08h52.41.286,ImageRatingTask_S1,2021.1.4,Win32,59.99880002,,,,,,,,,,,num_8,4.9213,num_2,2.5009,num_9,1.1798,num_1,1.4659,num_2,0.6349,0,0,0,0,1,,,,,,,,,
,,,,,,,,,,,,,,,second,10,33,female,R,IMT,2021-07-10_08h52.41.286,ImageRatingTask_S1,2021.1.4,Win32,59.99880002,,,,,,,,,,,,,,,,,,,,,0,1,1,1,1,,,,,,,,,
,,,,,,,,,,,,,,,third,10,33,female,R,IMT,2021-07-10_08h52.41.286,ImageRatingTask_S1,2021.1.4,Win32,59.99880002,,,,,,,,,,,,,,,,,,,,,0,2,2,2,1,,,,,,,,,
,,,,,,,,,,,,,,,fourth,10,33,female,R,IMT,2021-07-10_08h52.41.286,ImageRatingTask_S1,2021.1.4,Win32,59.99880002,,,,,,,,,,,,,,,,,,,,,0,3,3,3,1,,,,,,,,,
,,,,,,,,,,,,,,,fifth,10,33,female,R,IMT,2021-07-10_08h52.41.286,ImageRatingTask_S1,2021.1.4,Win32,59.99880002,,,,,,,,,,,,,,,,,,,,,0,4,4,4,1,,,,,,,,,
,,,,,,,,,,,,,,,sixth,10,33,female,R,IMT,2021-07-10_08h52.41.286,ImageRatingTask_S1,2021.1.4,Win32,59.99880002,,,,,,,,,,,,,,,,,,,,,0,5,5,5,1,,,,,,,,,
,,,,,,,,,,,,,,,seventh,10,33,female,R,IMT,2021-07-10_08h52.41.286,ImageRatingTask_S1,2021.1.4,Win32,59.99880002,,,,,,,,,,,,,,,,,,,,,0,6,6,6,1,,,,,,,,,
,,,,,,,,,,,,,,,last,10,33,female,R,IMT,2021-07-10_08h52.41.286,ImageRatingTask_S1,2021.1.4,Win32,59.99880002,,,,,,,,,,,,,,,,,,,,,0,7,7,7,1,,,,,,,,,
,,,,,,,,,,,,,,,,10,33,female,R,IMT,2021-07-10_08h52.41.286,ImageRatingTask_S1,2021.1.4,Win32,59.99880002,,,,,,,,,,,,,,,,,,,,,,,,,,0,21,21,2,1,DreamStudyImages_rs1000x750g/Children/People_042_h.jpg,,,
,,,,,,,,,,,,,,,main,10,33,female,R,IMT,2021-07-10_08h52.41.286,ImageRatingTask_S1,2021.1.4,Win32,59.99880002,,,,,,,,,,,num_5,4.5387,num_7,6.8041,num_9,1.0863,num_1,1.1924,num_3,1.5782,0,0,0,0,1,,,,,,,,,
,,,,,,,,,,,,,,,second,10,33,female,R,IMT,2021-07-10_08h52.41.286,ImageRatingTask_S1,2021.1.4,Win32,59.99880002,,,,,,,,,,,,,,,,,,,,,0,1,1,1,1,,,,,,,,,
,,,,,,,,,,,,,,,third,10,33,female,R,IMT,2021-07-10_08h52.41.286,ImageRatingTask_S1,2021.1.4,Win32,59.99880002,,,,,,,,,,,,,,,,,,,,,0,2,2,2,1,,,,,,,,,
,,,,,,,,,,,,,,,fourth,10,33,female,R,IMT,2021-07-10_08h52.41.286,ImageRatingTask_S1,2021.1.4,Win32,59.99880002,,,,,,,,,,,,,,,,,,,,,0,3,3,3,1,,,,,,,,,
,,,,,,,,,,,,,,,fifth,10,33,female,R,IMT,2021-07-10_08h52.41.286,ImageRatingTask_S1,2021.1.4,Win32,59.99880002,,,,,,,,,,,,,,,,,,,,,0,4,4,4,1,,,,,,,,,
,,,,,,,,,,,,,,,sixth,10,33,female,R,IMT,2021-07-10_08h52.41.286,ImageRatingTask_S1,2021.1.4,Win32,59.99880002,,,,,,,,,,,,,,,,,,,,,0,5,5,5,1,,,,,,,,,
,,,,,,,,,,,,,,,seventh,10,33,female,R,IMT,2021-07-10_08h52.41.286,ImageRatingTask_S1,2021.1.4,Win32,59.99880002,,,,,,,,,,,,,,,,,,,,,0,6,6,6,1,,,,,,,,,
,,,,,,,,,,,,,,,last,10,33,female,R,IMT,2021-07-10_08h52.41.286,ImageRatingTask_S1,2021.1.4,Win32,59.99880002,,,,,,,,,,,,,,,,,,,,,0,7,7,7,1,,,,,,,,,
,,,,,,,,,,,,,,,,10,33,female,R,IMT,2021-07-10_08h52.41.286,ImageRatingTask_S1,2021.1.4,Win32,59.99880002,,,,,,,,,,,,,,,,,,,,,,,,,,0,22,22,159,1,DreamStudyImages_rs1000x750g/Mammals/Lion 4.jpg,,,
,,,,,,,,,,,,,,,main,10,33,female,R,IMT,2021-07-10_08h52.41.286,ImageRatingTask_S1,2021.1.4,Win32,59.99880002,,,,,,,,,,,num_9,2.5783,num_4,6.8922,num_9,3.3761,num_1,1.6451,num_5,4.5702,0,0,0,0,1,,,,,,,,,
,,,,,,,,,,,,,,,second,10,33,female,R,IMT,2021-07-10_08h52.41.286,ImageRatingTask_S1,2021.1.4,Win32,59.99880002,,,,,,,,,,,,,,,,,,,,,0,1,1,1,1,,,,,,,,,
,,,,,,,,,,,,,,,third,10,33,female,R,IMT,2021-07-10_08h52.41.286,ImageRatingTask_S1,2021.1.4,Win32,59.99880002,,,,,,,,,,,,,,,,,,,,,0,2,2,2,1,,,,,,,,,
,,,,,,,,,,,,,,,fourth,10,33,female,R,IMT,2021-07-10_08h52.41.286,ImageRatingTask_S1,2021.1.4,Win32,59.99880002,,,,,,,,,,,,,,,,,,,,,0,3,3,3,1,,,,,,,,,
,,,,,,,,,,,,,,,fifth,10,33,female,R,IMT,2021-07-10_08h52.41.286,ImageRatingTask_S1,2021.1.4,Win32,59.99880002,,,,,,,,,,,,,,,,,,,,,0,4,4,4,1,,,,,,,,,
,,,,,,,,,,,,,,,sixth,10,33,female,R,IMT,2021-07-10_08h52.41.286,ImageRatingTask_S1,2021.1.4,Win32,59.99880002,,,,,,,,,,,,,,,,,,,,,0,5,5,5,1,,,,,,,,,
,,,,,,,,,,,,,,,seventh,10,33,female,R,IMT,2021-07-10_08h52.41.286,ImageRatingTask_S1,2021.1.4,Win32,59.99880002,,,,,,,,,,,,,,,,,,,,,0,6,6,6,1,,,,,,,,,
,,,,,,,,,,,,,,,last,10,33,female,R,IMT,2021-07-10_08h52.41.286,ImageRatingTask_S1,2021.1.4,Win32,59.99880002,,,,,,,,,,,,,,,,,,,,,0,7,7,7,1,,,,,,,,,
,,,,,,,,,,,,,,,,10,33,female,R,IMT,2021-07-10_08h52.41.286,ImageRatingTask_S1,2021.1.4,Win32,59.99880002,,,,,,,,,,,,,,,,,,,,,,,,,,0,23,23,74,1,DreamStudyImages_rs1000x750g/Food/Objects_068_v.jpg,,,
,,,,,,,,,,,,,,,main,10,33,female,R,IMT,2021-07-10_08h52.41.286,ImageRatingTask_S1,2021.1.4,Win32,59.99880002,,,,,,,,,,,num_9,1.8132,num_1,0.4564,num_9,1.3905,num_1,1.6625,num_8,2.7287,0,0,0,0,1,,,,,,,,,
,,,,,,,,,,,,,,,second,10,33,female,R,IMT,2021-07-10_08h52.41.286,ImageRatingTask_S1,2021.1.4,Win32,59.99880002,,,,,,,,,,,,,,,,,,,,,0,1,1,1,1,,,,,,,,,
,,,,,,,,,,,,,,,third,10,33,female,R,IMT,2021-07-10_08h52.41.286,ImageRatingTask_S1,2021.1.4,Win32,59.99880002,,,,,,,,,,,,,,,,,,,,,0,2,2,2,1,,,,,,,,,
,,,,,,,,,,,,,,,fourth,10,33,female,R,IMT,2021-07-10_08h52.41.286,ImageRatingTask_S1,2021.1.4,Win32,59.99880002,,,,,,,,,,,,,,,,,,,,,0,3,3,3,1,,,,,,,,,
,,,,,,,,,,,,,,,fifth,10,33,female,R,IMT,2021-07-10_08h52.41.286,ImageRatingTask_S1,2021.1.4,Win32,59.99880002,,,,,,,,,,,,,,,,,,,,,0,4,4,4,1,,,,,,,,,
,,,,,,,,,,,,,,,sixth,10,33,female,R,IMT,2021-07-10_08h52.41.286,ImageRatingTask_S1,2021.1.4,Win32,59.99880002,,,,,,,,,,,,,,,,,,,,,0,5,5,5,1,,,,,,,,,
,,,,,,,,,,,,,,,seventh,10,33,female,R,IMT,2021-07-10_08h52.41.286,ImageRatingTask_S1,2021.1.4,Win32,59.99880002,,,,,,,,,,,,,,,,,,,,,0,6,6,6,1,,,,,,,,,
,,,,,,,,,,,,,,,last,10,33,female,R,IMT,2021-07-10_08h52.41.286,ImageRatingTask_S1,2021.1.4,Win32,59.99880002,,,,,,,,,,,,,,,,,,,,,0,7,7,7,1,,,,,,,,,
,,,,,,,,,,,,,,,,10,33,female,R,IMT,2021-07-10_08h52.41.286,ImageRatingTask_S1,2021.1.4,Win32,59.99880002,,,,,,,,,,,,,,,,,,,,,,,,,,0,24,24,106,1,DreamStudyImages_rs1000x750g/Water/Lake 14.jpg,,,
,,,,,,,,,,,,,,,main,10,33,female,R,IMT,2021-07-10_08h52.41.286,ImageRatingTask_S1,2021.1.4,Win32,59.99880002,,,,,,,,,,,num_1,3.5798,num_9,1.9301,num_9,1.2478,num_1,1.5766,num_3,0.7596,0,0,0,0,1,,,,,,,,,
,,,,,,,,,,,,,,,second,10,33,female,R,IMT,2021-07-10_08h52.41.286,ImageRatingTask_S1,2021.1.4,Win32,59.99880002,,,,,,,,,,,,,,,,,,,,,0,1,1,1,1,,,,,,,,,
,,,,,,,,,,,,,,,third,10,33,female,R,IMT,2021-07-10_08h52.41.286,ImageRatingTask_S1,2021.1.4,Win32,59.99880002,,,,,,,,,,,,,,,,,,,,,0,2,2,2,1,,,,,,,,,
,,,,,,,,,,,,,,,fourth,10,33,female,R,IMT,2021-07-10_08h52.41.286,ImageRatingTask_S1,2021.1.4,Win32,59.99880002,,,,,,,,,,,,,,,,,,,,,0,3,3,3,1,,,,,,,,,
,,,,,,,,,,,,,,,fifth,10,33,female,R,IMT,2021-07-10_08h52.41.286,ImageRatingTask_S1,2021.1.4,Win32,59.99880002,,,,,,,,,,,,,,,,,,,,,0,4,4,4,1,,,,,,,,,
,,,,,,,,,,,,,,,sixth,10,33,female,R,IMT,2021-07-10_08h52.41.286,ImageRatingTask_S1,2021.1.4,Win32,59.99880002,,,,,,,,,,,,,,,,,,,,,0,5,5,5,1,,,,,,,,,
,,,,,,,,,,,,,,,seventh,10,33,female,R,IMT,2021-07-10_08h52.41.286,ImageRatingTask_S1,2021.1.4,Win32,59.99880002,,,,,,,,,,,,,,,,,,,,,0,6,6,6,1,,,,,,,,,
,,,,,,,,,,,,,,,last,10,33,female,R,IMT,2021-07-10_08h52.41.286,ImageRatingTask_S1,2021.1.4,Win32,59.99880002,,,,,,,,,,,,,,,,,,,,,0,7,7,7,1,,,,,,,,,
,,,,,,,,,,,,,,,,10,33,female,R,IMT,2021-07-10_08h52.41.286,ImageRatingTask_S1,2021.1.4,Win32,59.99880002,,,,,,,,,,,,,,,,,,,,,,,,,,0,25,25,135,1,DreamStudyImages_rs1000x750g/Mammals/Animals_050_h.jpg,,,
,,,,,,,,,,,,,,,main,10,33,female,R,IMT,2021-07-10_08h52.41.286,ImageRatingTask_S1,2021.1.4,Win32,59.99880002,,,,,,,,,,,num_5,1.641,num_3,3.1392,num_9,1.0243,num_0,6.1141,,,0,0,0,0,1,,,,,,,,,
,,,,,,,,,,,,,,,second,10,33,female,R,IMT,2021-07-10_08h52.41.286,ImageRatingTask_S1,2021.1.4,Win32,59.99880002,,,,,,,,,,,,,,,,,,,,,0,1,1,1,1,,,,,,,,,
,,,,,,,,,,,,,,,third,10,33,female,R,IMT,2021-07-10_08h52.41.286,ImageRatingTask_S1,2021.1.4,Win32,59.99880002,,,,,,,,,,,,,,,,,,,,,0,2,2,2,1,,,,,,,,,
,,,,,,,,,,,,,,,fourth,10,33,female,R,IMT,2021-07-10_08h52.41.286,ImageRatingTask_S1,2021.1.4,Win32,59.99880002,,,,,,,,,,,,,,,,,,,,,0,3,3,3,1,,,,,,,,,
,,,,,,,,,,,,,,,fifth,10,33,female,R,IMT,2021-07-10_08h52.41.286,ImageRatingTask_S1,2021.1.4,Win32,59.99880002,,,,,,,,,,,,,,,,,,,,,0,4,4,4,1,,,,,,,,,
,,,,,,,,,,,,,,,sixth,10,33,female,R,IMT,2021-07-10_08h52.41.286,ImageRatingTask_S1,2021.1.4,Win32,59.99880002,,,,,,,,,,,,,,,,,,,,,0,5,5,5,1,,,,,,,,,
,,,,,,,,,,,,,,,seventh,10,33,female,R,IMT,2021-07-10_08h52.41.286,ImageRatingTask_S1,2021.1.4,Win32,59.99880002,,,,,,,,,,,,,,,,,,,,,0,6,6,6,1,,,,,,,,,
,,,,,,,,,,,,,,,last,10,33,female,R,IMT,2021-07-10_08h52.41.286,ImageRatingTask_S1,2021.1.4,Win32,59.99880002,,,,,,,,,,,,,,,,,,,,,0,7,7,7,1,,,,,,,,,
,,,,,,,,,,,,,,,,10,33,female,R,IMT,2021-07-10_08h52.41.286,ImageRatingTask_S1,2021.1.4,Win32,59.99880002,,,,,,,,,,,,,,,,,,,,,,,,,,0,26,26,130,1,DreamStudyImages_rs1000x750g/Vehicles/Landscapes_028_h.jpg,,,
,,,,,,,,,,,,,,,main,10,33,female,R,IMT,2021-07-10_08h52.41.286,ImageRatingTask_S1,2021.1.4,Win32,59.99880002,,,,,,,,,,,num_1,5.9397,num_8,1.6582,num_9,1.1743,num_1,5.2301,num_4,1.2691,0,0,0,0,1,,,,,,,,,
,,,,,,,,,,,,,,,second,10,33,female,R,IMT,2021-07-10_08h52.41.286,ImageRatingTask_S1,2021.1.4,Win32,59.99880002,,,,,,,,,,,,,,,,,,,,,0,1,1,1,1,,,,,,,,,
,,,,,,,,,,,,,,,third,10,33,female,R,IMT,2021-07-10_08h52.41.286,ImageRatingTask_S1,2021.1.4,Win32,59.99880002,,,,,,,,,,,,,,,,,,,,,0,2,2,2,1,,,,,,,,,
,,,,,,,,,,,,,,,fourth,10,33,female,R,IMT,2021-07-10_08h52.41.286,ImageRatingTask_S1,2021.1.4,Win32,59.99880002,,,,,,,,,,,,,,,,,,,,,0,3,3,3,1,,,,,,,,,
,,,,,,,,,,,,,,,fifth,10,33,female,R,IMT,2021-07-10_08h52.41.286,ImageRatingTask_S1,2021.1.4,Win32,59.99880002,,,,,,,,,,,,,,,,,,,,,0,4,4,4,1,,,,,,,,,
,,,,,,,,,,,,,,,sixth,10,33,female,R,IMT,2021-07-10_08h52.41.286,ImageRatingTask_S1,2021.1.4,Win32,59.99880002,,,,,,,,,,,,,,,,,,,,,0,5,5,5,1,,,,,,,,,
,,,,,,,,,,,,,,,seventh,10,33,female,R,IMT,2021-07-10_08h52.41.286,ImageRatingTask_S1,2021.1.4,Win32,59.99880002,,,,,,,,,,,,,,,,,,,,,0,6,6,6,1,,,,,,,,,
,,,,,,,,,,,,,,,last,10,33,female,R,IMT,2021-07-10_08h52.41.286,ImageRatingTask_S1,2021.1.4,Win32,59.99880002,,,,,,,,,,,,,,,,,,,,,0,7,7,7,1,,,,,,,,,
,,,,,,,,,,,,,,,,10,33,female,R,IMT,2021-07-10_08h52.41.286,ImageRatingTask_S1,2021.1.4,Win32,59.99880002,,,,,,,,,,,,,,,,,,,,,,,,,,0,27,27,87,1,DreamStudyImages_rs1000x750g/Mammals/IAPS1617_mole.jpg,,,
,,,,,,,,,,,,,,,main,10,33,female,R,IMT,2021-07-10_08h52.41.286,ImageRatingTask_S1,2021.1.4,Win32,59.99880002,,,,,,,,,,,num_9,2.1846,num_2,2.0403,num_9,1.0439,num_0,1.4011,,,0,0,0,0,1,,,,,,,,,
,,,,,,,,,,,,,,,second,10,33,female,R,IMT,2021-07-10_08h52.41.286,ImageRatingTask_S1,2021.1.4,Win32,59.99880002,,,,,,,,,,,,,,,,,,,,,0,1,1,1,1,,,,,,,,,
,,,,,,,,,,,,,,,third,10,33,female,R,IMT,2021-07-10_08h52.41.286,ImageRatingTask_S1,2021.1.4,Win32,59.99880002,,,,,,,,,,,,,,,,,,,,,0,2,2,2,1,,,,,,,,,
,,,,,,,,,,,,,,,fourth,10,33,female,R,IMT,2021-07-10_08h52.41.286,ImageRatingTask_S1,2021.1.4,Win32,59.99880002,,,,,,,,,,,,,,,,,,,,,0,3,3,3,1,,,,,,,,,
,,,,,,,,,,,,,,,fifth,10,33,female,R,IMT,2021-07-10_08h52.41.286,ImageRatingTask_S1,2021.1.4,Win32,59.99880002,,,,,,,,,,,,,,,,,,,,,0,4,4,4,1,,,,,,,,,
,,,,,,,,,,,,,,,sixth,10,33,female,R,IMT,2021-07-10_08h52.41.286,ImageRatingTask_S1,2021.1.4,Win32,59.99880002,,,,,,,,,,,,,,,,,,,,,0,5,5,5,1,,,,,,,,,
,,,,,,,,,,,,,,,seventh,10,33,female,R,IMT,2021-07-10_08h52.41.286,ImageRatingTask_S1,2021.1.4,Win32,59.99880002,,,,,,,,,,,,,,,,,,,,,0,6,6,6,1,,,,,,,,,
,,,,,,,,,,,,,,,last,10,33,female,R,IMT,2021-07-10_08h52.41.286,ImageRatingTask_S1,2021.1.4,Win32,59.99880002,,,,,,,,,,,,,,,,,,,,,0,7,7,7,1,,,,,,,,,
,,,,,,,,,,,,,,,,10,33,female,R,IMT,2021-07-10_08h52.41.286,ImageRatingTask_S1,2021.1.4,Win32,59.99880002,,,,,,,,,,,,,,,,,,,,,,,,,,0,28,28,32,1,DreamStudyImages_rs1000x750g/Houses/Landscapes_088_v.jpg,,,
,,,,,,,,,,,,,,,main,10,33,female,R,IMT,2021-07-10_08h52.41.286,ImageRatingTask_S1,2021.1.4,Win32,59.99880002,,,,,,,,,,,num_5,5.2942,num_2,1.6362,num_9,1.1727,num_1,5.9295,num_7,0.8754,0,0,0,0,1,,,,,,,,,
,,,,,,,,,,,,,,,second,10,33,female,R,IMT,2021-07-10_08h52.41.286,ImageRatingTask_S1,2021.1.4,Win32,59.99880002,,,,,,,,,,,,,,,,,,,,,0,1,1,1,1,,,,,,,,,
,,,,,,,,,,,,,,,third,10,33,female,R,IMT,2021-07-10_08h52.41.286,ImageRatingTask_S1,2021.1.4,Win32,59.99880002,,,,,,,,,,,,,,,,,,,,,0,2,2,2,1,,,,,,,,,
,,,,,,,,,,,,,,,fourth,10,33,female,R,IMT,2021-07-10_08h52.41.286,ImageRatingTask_S1,2021.1.4,Win32,59.99880002,,,,,,,,,,,,,,,,,,,,,0,3,3,3,1,,,,,,,,,
,,,,,,,,,,,,,,,fifth,10,33,female,R,IMT,2021-07-10_08h52.41.286,ImageRatingTask_S1,2021.1.4,Win32,59.99880002,,,,,,,,,,,,,,,,,,,,,0,4,4,4,1,,,,,,,,,
,,,,,,,,,,,,,,,sixth,10,33,female,R,IMT,2021-07-10_08h52.41.286,ImageRatingTask_S1,2021.1.4,Win32,59.99880002,,,,,,,,,,,,,,,,,,,,,0,5,5,5,1,,,,,,,,,
,,,,,,,,,,,,,,,seventh,10,33,female,R,IMT,2021-07-10_08h52.41.286,ImageRatingTask_S1,2021.1.4,Win32,59.99880002,,,,,,,,,,,,,,,,,,,,,0,6,6,6,1,,,,,,,,,
,,,,,,,,,,,,,,,last,10,33,female,R,IMT,2021-07-10_08h52.41.286,ImageRatingTask_S1,2021.1.4,Win32,59.99880002,,,,,,,,,,,,,,,,,,,,,0,7,7,7,1,,,,,,,,,
,,,,,,,,,,,,,,,,10,33,female,R,IMT,2021-07-10_08h52.41.286,ImageRatingTask_S1,2021.1.4,Win32,59.99880002,,,,,,,,,,,,,,,,,,,,,,,,,,0,29,29,150,1,DreamStudyImages_rs1000x750g/Vehicles/Thunderstorm 3.jpg,,,
,,,,,,,,,,,,,,,main,10,33,female,R,IMT,2021-07-10_08h52.41.286,ImageRatingTask_S1,2021.1.4,Win32,59.99880002,,,,,,,,,,,num_9,3.1501,num_1,1.6791,num_9,1.0764,num_1,1.7972,num_3,1.7905,0,0,0,0,1,,,,,,,,,
,,,,,,,,,,,,,,,second,10,33,female,R,IMT,2021-07-10_08h52.41.286,ImageRatingTask_S1,2021.1.4,Win32,59.99880002,,,,,,,,,,,,,,,,,,,,,0,1,1,1,1,,,,,,,,,
,,,,,,,,,,,,,,,third,10,33,female,R,IMT,2021-07-10_08h52.41.286,ImageRatingTask_S1,2021.1.4,Win32,59.99880002,,,,,,,,,,,,,,,,,,,,,0,2,2,2,1,,,,,,,,,
,,,,,,,,,,,,,,,fourth,10,33,female,R,IMT,2021-07-10_08h52.41.286,ImageRatingTask_S1,2021.1.4,Win32,59.99880002,,,,,,,,,,,,,,,,,,,,,0,3,3,3,1,,,,,,,,,
,,,,,,,,,,,,,,,fifth,10,33,female,R,IMT,2021-07-10_08h52.41.286,ImageRatingTask_S1,2021.1.4,Win32,59.99880002,,,,,,,,,,,,,,,,,,,,,0,4,4,4,1,,,,,,,,,
,,,,,,,,,,,,,,,sixth,10,33,female,R,IMT,2021-07-10_08h52.41.286,ImageRatingTask_S1,2021.1.4,Win32,59.99880002,,,,,,,,,,,,,,,,,,,,,0,5,5,5,1,,,,,,,,,
,,,,,,,,,,,,,,,seventh,10,33,female,R,IMT,2021-07-10_08h52.41.286,ImageRatingTask_S1,2021.1.4,Win32,59.99880002,,,,,,,,,,,,,,,,,,,,,0,6,6,6,1,,,,,,,,,
,,,,,,,,,,,,,,,last,10,33,female,R,IMT,2021-07-10_08h52.41.286,ImageRatingTask_S1,2021.1.4,Win32,59.99880002,,,,,,,,,,,,,,,,,,,,,0,7,7,7,1,,,,,,,,,
,,,,,,,,,,,,,,,,10,33,female,R,IMT,2021-07-10_08h52.41.286,ImageRatingTask_S1,2021.1.4,Win32,59.99880002,,,,,,,,,,,,,,,,,,,,,,,,,,0,30,30,39,1,DreamStudyImages_rs1000x750g/Mammals/Animals_122_h.jpg,,,
,,,,,,,,,,,,,,,main,10,33,female,R,IMT,2021-07-10_08h52.41.286,ImageRatingTask_S1,2021.1.4,Win32,59.99880002,,,,,,,,,,,num_5,2.1563,num_2,1.5934,num_7,2.348,num_1,2.0478,num_5,0.8266,0,0,0,0,1,,,,,,,,,
,,,,,,,,,,,,,,,second,10,33,female,R,IMT,2021-07-10_08h52.41.286,ImageRatingTask_S1,2021.1.4,Win32,59.99880002,,,,,,,,,,,,,,,,,,,,,0,1,1,1,1,,,,,,,,,
,,,,,,,,,,,,,,,third,10,33,female,R,IMT,2021-07-10_08h52.41.286,ImageRatingTask_S1,2021.1.4,Win32,59.99880002,,,,,,,,,,,,,,,,,,,,,0,2,2,2,1,,,,,,,,,
,,,,,,,,,,,,,,,fourth,10,33,female,R,IMT,2021-07-10_08h52.41.286,ImageRatingTask_S1,2021.1.4,Win32,59.99880002,,,,,,,,,,,,,,,,,,,,,0,3,3,3,1,,,,,,,,,
,,,,,,,,,,,,,,,fifth,10,33,female,R,IMT,2021-07-10_08h52.41.286,ImageRatingTask_S1,2021.1.4,Win32,59.99880002,,,,,,,,,,,,,,,,,,,,,0,4,4,4,1,,,,,,,,,
,,,,,,,,,,,,,,,sixth,10,33,female,R,IMT,2021-07-10_08h52.41.286,ImageRatingTask_S1,2021.1.4,Win32,59.99880002,,,,,,,,,,,,,,,,,,,,,0,5,5,5,1,,,,,,,,,
,,,,,,,,,,,,,,,seventh,10,33,female,R,IMT,2021-07-10_08h52.41.286,ImageRatingTask_S1,2021.1.4,Win32,59.99880002,,,,,,,,,,,,,,,,,,,,,0,6,6,6,1,,,,,,,,,
,,,,,,,,,,,,,,,last,10,33,female,R,IMT,2021-07-10_08h52.41.286,ImageRatingTask_S1,2021.1.4,Win32,59.99880002,,,,,,,,,,,,,,,,,,,,,0,7,7,7,1,,,,,,,,,
,,,,,,,,,,,,,,,,10,33,female,R,IMT,2021-07-10_08h52.41.286,ImageRatingTask_S1,2021.1.4,Win32,59.99880002,,,,,,,,,,,,,,,,,,,,,,,,,,0,31,31,139,1,DreamStudyImages_rs1000x750g/Food/Objects_100_v.jpg,,,
,,,,,,,,,,,,,,,main,10,33,female,R,IMT,2021-07-10_08h52.41.286,ImageRatingTask_S1,2021.1.4,Win32,59.99880002,,,,,,,,,,,num_9,2.8732,num_8,3.6594,num_9,4.9284,num_1,1.3648,num_3,0.8559,0,0,0,0,1,,,,,,,,,
,,,,,,,,,,,,,,,second,10,33,female,R,IMT,2021-07-10_08h52.41.286,ImageRatingTask_S1,2021.1.4,Win32,59.99880002,,,,,,,,,,,,,,,,,,,,,0,1,1,1,1,,,,,,,,,
,,,,,,,,,,,,,,,third,10,33,female,R,IMT,2021-07-10_08h52.41.286,ImageRatingTask_S1,2021.1.4,Win32,59.99880002,,,,,,,,,,,,,,,,,,,,,0,2,2,2,1,,,,,,,,,
,,,,,,,,,,,,,,,fourth,10,33,female,R,IMT,2021-07-10_08h52.41.286,ImageRatingTask_S1,2021.1.4,Win32,59.99880002,,,,,,,,,,,,,,,,,,,,,0,3,3,3,1,,,,,,,,,
,,,,,,,,,,,,,,,fifth,10,33,female,R,IMT,2021-07-10_08h52.41.286,ImageRatingTask_S1,2021.1.4,Win32,59.99880002,,,,,,,,,,,,,,,,,,,,,0,4,4,4,1,,,,,,,,,
,,,,,,,,,,,,,,,sixth,10,33,female,R,IMT,2021-07-10_08h52.41.286,ImageRatingTask_S1,2021.1.4,Win32,59.99880002,,,,,,,,,,,,,,,,,,,,,0,5,5,5,1,,,,,,,,,
,,,,,,,,,,,,,,,seventh,10,33,female,R,IMT,2021-07-10_08h52.41.286,ImageRatingTask_S1,2021.1.4,Win32,59.99880002,,,,,,,,,,,,,,,,,,,,,0,6,6,6,1,,,,,,,,,
,,,,,,,,,,,,,,,last,10,33,female,R,IMT,2021-07-10_08h52.41.286,ImageRatingTask_S1,2021.1.4,Win32,59.99880002,,,,,,,,,,,,,,,,,,,,,0,7,7,7,1,,,,,,,,,
,,,,,,,,,,,,,,,,10,33,female,R,IMT,2021-07-10_08h52.41.286,ImageRatingTask_S1,2021.1.4,Win32,59.99880002,,,,,,,,,,,,,,,,,,,,,,,,,,0,32,32,36,1,DreamStudyImages_rs1000x750g/Mammals/IAPS1300_dog1.jpg,,,
,,,,,,,,,,,,,,,main,10,33,female,R,IMT,2021-07-10_08h52.41.286,ImageRatingTask_S1,2021.1.4,Win32,59.99880002,,,,,,,,,,,num_6,4.7827,num_3,2.8323,num_6,3.5197,num_1,1.8036,num_5,0.7841,0,0,0,0,1,,,,,,,,,
,,,,,,,,,,,,,,,second,10,33,female,R,IMT,2021-07-10_08h52.41.286,ImageRatingTask_S1,2021.1.4,Win32,59.99880002,,,,,,,,,,,,,,,,,,,,,0,1,1,1,1,,,,,,,,,
,,,,,,,,,,,,,,,third,10,33,female,R,IMT,2021-07-10_08h52.41.286,ImageRatingTask_S1,2021.1.4,Win32,59.99880002,,,,,,,,,,,,,,,,,,,,,0,2,2,2,1,,,,,,,,,
,,,,,,,,,,,,,,,fourth,10,33,female,R,IMT,2021-07-10_08h52.41.286,ImageRatingTask_S1,2021.1.4,Win32,59.99880002,,,,,,,,,,,,,,,,,,,,,0,3,3,3,1,,,,,,,,,
,,,,,,,,,,,,,,,fifth,10,33,female,R,IMT,2021-07-10_08h52.41.286,ImageRatingTask_S1,2021.1.4,Win32,59.99880002,,,,,,,,,,,,,,,,,,,,,0,4,4,4,1,,,,,,,,,
,,,,,,,,,,,,,,,sixth,10,33,female,R,IMT,2021-07-10_08h52.41.286,ImageRatingTask_S1,2021.1.4,Win32,59.99880002,,,,,,,,,,,,,,,,,,,,,0,5,5,5,1,,,,,,,,,
,,,,,,,,,,,,,,,seventh,10,33,female,R,IMT,2021-07-10_08h52.41.286,ImageRatingTask_S1,2021.1.4,Win32,59.99880002,,,,,,,,,,,,,,,,,,,,,0,6,6,6,1,,,,,,,,,
,,,,,,,,,,,,,,,last,10,33,female,R,IMT,2021-07-10_08h52.41.286,ImageRatingTask_S1,2021.1.4,Win32,59.99880002,,,,,,,,,,,,,,,,,,,,,0,7,7,7,1,,,,,,,,,
,,,,,,,,,,,,,,,,10,33,female,R,IMT,2021-07-10_08h52.41.286,ImageRatingTask_S1,2021.1.4,Win32,59.99880002,,,,,,,,,,,,,,,,,,,,,,,,,,0,33,33,82,1,DreamStudyImages_rs1000x750g/Food/IAPS7430_chocolate3.jpg,,,
,,,,,,,,,,,,,,,main,10,33,female,R,IMT,2021-07-10_08h52.41.286,ImageRatingTask_S1,2021.1.4,Win32,59.99880002,,,,,,,,,,,num_9,4.5394,num_2,1.5801,num_6,6.2451,num_1,1.1573,num_6,1.3396,0,0,0,0,1,,,,,,,,,
,,,,,,,,,,,,,,,second,10,33,female,R,IMT,2021-07-10_08h52.41.286,ImageRatingTask_S1,2021.1.4,Win32,59.99880002,,,,,,,,,,,,,,,,,,,,,0,1,1,1,1,,,,,,,,,
,,,,,,,,,,,,,,,third,10,33,female,R,IMT,2021-07-10_08h52.41.286,ImageRatingTask_S1,2021.1.4,Win32,59.99880002,,,,,,,,,,,,,,,,,,,,,0,2,2,2,1,,,,,,,,,
,,,,,,,,,,,,,,,fourth,10,33,female,R,IMT,2021-07-10_08h52.41.286,ImageRatingTask_S1,2021.1.4,Win32,59.99880002,,,,,,,,,,,,,,,,,,,,,0,3,3,3,1,,,,,,,,,
,,,,,,,,,,,,,,,fifth,10,33,female,R,IMT,2021-07-10_08h52.41.286,ImageRatingTask_S1,2021.1.4,Win32,59.99880002,,,,,,,,,,,,,,,,,,,,,0,4,4,4,1,,,,,,,,,
,,,,,,,,,,,,,,,sixth,10,33,female,R,IMT,2021-07-10_08h52.41.286,ImageRatingTask_S1,2021.1.4,Win32,59.99880002,,,,,,,,,,,,,,,,,,,,,0,5,5,5,1,,,,,,,,,
,,,,,,,,,,,,,,,seventh,10,33,female,R,IMT,2021-07-10_08h52.41.286,ImageRatingTask_S1,2021.1.4,Win32,59.99880002,,,,,,,,,,,,,,,,,,,,,0,6,6,6,1,,,,,,,,,
,,,,,,,,,,,,,,,last,10,33,female,R,IMT,2021-07-10_08h52.41.286,ImageRatingTask_S1,2021.1.4,Win32,59.99880002,,,,,,,,,,,,,,,,,,,,,0,7,7,7,1,,,,,,,,,
,,,,,,,,,,,,,,,,10,33,female,R,IMT,2021-07-10_08h52.41.286,ImageRatingTask_S1,2021.1.4,Win32,59.99880002,,,,,,,,,,,,,,,,,,,,,,,,,,0,34,34,68,1,DreamStudyImages_rs1000x750g/Houses/redhouse.jpg,,,
,,,,,,,,,,,,,,,main,10,33,female,R,IMT,2021-07-10_08h52.41.286,ImageRatingTask_S1,2021.1.4,Win32,59.99880002,,,,,,,,,,,num_2,9.2659,num_7,2.5034,num_7,3.5241,num_1,1.2358,num_3,2.2393,0,0,0,0,1,,,,,,,,,
,,,,,,,,,,,,,,,second,10,33,female,R,IMT,2021-07-10_08h52.41.286,ImageRatingTask_S1,2021.1.4,Win32,59.99880002,,,,,,,,,,,,,,,,,,,,,0,1,1,1,1,,,,,,,,,
,,,,,,,,,,,,,,,third,10,33,female,R,IMT,2021-07-10_08h52.41.286,ImageRatingTask_S1,2021.1.4,Win32,59.99880002,,,,,,,,,,,,,,,,,,,,,0,2,2,2,1,,,,,,,,,
,,,,,,,,,,,,,,,fourth,10,33,female,R,IMT,2021-07-10_08h52.41.286,ImageRatingTask_S1,2021.1.4,Win32,59.99880002,,,,,,,,,,,,,,,,,,,,,0,3,3,3,1,,,,,,,,,
,,,,,,,,,,,,,,,fifth,10,33,female,R,IMT,2021-07-10_08h52.41.286,ImageRatingTask_S1,2021.1.4,Win32,59.99880002,,,,,,,,,,,,,,,,,,,,,0,4,4,4,1,,,,,,,,,
,,,,,,,,,,,,,,,sixth,10,33,female,R,IMT,2021-07-10_08h52.41.286,ImageRatingTask_S1,2021.1.4,Win32,59.99880002,,,,,,,,,,,,,,,,,,,,,0,5,5,5,1,,,,,,,,,
,,,,,,,,,,,,,,,seventh,10,33,female,R,IMT,2021-07-10_08h52.41.286,ImageRatingTask_S1,2021.1.4,Win32,59.99880002,,,,,,,,,,,,,,,,,,,,,0,6,6,6,1,,,,,,,,,
,,,,,,,,,,,,,,,last,10,33,female,R,IMT,2021-07-10_08h52.41.286,ImageRatingTask_S1,2021.1.4,Win32,59.99880002,,,,,,,,,,,,,,,,,,,,,0,7,7,7,1,,,,,,,,,
,,,,,,,,,,,,,,,,10,33,female,R,IMT,2021-07-10_08h52.41.286,ImageRatingTask_S1,2021.1.4,Win32,59.99880002,,,,,,,,,,,,,,,,,,,,,,,,,,0,35,35,88,1,DreamStudyImages_rs1000x750g/Mammals/Dog 25.jpg,,,
,,,,,,,,,,,,,,,main,10,33,female,R,IMT,2021-07-10_08h52.41.286,ImageRatingTask_S1,2021.1.4,Win32,59.99880002,,,,,,,,,,,num_9,1.7953,num_1,0.4746,num_9,1.9932,num_1,1.1193,num_2,0.7022,0,0,0,0,1,,,,,,,,,
,,,,,,,,,,,,,,,second,10,33,female,R,IMT,2021-07-10_08h52.41.286,ImageRatingTask_S1,2021.1.4,Win32,59.99880002,,,,,,,,,,,,,,,,,,,,,0,1,1,1,1,,,,,,,,,
,,,,,,,,,,,,,,,third,10,33,female,R,IMT,2021-07-10_08h52.41.286,ImageRatingTask_S1,2021.1.4,Win32,59.99880002,,,,,,,,,,,,,,,,,,,,,0,2,2,2,1,,,,,,,,,
,,,,,,,,,,,,,,,fourth,10,33,female,R,IMT,2021-07-10_08h52.41.286,ImageRatingTask_S1,2021.1.4,Win32,59.99880002,,,,,,,,,,,,,,,,,,,,,0,3,3,3,1,,,,,,,,,
,,,,,,,,,,,,,,,fifth,10,33,female,R,IMT,2021-07-10_08h52.41.286,ImageRatingTask_S1,2021.1.4,Win32,59.99880002,,,,,,,,,,,,,,,,,,,,,0,4,4,4,1,,,,,,,,,
,,,,,,,,,,,,,,,sixth,10,33,female,R,IMT,2021-07-10_08h52.41.286,ImageRatingTask_S1,2021.1.4,Win32,59.99880002,,,,,,,,,,,,,,,,,,,,,0,5,5,5,1,,,,,,,,,
,,,,,,,,,,,,,,,seventh,10,33,female,R,IMT,2021-07-10_08h52.41.286,ImageRatingTask_S1,2021.1.4,Win32,59.99880002,,,,,,,,,,,,,,,,,,,,,0,6,6,6,1,,,,,,,,,
,,,,,,,,,,,,,,,last,10,33,female,R,IMT,2021-07-10_08h52.41.286,ImageRatingTask_S1,2021.1.4,Win32,59.99880002,,,,,,,,,,,,,,,,,,,,,0,7,7,7,1,,,,,,,,,
,,,,,,,,,,,,,,,,10,33,female,R,IMT,2021-07-10_08h52.41.286,ImageRatingTask_S1,2021.1.4,Win32,59.99880002,,,,,,,,,,,,,,,,,,,,,,,,,,0,36,36,119,1,DreamStudyImages_rs1000x750g/Children/IAPS2341_children9.jpg,,,
,,,,,,,,,,,,,,,main,10,33,female,R,IMT,2021-07-10_08h52.41.286,ImageRatingTask_S1,2021.1.4,Win32,59.99880002,,,,,,,,,,,num_6,3.3603,num_4,2.5741,num_9,3.0934,num_1,1.6586,num_7,0.8989,0,0,0,0,1,,,,,,,,,
,,,,,,,,,,,,,,,second,10,33,female,R,IMT,2021-07-10_08h52.41.286,ImageRatingTask_S1,2021.1.4,Win32,59.99880002,,,,,,,,,,,,,,,,,,,,,0,1,1,1,1,,,,,,,,,
,,,,,,,,,,,,,,,third,10,33,female,R,IMT,2021-07-10_08h52.41.286,ImageRatingTask_S1,2021.1.4,Win32,59.99880002,,,,,,,,,,,,,,,,,,,,,0,2,2,2,1,,,,,,,,,
,,,,,,,,,,,,,,,fourth,10,33,female,R,IMT,2021-07-10_08h52.41.286,ImageRatingTask_S1,2021.1.4,Win32,59.99880002,,,,,,,,,,,,,,,,,,,,,0,3,3,3,1,,,,,,,,,
,,,,,,,,,,,,,,,fifth,10,33,female,R,IMT,2021-07-10_08h52.41.286,ImageRatingTask_S1,2021.1.4,Win32,59.99880002,,,,,,,,,,,,,,,,,,,,,0,4,4,4,1,,,,,,,,,
,,,,,,,,,,,,,,,sixth,10,33,female,R,IMT,2021-07-10_08h52.41.286,ImageRatingTask_S1,2021.1.4,Win32,59.99880002,,,,,,,,,,,,,,,,,,,,,0,5,5,5,1,,,,,,,,,
,,,,,,,,,,,,,,,seventh,10,33,female,R,IMT,2021-07-10_08h52.41.286,ImageRatingTask_S1,2021.1.4,Win32,59.99880002,,,,,,,,,,,,,,,,,,,,,0,6,6,6,1,,,,,,,,,
,,,,,,,,,,,,,,,last,10,33,female,R,IMT,2021-07-10_08h52.41.286,ImageRatingTask_S1,2021.1.4,Win32,59.99880002,,,,,,,,,,,,,,,,,,,,,0,7,7,7,1,,,,,,,,,
,,,,,,,,,,,,,,,,10,33,female,R,IMT,2021-07-10_08h52.41.286,ImageRatingTask_S1,2021.1.4,Win32,59.99880002,,,,,,,,,,,,,,,,,,,,,,,,,,0,37,37,40,1,DreamStudyImages_rs1000x750g/Vehicles/8531.jpg,,,
,,,,,,,,,,,,,,,main,10,33,female,R,IMT,2021-07-10_08h52.41.286,ImageRatingTask_S1,2021.1.4,Win32,59.99880002,,,,,,,,,,,num_9,6.9054,num_1,2.8417,num_7,8.9786,num_1,1.2713,num_5,0.8052,0,0,0,0,1,,,,,,,,,
,,,,,,,,,,,,,,,second,10,33,female,R,IMT,2021-07-10_08h52.41.286,ImageRatingTask_S1,2021.1.4,Win32,59.99880002,,,,,,,,,,,,,,,,,,,,,0,1,1,1,1,,,,,,,,,
,,,,,,,,,,,,,,,third,10,33,female,R,IMT,2021-07-10_08h52.41.286,ImageRatingTask_S1,2021.1.4,Win32,59.99880002,,,,,,,,,,,,,,,,,,,,,0,2,2,2,1,,,,,,,,,
,,,,,,,,,,,,,,,fourth,10,33,female,R,IMT,2021-07-10_08h52.41.286,ImageRatingTask_S1,2021.1.4,Win32,59.99880002,,,,,,,,,,,,,,,,,,,,,0,3,3,3,1,,,,,,,,,
,,,,,,,,,,,,,,,fifth,10,33,female,R,IMT,2021-07-10_08h52.41.286,ImageRatingTask_S1,2021.1.4,Win32,59.99880002,,,,,,,,,,,,,,,,,,,,,0,4,4,4,1,,,,,,,,,
,,,,,,,,,,,,,,,sixth,10,33,female,R,IMT,2021-07-10_08h52.41.286,ImageRatingTask_S1,2021.1.4,Win32,59.99880002,,,,,,,,,,,,,,,,,,,,,0,5,5,5,1,,,,,,,,,
,,,,,,,,,,,,,,,seventh,10,33,female,R,IMT,2021-07-10_08h52.41.286,ImageRatingTask_S1,2021.1.4,Win32,59.99880002,,,,,,,,,,,,,,,,,,,,,0,6,6,6,1,,,,,,,,,
,,,,,,,,,,,,,,,last,10,33,female,R,IMT,2021-07-10_08h52.41.286,ImageRatingTask_S1,2021.1.4,Win32,59.99880002,,,,,,,,,,,,,,,,,,,,,0,7,7,7,1,,,,,,,,,
,,,,,,,,,,,,,,,,10,33,female,R,IMT,2021-07-10_08h52.41.286,ImageRatingTask_S1,2021.1.4,Win32,59.99880002,,,,,,,,,,,,,,,,,,,,,,,,,,0,38,38,120,1,DreamStudyImages_rs1000x750g/Food/IAPS7284_apricots.jpg,,,
,,,,,,,,,,,,,,,main,10,33,female,R,IMT,2021-07-10_08h52.41.286,ImageRatingTask_S1,2021.1.4,Win32,59.99880002,,,,,,,,,,,num_5,5.0352,num_2,1.3234,num_9,1.3994,num_1,1.1829,num_5,0.8309,0,0,0,0,1,,,,,,,,,
,,,,,,,,,,,,,,,second,10,33,female,R,IMT,2021-07-10_08h52.41.286,ImageRatingTask_S1,2021.1.4,Win32,59.99880002,,,,,,,,,,,,,,,,,,,,,0,1,1,1,1,,,,,,,,,
,,,,,,,,,,,,,,,third,10,33,female,R,IMT,2021-07-10_08h52.41.286,ImageRatingTask_S1,2021.1.4,Win32,59.99880002,,,,,,,,,,,,,,,,,,,,,0,2,2,2,1,,,,,,,,,
,,,,,,,,,,,,,,,fourth,10,33,female,R,IMT,2021-07-10_08h52.41.286,ImageRatingTask_S1,2021.1.4,Win32,59.99880002,,,,,,,,,,,,,,,,,,,,,0,3,3,3,1,,,,,,,,,
,,,,,,,,,,,,,,,fifth,10,33,female,R,IMT,2021-07-10_08h52.41.286,ImageRatingTask_S1,2021.1.4,Win32,59.99880002,,,,,,,,,,,,,,,,,,,,,0,4,4,4,1,,,,,,,,,
,,,,,,,,,,,,,,,sixth,10,33,female,R,IMT,2021-07-10_08h52.41.286,ImageRatingTask_S1,2021.1.4,Win32,59.99880002,,,,,,,,,,,,,,,,,,,,,0,5,5,5,1,,,,,,,,,
,,,,,,,,,,,,,,,seventh,10,33,female,R,IMT,2021-07-10_08h52.41.286,ImageRatingTask_S1,2021.1.4,Win32,59.99880002,,,,,,,,,,,,,,,,,,,,,0,6,6,6,1,,,,,,,,,
,,,,,,,,,,,,,,,last,10,33,female,R,IMT,2021-07-10_08h52.41.286,ImageRatingTask_S1,2021.1.4,Win32,59.99880002,,,,,,,,,,,,,,,,,,,,,0,7,7,7,1,,,,,,,,,
,,,,,,,,,,,,,,,,10,33,female,R,IMT,2021-07-10_08h52.41.286,ImageRatingTask_S1,2021.1.4,Win32,59.99880002,,,,,,,,,,,,,,,,,,,,,,,,,,0,39,39,99,1,DreamStudyImages_rs1000x750g/Food/Objects_071_h.jpg,,,
,,,,,,,,,,,,,,,main,10,33,female,R,IMT,2021-07-10_08h52.41.286,ImageRatingTask_S1,2021.1.4,Win32,59.99880002,,,,,,,,,,,num_9,3.957,num_1,1.257,num_7,4.3082,num_1,1.2229,num_8,1.3997,0,0,0,0,1,,,,,,,,,
,,,,,,,,,,,,,,,second,10,33,female,R,IMT,2021-07-10_08h52.41.286,ImageRatingTask_S1,2021.1.4,Win32,59.99880002,,,,,,,,,,,,,,,,,,,,,0,1,1,1,1,,,,,,,,,
,,,,,,,,,,,,,,,third,10,33,female,R,IMT,2021-07-10_08h52.41.286,ImageRatingTask_S1,2021.1.4,Win32,59.99880002,,,,,,,,,,,,,,,,,,,,,0,2,2,2,1,,,,,,,,,
,,,,,,,,,,,,,,,fourth,10,33,female,R,IMT,2021-07-10_08h52.41.286,ImageRatingTask_S1,2021.1.4,Win32,59.99880002,,,,,,,,,,,,,,,,,,,,,0,3,3,3,1,,,,,,,,,
,,,,,,,,,,,,,,,fifth,10,33,female,R,IMT,2021-07-10_08h52.41.286,ImageRatingTask_S1,2021.1.4,Win32,59.99880002,,,,,,,,,,,,,,,,,,,,,0,4,4,4,1,,,,,,,,,
,,,,,,,,,,,,,,,sixth,10,33,female,R,IMT,2021-07-10_08h52.41.286,ImageRatingTask_S1,2021.1.4,Win32,59.99880002,,,,,,,,,,,,,,,,,,,,,0,5,5,5,1,,,,,,,,,
,,,,,,,,,,,,,,,seventh,10,33,female,R,IMT,2021-07-10_08h52.41.286,ImageRatingTask_S1,2021.1.4,Win32,59.99880002,,,,,,,,,,,,,,,,,,,,,0,6,6,6,1,,,,,,,,,
,,,,,,,,,,,,,,,last,10,33,female,R,IMT,2021-07-10_08h52.41.286,ImageRatingTask_S1,2021.1.4,Win32,59.99880002,,,,,,,,,,,,,,,,,,,,,0,7,7,7,1,,,,,,,,,
,,,,,,,,,,,,,,,,10,33,female,R,IMT,2021-07-10_08h52.41.286,ImageRatingTask_S1,2021.1.4,Win32,59.99880002,,,,,,,,,,,,,,,,,,,,,,,,,,0,40,40,59,1,DreamStudyImages_rs1000x750g/Water/5270.jpg,,,
,,,,,,,,,,,,,,,main,10,33,female,R,IMT,2021-07-10_08h52.41.286,ImageRatingTask_S1,2021.1.4,Win32,59.99880002,,,,,,,,,,,num_9,2.5053,num_2,2.7761,num_9,1.4153,num_1,1.1875,num_2,0.4621,0,0,0,0,1,,,,,,,,,
,,,,,,,,,,,,,,,second,10,33,female,R,IMT,2021-07-10_08h52.41.286,ImageRatingTask_S1,2021.1.4,Win32,59.99880002,,,,,,,,,,,,,,,,,,,,,0,1,1,1,1,,,,,,,,,
,,,,,,,,,,,,,,,third,10,33,female,R,IMT,2021-07-10_08h52.41.286,ImageRatingTask_S1,2021.1.4,Win32,59.99880002,,,,,,,,,,,,,,,,,,,,,0,2,2,2,1,,,,,,,,,
,,,,,,,,,,,,,,,fourth,10,33,female,R,IMT,2021-07-10_08h52.41.286,ImageRatingTask_S1,2021.1.4,Win32,59.99880002,,,,,,,,,,,,,,,,,,,,,0,3,3,3,1,,,,,,,,,
,,,,,,,,,,,,,,,fifth,10,33,female,R,IMT,2021-07-10_08h52.41.286,ImageRatingTask_S1,2021.1.4,Win32,59.99880002,,,,,,,,,,,,,,,,,,,,,0,4,4,4,1,,,,,,,,,
,,,,,,,,,,,,,,,sixth,10,33,female,R,IMT,2021-07-10_08h52.41.286,ImageRatingTask_S1,2021.1.4,Win32,59.99880002,,,,,,,,,,,,,,,,,,,,,0,5,5,5,1,,,,,,,,,
,,,,,,,,,,,,,,,seventh,10,33,female,R,IMT,2021-07-10_08h52.41.286,ImageRatingTask_S1,2021.1.4,Win32,59.99880002,,,,,,,,,,,,,,,,,,,,,0,6,6,6,1,,,,,,,,,
,,,,,,,,,,,,,,,last,10,33,female,R,IMT,2021-07-10_08h52.41.286,ImageRatingTask_S1,2021.1.4,Win32,59.99880002,,,,,,,,,,,,,,,,,,,,,0,7,7,7,1,,,,,,,,,
,,,,,,,,,,,,,,,,10,33,female,R,IMT,2021-07-10_08h52.41.286,ImageRatingTask_S1,2021.1.4,Win32,59.99880002,,,,,,,,,,,,,,,,,,,,,,,,,,0,41,41,56,1,DreamStudyImages_rs1000x750g/Children/Gazing 3.jpg,,,
,,,,,,,,,,,,,,,main,10,33,female,R,IMT,2021-07-10_08h52.41.286,ImageRatingTask_S1,2021.1.4,Win32,59.99880002,,,,,,,,,,,num_5,1.8258,num_4,3.0866,num_9,1.9758,num_1,2.0293,num_7,0.7816,0,0,0,0,1,,,,,,,,,
,,,,,,,,,,,,,,,second,10,33,female,R,IMT,2021-07-10_08h52.41.286,ImageRatingTask_S1,2021.1.4,Win32,59.99880002,,,,,,,,,,,,,,,,,,,,,0,1,1,1,1,,,,,,,,,
,,,,,,,,,,,,,,,third,10,33,female,R,IMT,2021-07-10_08h52.41.286,ImageRatingTask_S1,2021.1.4,Win32,59.99880002,,,,,,,,,,,,,,,,,,,,,0,2,2,2,1,,,,,,,,,
,,,,,,,,,,,,,,,fourth,10,33,female,R,IMT,2021-07-10_08h52.41.286,ImageRatingTask_S1,2021.1.4,Win32,59.99880002,,,,,,,,,,,,,,,,,,,,,0,3,3,3,1,,,,,,,,,
,,,,,,,,,,,,,,,fifth,10,33,female,R,IMT,2021-07-10_08h52.41.286,ImageRatingTask_S1,2021.1.4,Win32,59.99880002,,,,,,,,,,,,,,,,,,,,,0,4,4,4,1,,,,,,,,,
,,,,,,,,,,,,,,,sixth,10,33,female,R,IMT,2021-07-10_08h52.41.286,ImageRatingTask_S1,2021.1.4,Win32,59.99880002,,,,,,,,,,,,,,,,,,,,,0,5,5,5,1,,,,,,,,,
,,,,,,,,,,,,,,,seventh,10,33,female,R,IMT,2021-07-10_08h52.41.286,ImageRatingTask_S1,2021.1.4,Win32,59.99880002,,,,,,,,,,,,,,,,,,,,,0,6,6,6,1,,,,,,,,,
,,,,,,,,,,,,,,,last,10,33,female,R,IMT,2021-07-10_08h52.41.286,ImageRatingTask_S1,2021.1.4,Win32,59.99880002,,,,,,,,,,,,,,,,,,,,,0,7,7,7,1,,,,,,,,,
,,,,,,,,,,,,,,,,10,33,female,R,IMT,2021-07-10_08h52.41.286,ImageRatingTask_S1,2021.1.4,Win32,59.99880002,,,,,,,,,,,,,,,,,,,,,,,,,,0,42,42,45,1,DreamStudyImages_rs1000x750g/Vehicles/roadtrain.jpg,,,
,,,,,,,,,,,,,,,main,10,33,female,R,IMT,2021-07-10_08h52.41.286,ImageRatingTask_S1,2021.1.4,Win32,59.99880002,,,,,,,,,,,num_9,2.4073,num_2,2.1931,num_7,1.7214,num_1,1.3513,num_2,0.7883,0,0,0,0,1,,,,,,,,,
,,,,,,,,,,,,,,,second,10,33,female,R,IMT,2021-07-10_08h52.41.286,ImageRatingTask_S1,2021.1.4,Win32,59.99880002,,,,,,,,,,,,,,,,,,,,,0,1,1,1,1,,,,,,,,,
,,,,,,,,,,,,,,,third,10,33,female,R,IMT,2021-07-10_08h52.41.286,ImageRatingTask_S1,2021.1.4,Win32,59.99880002,,,,,,,,,,,,,,,,,,,,,0,2,2,2,1,,,,,,,,,
,,,,,,,,,,,,,,,fourth,10,33,female,R,IMT,2021-07-10_08h52.41.286,ImageRatingTask_S1,2021.1.4,Win32,59.99880002,,,,,,,,,,,,,,,,,,,,,0,3,3,3,1,,,,,,,,,
,,,,,,,,,,,,,,,fifth,10,33,female,R,IMT,2021-07-10_08h52.41.286,ImageRatingTask_S1,2021.1.4,Win32,59.99880002,,,,,,,,,,,,,,,,,,,,,0,4,4,4,1,,,,,,,,,
,,,,,,,,,,,,,,,sixth,10,33,female,R,IMT,2021-07-10_08h52.41.286,ImageRatingTask_S1,2021.1.4,Win32,59.99880002,,,,,,,,,,,,,,,,,,,,,0,5,5,5,1,,,,,,,,,
,,,,,,,,,,,,,,,seventh,10,33,female,R,IMT,2021-07-10_08h52.41.286,ImageRatingTask_S1,2021.1.4,Win32,59.99880002,,,,,,,,,,,,,,,,,,,,,0,6,6,6,1,,,,,,,,,
,,,,,,,,,,,,,,,last,10,33,female,R,IMT,2021-07-10_08h52.41.286,ImageRatingTask_S1,2021.1.4,Win32,59.99880002,,,,,,,,,,,,,,,,,,,,,0,7,7,7,1,,,,,,,,,
,,,,,,,,,,,,,,,,10,33,female,R,IMT,2021-07-10_08h52.41.286,ImageRatingTask_S1,2021.1.4,Win32,59.99880002,,,,,,,,,,,,,,,,,,,,,,,,,,0,43,43,46,1,DreamStudyImages_rs1000x750g/Children/IAPS2070_baby8.jpg,,,
,,,,,,,,,,,,,,,main,10,33,female,R,IMT,2021-07-10_08h52.41.286,ImageRatingTask_S1,2021.1.4,Win32,59.99880002,,,,,,,,,,,num_7,10.6376,num_2,2.6173,num_8,5.2137,num_1,2.4825,num_7,1.3585,0,0,0,0,1,,,,,,,,,
,,,,,,,,,,,,,,,second,10,33,female,R,IMT,2021-07-10_08h52.41.286,ImageRatingTask_S1,2021.1.4,Win32,59.99880002,,,,,,,,,,,,,,,,,,,,,0,1,1,1,1,,,,,,,,,
,,,,,,,,,,,,,,,third,10,33,female,R,IMT,2021-07-10_08h52.41.286,ImageRatingTask_S1,2021.1.4,Win32,59.99880002,,,,,,,,,,,,,,,,,,,,,0,2,2,2,1,,,,,,,,,
,,,,,,,,,,,,,,,fourth,10,33,female,R,IMT,2021-07-10_08h52.41.286,ImageRatingTask_S1,2021.1.4,Win32,59.99880002,,,,,,,,,,,,,,,,,,,,,0,3,3,3,1,,,,,,,,,
,,,,,,,,,,,,,,,fifth,10,33,female,R,IMT,2021-07-10_08h52.41.286,ImageRatingTask_S1,2021.1.4,Win32,59.99880002,,,,,,,,,,,,,,,,,,,,,0,4,4,4,1,,,,,,,,,
,,,,,,,,,,,,,,,sixth,10,33,female,R,IMT,2021-07-10_08h52.41.286,ImageRatingTask_S1,2021.1.4,Win32,59.99880002,,,,,,,,,,,,,,,,,,,,,0,5,5,5,1,,,,,,,,,
,,,,,,,,,,,,,,,seventh,10,33,female,R,IMT,2021-07-10_08h52.41.286,ImageRatingTask_S1,2021.1.4,Win32,59.99880002,,,,,,,,,,,,,,,,,,,,,0,6,6,6,1,,,,,,,,,
,,,,,,,,,,,,,,,last,10,33,female,R,IMT,2021-07-10_08h52.41.286,ImageRatingTask_S1,2021.1.4,Win32,59.99880002,,,,,,,,,,,,,,,,,,,,,0,7,7,7,1,,,,,,,,,
,,,,,,,,,,,,,,,,10,33,female,R,IMT,2021-07-10_08h52.41.286,ImageRatingTask_S1,2021.1.4,Win32,59.99880002,,,,,,,,,,,,,,,,,,,,,,,,,,0,44,44,118,1,DreamStudyImages_rs1000x750g/Vehicles/Objects_300_h.jpg,,,
,,,,,,,,,,,,,,,main,10,33,female,R,IMT,2021-07-10_08h52.41.286,ImageRatingTask_S1,2021.1.4,Win32,59.99880002,,,,,,,,,,,num_9,1.7487,num_2,0.9408,num_8,8.9351,num_1,1.2602,num_2,2.1269,0,0,0,0,1,,,,,,,,,
,,,,,,,,,,,,,,,second,10,33,female,R,IMT,2021-07-10_08h52.41.286,ImageRatingTask_S1,2021.1.4,Win32,59.99880002,,,,,,,,,,,,,,,,,,,,,0,1,1,1,1,,,,,,,,,
,,,,,,,,,,,,,,,third,10,33,female,R,IMT,2021-07-10_08h52.41.286,ImageRatingTask_S1,2021.1.4,Win32,59.99880002,,,,,,,,,,,,,,,,,,,,,0,2,2,2,1,,,,,,,,,
,,,,,,,,,,,,,,,fourth,10,33,female,R,IMT,2021-07-10_08h52.41.286,ImageRatingTask_S1,2021.1.4,Win32,59.99880002,,,,,,,,,,,,,,,,,,,,,0,3,3,3,1,,,,,,,,,
,,,,,,,,,,,,,,,fifth,10,33,female,R,IMT,2021-07-10_08h52.41.286,ImageRatingTask_S1,2021.1.4,Win32,59.99880002,,,,,,,,,,,,,,,,,,,,,0,4,4,4,1,,,,,,,,,
,,,,,,,,,,,,,,,sixth,10,33,female,R,IMT,2021-07-10_08h52.41.286,ImageRatingTask_S1,2021.1.4,Win32,59.99880002,,,,,,,,,,,,,,,,,,,,,0,5,5,5,1,,,,,,,,,
,,,,,,,,,,,,,,,seventh,10,33,female,R,IMT,2021-07-10_08h52.41.286,ImageRatingTask_S1,2021.1.4,Win32,59.99880002,,,,,,,,,,,,,,,,,,,,,0,6,6,6,1,,,,,,,,,
,,,,,,,,,,,,,,,last,10,33,female,R,IMT,2021-07-10_08h52.41.286,ImageRatingTask_S1,2021.1.4,Win32,59.99880002,,,,,,,,,,,,,,,,,,,,,0,7,7,7,1,,,,,,,,,
,,,,,,,,,,,,,,,,10,33,female,R,IMT,2021-07-10_08h52.41.286,ImageRatingTask_S1,2021.1.4,Win32,59.99880002,,,,,,,,,,,,,,,,,,,,,,,,,,0,45,45,38,1,DreamStudyImages_rs1000x750g/Children/Faces_105_h.jpg,,,
,,,,,,,,,,,,,,,main,10,33,female,R,IMT,2021-07-10_08h52.41.286,ImageRatingTask_S1,2021.1.4,Win32,59.99880002,,,,,,,,,,,num_9,2.0084,num_2,1.293,num_8,1.4269,num_1,1.3167,num_2,0.9501,0,0,0,0,1,,,,,,,,,
,,,,,,,,,,,,,,,second,10,33,female,R,IMT,2021-07-10_08h52.41.286,ImageRatingTask_S1,2021.1.4,Win32,59.99880002,,,,,,,,,,,,,,,,,,,,,0,1,1,1,1,,,,,,,,,
,,,,,,,,,,,,,,,third,10,33,female,R,IMT,2021-07-10_08h52.41.286,ImageRatingTask_S1,2021.1.4,Win32,59.99880002,,,,,,,,,,,,,,,,,,,,,0,2,2,2,1,,,,,,,,,
,,,,,,,,,,,,,,,fourth,10,33,female,R,IMT,2021-07-10_08h52.41.286,ImageRatingTask_S1,2021.1.4,Win32,59.99880002,,,,,,,,,,,,,,,,,,,,,0,3,3,3,1,,,,,,,,,
,,,,,,,,,,,,,,,fifth,10,33,female,R,IMT,2021-07-10_08h52.41.286,ImageRatingTask_S1,2021.1.4,Win32,59.99880002,,,,,,,,,,,,,,,,,,,,,0,4,4,4,1,,,,,,,,,
,,,,,,,,,,,,,,,sixth,10,33,female,R,IMT,2021-07-10_08h52.41.286,ImageRatingTask_S1,2021.1.4,Win32,59.99880002,,,,,,,,,,,,,,,,,,,,,0,5,5,5,1,,,,,,,,,
,,,,,,,,,,,,,,,seventh,10,33,female,R,IMT,2021-07-10_08h52.41.286,ImageRatingTask_S1,2021.1.4,Win32,59.99880002,,,,,,,,,,,,,,,,,,,,,0,6,6,6,1,,,,,,,,,
,,,,,,,,,,,,,,,last,10,33,female,R,IMT,2021-07-10_08h52.41.286,ImageRatingTask_S1,2021.1.4,Win32,59.99880002,,,,,,,,,,,,,,,,,,,,,0,7,7,7,1,,,,,,,,,
,,,,,,,,,,,,,,,,10,33,female,R,IMT,2021-07-10_08h52.41.286,ImageRatingTask_S1,2021.1.4,Win32,59.99880002,,,,,,,,,,,,,,,,,,,,,,,,,,0,46,46,147,1,DreamStudyImages_rs1000x750g/Children/IAPS2058_baby6.jpg,,,
,,,,,,,,,,,,,,,main,10,33,female,R,IMT,2021-07-10_08h52.41.286,ImageRatingTask_S1,2021.1.4,Win32,59.99880002,,,,,,,,,,,num_5,2.1833,num_4,1.4758,num_8,2.0882,num_1,1.0803,num_7,1.8797,0,0,0,0,1,,,,,,,,,
,,,,,,,,,,,,,,,second,10,33,female,R,IMT,2021-07-10_08h52.41.286,ImageRatingTask_S1,2021.1.4,Win32,59.99880002,,,,,,,,,,,,,,,,,,,,,0,1,1,1,1,,,,,,,,,
,,,,,,,,,,,,,,,third,10,33,female,R,IMT,2021-07-10_08h52.41.286,ImageRatingTask_S1,2021.1.4,Win32,59.99880002,,,,,,,,,,,,,,,,,,,,,0,2,2,2,1,,,,,,,,,
,,,,,,,,,,,,,,,fourth,10,33,female,R,IMT,2021-07-10_08h52.41.286,ImageRatingTask_S1,2021.1.4,Win32,59.99880002,,,,,,,,,,,,,,,,,,,,,0,3,3,3,1,,,,,,,,,
,,,,,,,,,,,,,,,fifth,10,33,female,R,IMT,2021-07-10_08h52.41.286,ImageRatingTask_S1,2021.1.4,Win32,59.99880002,,,,,,,,,,,,,,,,,,,,,0,4,4,4,1,,,,,,,,,
,,,,,,,,,,,,,,,sixth,10,33,female,R,IMT,2021-07-10_08h52.41.286,ImageRatingTask_S1,2021.1.4,Win32,59.99880002,,,,,,,,,,,,,,,,,,,,,0,5,5,5,1,,,,,,,,,
,,,,,,,,,,,,,,,seventh,10,33,female,R,IMT,2021-07-10_08h52.41.286,ImageRatingTask_S1,2021.1.4,Win32,59.99880002,,,,,,,,,,,,,,,,,,,,,0,6,6,6,1,,,,,,,,,
,,,,,,,,,,,,,,,last,10,33,female,R,IMT,2021-07-10_08h52.41.286,ImageRatingTask_S1,2021.1.4,Win32,59.99880002,,,,,,,,,,,,,,,,,,,,,0,7,7,7,1,,,,,,,,,
,,,,,,,,,,,,,,,,10,33,female,R,IMT,2021-07-10_08h52.41.286,ImageRatingTask_S1,2021.1.4,Win32,59.99880002,,,,,,,,,,,,,,,,,,,,,,,,,,0,47,47,50,1,DreamStudyImages_rs1000x750g/Vehicles/Objects_205_h.jpg,,,
,,,,,,,,,,,,,,,main,10,33,female,R,IMT,2021-07-10_08h52.41.286,ImageRatingTask_S1,2021.1.4,Win32,59.99880002,,,,,,,,,,,num_5,4.9931,num_4,1.5187,num_8,2.0471,num_1,1.3127,num_5,0.7133,0,0,0,0,1,,,,,,,,,
,,,,,,,,,,,,,,,second,10,33,female,R,IMT,2021-07-10_08h52.41.286,ImageRatingTask_S1,2021.1.4,Win32,59.99880002,,,,,,,,,,,,,,,,,,,,,0,1,1,1,1,,,,,,,,,
,,,,,,,,,,,,,,,third,10,33,female,R,IMT,2021-07-10_08h52.41.286,ImageRatingTask_S1,2021.1.4,Win32,59.99880002,,,,,,,,,,,,,,,,,,,,,0,2,2,2,1,,,,,,,,,
,,,,,,,,,,,,,,,fourth,10,33,female,R,IMT,2021-07-10_08h52.41.286,ImageRatingTask_S1,2021.1.4,Win32,59.99880002,,,,,,,,,,,,,,,,,,,,,0,3,3,3,1,,,,,,,,,
,,,,,,,,,,,,,,,fifth,10,33,female,R,IMT,2021-07-10_08h52.41.286,ImageRatingTask_S1,2021.1.4,Win32,59.99880002,,,,,,,,,,,,,,,,,,,,,0,4,4,4,1,,,,,,,,,
,,,,,,,,,,,,,,,sixth,10,33,female,R,IMT,2021-07-10_08h52.41.286,ImageRatingTask_S1,2021.1.4,Win32,59.99880002,,,,,,,,,,,,,,,,,,,,,0,5,5,5,1,,,,,,,,,
,,,,,,,,,,,,,,,seventh,10,33,female,R,IMT,2021-07-10_08h52.41.286,ImageRatingTask_S1,2021.1.4,Win32,59.99880002,,,,,,,,,,,,,,,,,,,,,0,6,6,6,1,,,,,,,,,
,,,,,,,,,,,,,,,last,10,33,female,R,IMT,2021-07-10_08h52.41.286,ImageRatingTask_S1,2021.1.4,Win32,59.99880002,,,,,,,,,,,,,,,,,,,,,0,7,7,7,1,,,,,,,,,
,,,,,,,,,,,,,,,,10,33,female,R,IMT,2021-07-10_08h52.41.286,ImageRatingTask_S1,2021.1.4,Win32,59.99880002,,,,,,,,,,,,,,,,,,,,,,,,,,0,48,48,54,1,DreamStudyImages_rs1000x750g/Food/Objects_075_h.jpg,,,
,,,,,,,,,,,,,,,main,10,33,female,R,IMT,2021-07-10_08h52.41.286,ImageRatingTask_S1,2021.1.4,Win32,59.99880002,,,,,,,,,,,num_7,4.3672,num_3,1.4597,num_8,2.0346,num_1,3.8112,num_6,0.8392,0,0,0,0,1,,,,,,,,,
,,,,,,,,,,,,,,,second,10,33,female,R,IMT,2021-07-10_08h52.41.286,ImageRatingTask_S1,2021.1.4,Win32,59.99880002,,,,,,,,,,,,,,,,,,,,,0,1,1,1,1,,,,,,,,,
,,,,,,,,,,,,,,,third,10,33,female,R,IMT,2021-07-10_08h52.41.286,ImageRatingTask_S1,2021.1.4,Win32,59.99880002,,,,,,,,,,,,,,,,,,,,,0,2,2,2,1,,,,,,,,,
,,,,,,,,,,,,,,,fourth,10,33,female,R,IMT,2021-07-10_08h52.41.286,ImageRatingTask_S1,2021.1.4,Win32,59.99880002,,,,,,,,,,,,,,,,,,,,,0,3,3,3,1,,,,,,,,,
,,,,,,,,,,,,,,,fifth,10,33,female,R,IMT,2021-07-10_08h52.41.286,ImageRatingTask_S1,2021.1.4,Win32,59.99880002,,,,,,,,,,,,,,,,,,,,,0,4,4,4,1,,,,,,,,,
,,,,,,,,,,,,,,,sixth,10,33,female,R,IMT,2021-07-10_08h52.41.286,ImageRatingTask_S1,2021.1.4,Win32,59.99880002,,,,,,,,,,,,,,,,,,,,,0,5,5,5,1,,,,,,,,,
,,,,,,,,,,,,,,,seventh,10,33,female,R,IMT,2021-07-10_08h52.41.286,ImageRatingTask_S1,2021.1.4,Win32,59.99880002,,,,,,,,,,,,,,,,,,,,,0,6,6,6,1,,,,,,,,,
,,,,,,,,,,,,,,,last,10,33,female,R,IMT,2021-07-10_08h52.41.286,ImageRatingTask_S1,2021.1.4,Win32,59.99880002,,,,,,,,,,,,,,,,,,,,,0,7,7,7,1,,,,,,,,,
,,,,,,,,,,,,,,,,10,33,female,R,IMT,2021-07-10_08h52.41.286,ImageRatingTask_S1,2021.1.4,Win32,59.99880002,,,,,,,,,,,,,,,,,,,,,,,,,,0,49,49,9,1,DreamStudyImages_rs1000x750g/Houses/Landscapes_090_h_CROPPED.jpg,,,
,,,,,,,,,,,,,,,main,10,33,female,R,IMT,2021-07-10_08h52.41.286,ImageRatingTask_S1,2021.1.4,Win32,59.99880002,,,,,,,,,,,num_5,2.998,num_4,1.0975,num_9,2.0056,num_1,1.2069,num_7,1.1088,0,0,0,0,1,,,,,,,,,
,,,,,,,,,,,,,,,second,10,33,female,R,IMT,2021-07-10_08h52.41.286,ImageRatingTask_S1,2021.1.4,Win32,59.99880002,,,,,,,,,,,,,,,,,,,,,0,1,1,1,1,,,,,,,,,
,,,,,,,,,,,,,,,third,10,33,female,R,IMT,2021-07-10_08h52.41.286,ImageRatingTask_S1,2021.1.4,Win32,59.99880002,,,,,,,,,,,,,,,,,,,,,0,2,2,2,1,,,,,,,,,
,,,,,,,,,,,,,,,fourth,10,33,female,R,IMT,2021-07-10_08h52.41.286,ImageRatingTask_S1,2021.1.4,Win32,59.99880002,,,,,,,,,,,,,,,,,,,,,0,3,3,3,1,,,,,,,,,
,,,,,,,,,,,,,,,fifth,10,33,female,R,IMT,2021-07-10_08h52.41.286,ImageRatingTask_S1,2021.1.4,Win32,59.99880002,,,,,,,,,,,,,,,,,,,,,0,4,4,4,1,,,,,,,,,
,,,,,,,,,,,,,,,sixth,10,33,female,R,IMT,2021-07-10_08h52.41.286,ImageRatingTask_S1,2021.1.4,Win32,59.99880002,,,,,,,,,,,,,,,,,,,,,0,5,5,5,1,,,,,,,,,
,,,,,,,,,,,,,,,seventh,10,33,female,R,IMT,2021-07-10_08h52.41.286,ImageRatingTask_S1,2021.1.4,Win32,59.99880002,,,,,,,,,,,,,,,,,,,,,0,6,6,6,1,,,,,,,,,
,,,,,,,,,,,,,,,last,10,33,female,R,IMT,2021-07-10_08h52.41.286,ImageRatingTask_S1,2021.1.4,Win32,59.99880002,,,,,,,,,,,,,,,,,,,,,0,7,7,7,1,,,,,,,,,
,,,,,,,,,,,,,,,,10,33,female,R,IMT,2021-07-10_08h52.41.286,ImageRatingTask_S1,2021.1.4,Win32,59.99880002,,,,,,,,,,,,,,,,,,,,,,,,,,0,50,50,44,1,DreamStudyImages_rs1000x750g/Vehicles/dashboard.jpg,,,
,,,,,,,,,,,,,,,main,10,33,female,R,IMT,2021-07-10_08h52.41.286,ImageRatingTask_S1,2021.1.4,Win32,59.99880002,,,,,,,,,,,num_9,3.9971,num_1,4.3029,num_9,2.2061,num_1,4.1393,num_2,3.6261,0,0,0,0,1,,,,,,,,,
,,,,,,,,,,,,,,,second,10,33,female,R,IMT,2021-07-10_08h52.41.286,ImageRatingTask_S1,2021.1.4,Win32,59.99880002,,,,,,,,,,,,,,,,,,,,,0,1,1,1,1,,,,,,,,,
,,,,,,,,,,,,,,,third,10,33,female,R,IMT,2021-07-10_08h52.41.286,ImageRatingTask_S1,2021.1.4,Win32,59.99880002,,,,,,,,,,,,,,,,,,,,,0,2,2,2,1,,,,,,,,,
,,,,,,,,,,,,,,,fourth,10,33,female,R,IMT,2021-07-10_08h52.41.286,ImageRatingTask_S1,2021.1.4,Win32,59.99880002,,,,,,,,,,,,,,,,,,,,,0,3,3,3,1,,,,,,,,,
,,,,,,,,,,,,,,,fifth,10,33,female,R,IMT,2021-07-10_08h52.41.286,ImageRatingTask_S1,2021.1.4,Win32,59.99880002,,,,,,,,,,,,,,,,,,,,,0,4,4,4,1,,,,,,,,,
,,,,,,,,,,,,,,,sixth,10,33,female,R,IMT,2021-07-10_08h52.41.286,ImageRatingTask_S1,2021.1.4,Win32,59.99880002,,,,,,,,,,,,,,,,,,,,,0,5,5,5,1,,,,,,,,,
,,,,,,,,,,,,,,,seventh,10,33,female,R,IMT,2021-07-10_08h52.41.286,ImageRatingTask_S1,2021.1.4,Win32,59.99880002,,,,,,,,,,,,,,,,,,,,,0,6,6,6,1,,,,,,,,,
,,,,,,,,,,,,,,,last,10,33,female,R,IMT,2021-07-10_08h52.41.286,ImageRatingTask_S1,2021.1.4,Win32,59.99880002,,,,,,,,,,,,,,,,,,,,,0,7,7,7,1,,,,,,,,,
,,,,,,,,,,,,,,,,10,33,female,R,IMT,2021-07-10_08h52.41.286,ImageRatingTask_S1,2021.1.4,Win32,59.99880002,,,,,,,,,,,,,,,,,,,,,,,,,,0,51,51,14,1,DreamStudyImages_rs1000x750g/Children/Faces_119_v.jpg,,,
,,,,,,,,,,,,,,,main,10,33,female,R,IMT,2021-07-10_08h52.41.286,ImageRatingTask_S1,2021.1.4,Win32,59.99880002,,,,,,,,,,,num_5,2.691,num_6,5.609,num_9,2.5209,num_1,1.3011,num_5,0.7866,0,0,0,0,1,,,,,,,,,
,,,,,,,,,,,,,,,second,10,33,female,R,IMT,2021-07-10_08h52.41.286,ImageRatingTask_S1,2021.1.4,Win32,59.99880002,,,,,,,,,,,,,,,,,,,,,0,1,1,1,1,,,,,,,,,
,,,,,,,,,,,,,,,third,10,33,female,R,IMT,2021-07-10_08h52.41.286,ImageRatingTask_S1,2021.1.4,Win32,59.99880002,,,,,,,,,,,,,,,,,,,,,0,2,2,2,1,,,,,,,,,
,,,,,,,,,,,,,,,fourth,10,33,female,R,IMT,2021-07-10_08h52.41.286,ImageRatingTask_S1,2021.1.4,Win32,59.99880002,,,,,,,,,,,,,,,,,,,,,0,3,3,3,1,,,,,,,,,
,,,,,,,,,,,,,,,fifth,10,33,female,R,IMT,2021-07-10_08h52.41.286,ImageRatingTask_S1,2021.1.4,Win32,59.99880002,,,,,,,,,,,,,,,,,,,,,0,4,4,4,1,,,,,,,,,
,,,,,,,,,,,,,,,sixth,10,33,female,R,IMT,2021-07-10_08h52.41.286,ImageRatingTask_S1,2021.1.4,Win32,59.99880002,,,,,,,,,,,,,,,,,,,,,0,5,5,5,1,,,,,,,,,
,,,,,,,,,,,,,,,seventh,10,33,female,R,IMT,2021-07-10_08h52.41.286,ImageRatingTask_S1,2021.1.4,Win32,59.99880002,,,,,,,,,,,,,,,,,,,,,0,6,6,6,1,,,,,,,,,
,,,,,,,,,,,,,,,last,10,33,female,R,IMT,2021-07-10_08h52.41.286,ImageRatingTask_S1,2021.1.4,Win32,59.99880002,,,,,,,,,,,,,,,,,,,,,0,7,7,7,1,,,,,,,,,
,,,,,,,,,,,,,,,,10,33,female,R,IMT,2021-07-10_08h52.41.286,ImageRatingTask_S1,2021.1.4,Win32,59.99880002,,,,,,,,,,,,,,,,,,,,,,,,,,0,52,52,5,1,DreamStudyImages_rs1000x750g/Food/Objects_062_h.jpg,,,
,,,,,,,,,,,,,,,main,10,33,female,R,IMT,2021-07-10_08h52.41.286,ImageRatingTask_S1,2021.1.4,Win32,59.99880002,,,,,,,,,,,num_9,4.0775,num_1,1.096,num_9,1.1501,num_1,0.9153,num_3,6.9281,0,0,0,0,1,,,,,,,,,
,,,,,,,,,,,,,,,second,10,33,female,R,IMT,2021-07-10_08h52.41.286,ImageRatingTask_S1,2021.1.4,Win32,59.99880002,,,,,,,,,,,,,,,,,,,,,0,1,1,1,1,,,,,,,,,
,,,,,,,,,,,,,,,third,10,33,female,R,IMT,2021-07-10_08h52.41.286,ImageRatingTask_S1,2021.1.4,Win32,59.99880002,,,,,,,,,,,,,,,,,,,,,0,2,2,2,1,,,,,,,,,
,,,,,,,,,,,,,,,fourth,10,33,female,R,IMT,2021-07-10_08h52.41.286,ImageRatingTask_S1,2021.1.4,Win32,59.99880002,,,,,,,,,,,,,,,,,,,,,0,3,3,3,1,,,,,,,,,
,,,,,,,,,,,,,,,fifth,10,33,female,R,IMT,2021-07-10_08h52.41.286,ImageRatingTask_S1,2021.1.4,Win32,59.99880002,,,,,,,,,,,,,,,,,,,,,0,4,4,4,1,,,,,,,,,
,,,,,,,,,,,,,,,sixth,10,33,female,R,IMT,2021-07-10_08h52.41.286,ImageRatingTask_S1,2021.1.4,Win32,59.99880002,,,,,,,,,,,,,,,,,,,,,0,5,5,5,1,,,,,,,,,
,,,,,,,,,,,,,,,seventh,10,33,female,R,IMT,2021-07-10_08h52.41.286,ImageRatingTask_S1,2021.1.4,Win32,59.99880002,,,,,,,,,,,,,,,,,,,,,0,6,6,6,1,,,,,,,,,
,,,,,,,,,,,,,,,last,10,33,female,R,IMT,2021-07-10_08h52.41.286,ImageRatingTask_S1,2021.1.4,Win32,59.99880002,,,,,,,,,,,,,,,,,,,,,0,7,7,7,1,,,,,,,,,
,,,,,,,,,,,,,,,,10,33,female,R,IMT,2021-07-10_08h52.41.286,ImageRatingTask_S1,2021.1.4,Win32,59.99880002,,,,,,,,,,,,,,,,,,,,,,,,,,0,53,53,48,1,DreamStudyImages_rs1000x750g/Mammals/1410.jpg,,,
,,,,,,,,,,,,,,,main,10,33,female,R,IMT,2021-07-10_08h52.41.286,ImageRatingTask_S1,2021.1.4,Win32,59.99880002,,,,,,,,,,,num_5,2.0363,num_2,1.4919,num_8,4.7491,num_1,1.0565,num_7,1.209,0,0,0,0,1,,,,,,,,,
,,,,,,,,,,,,,,,second,10,33,female,R,IMT,2021-07-10_08h52.41.286,ImageRatingTask_S1,2021.1.4,Win32,59.99880002,,,,,,,,,,,,,,,,,,,,,0,1,1,1,1,,,,,,,,,
,,,,,,,,,,,,,,,third,10,33,female,R,IMT,2021-07-10_08h52.41.286,ImageRatingTask_S1,2021.1.4,Win32,59.99880002,,,,,,,,,,,,,,,,,,,,,0,2,2,2,1,,,,,,,,,
,,,,,,,,,,,,,,,fourth,10,33,female,R,IMT,2021-07-10_08h52.41.286,ImageRatingTask_S1,2021.1.4,Win32,59.99880002,,,,,,,,,,,,,,,,,,,,,0,3,3,3,1,,,,,,,,,
,,,,,,,,,,,,,,,fifth,10,33,female,R,IMT,2021-07-10_08h52.41.286,ImageRatingTask_S1,2021.1.4,Win32,59.99880002,,,,,,,,,,,,,,,,,,,,,0,4,4,4,1,,,,,,,,,
,,,,,,,,,,,,,,,sixth,10,33,female,R,IMT,2021-07-10_08h52.41.286,ImageRatingTask_S1,2021.1.4,Win32,59.99880002,,,,,,,,,,,,,,,,,,,,,0,5,5,5,1,,,,,,,,,
,,,,,,,,,,,,,,,seventh,10,33,female,R,IMT,2021-07-10_08h52.41.286,ImageRatingTask_S1,2021.1.4,Win32,59.99880002,,,,,,,,,,,,,,,,,,,,,0,6,6,6,1,,,,,,,,,
,,,,,,,,,,,,,,,last,10,33,female,R,IMT,2021-07-10_08h52.41.286,ImageRatingTask_S1,2021.1.4,Win32,59.99880002,,,,,,,,,,,,,,,,,,,,,0,7,7,7,1,,,,,,,,,
,,,,,,,,,,,,,,,,10,33,female,R,IMT,2021-07-10_08h52.41.286,ImageRatingTask_S1,2021.1.4,Win32,59.99880002,,,,,,,,,,,,,,,,,,,,,,,,,,0,54,54,10,1,DreamStudyImages_rs1000x750g/Vehicles/Objects_290_h.jpg,,,
,,,,,,,,,,,,,,,main,10,33,female,R,IMT,2021-07-10_08h52.41.286,ImageRatingTask_S1,2021.1.4,Win32,59.99880002,,,,,,,,,,,num_9,2.0283,num_1,0.8728,num_9,1.1572,num_1,1.1363,num_8,1.1788,0,0,0,0,1,,,,,,,,,
,,,,,,,,,,,,,,,second,10,33,female,R,IMT,2021-07-10_08h52.41.286,ImageRatingTask_S1,2021.1.4,Win32,59.99880002,,,,,,,,,,,,,,,,,,,,,0,1,1,1,1,,,,,,,,,
,,,,,,,,,,,,,,,third,10,33,female,R,IMT,2021-07-10_08h52.41.286,ImageRatingTask_S1,2021.1.4,Win32,59.99880002,,,,,,,,,,,,,,,,,,,,,0,2,2,2,1,,,,,,,,,
,,,,,,,,,,,,,,,fourth,10,33,female,R,IMT,2021-07-10_08h52.41.286,ImageRatingTask_S1,2021.1.4,Win32,59.99880002,,,,,,,,,,,,,,,,,,,,,0,3,3,3,1,,,,,,,,,
,,,,,,,,,,,,,,,fifth,10,33,female,R,IMT,2021-07-10_08h52.41.286,ImageRatingTask_S1,2021.1.4,Win32,59.99880002,,,,,,,,,,,,,,,,,,,,,0,4,4,4,1,,,,,,,,,
,,,,,,,,,,,,,,,sixth,10,33,female,R,IMT,2021-07-10_08h52.41.286,ImageRatingTask_S1,2021.1.4,Win32,59.99880002,,,,,,,,,,,,,,,,,,,,,0,5,5,5,1,,,,,,,,,
,,,,,,,,,,,,,,,seventh,10,33,female,R,IMT,2021-07-10_08h52.41.286,ImageRatingTask_S1,2021.1.4,Win32,59.99880002,,,,,,,,,,,,,,,,,,,,,0,6,6,6,1,,,,,,,,,
,,,,,,,,,,,,,,,last,10,33,female,R,IMT,2021-07-10_08h52.41.286,ImageRatingTask_S1,2021.1.4,Win32,59.99880002,,,,,,,,,,,,,,,,,,,,,0,7,7,7,1,,,,,,,,,
,,,,,,,,,,,,,,,,10,33,female,R,IMT,2021-07-10_08h52.41.286,ImageRatingTask_S1,2021.1.4,Win32,59.99880002,,,,,,,,,,,,,,,,,,,,,,,,,,0,55,55,15,1,DreamStudyImages_rs1000x750g/Water/Beach 2.jpg,,,
,,,,,,,,,,,,,,,main,10,33,female,R,IMT,2021-07-10_08h52.41.286,ImageRatingTask_S1,2021.1.4,Win32,59.99880002,,,,,,,,,,,num_9,1.5744,num_1,0.9085,num_7,2.655,num_1,1.2731,num_2,3.7466,0,0,0,0,1,,,,,,,,,
,,,,,,,,,,,,,,,second,10,33,female,R,IMT,2021-07-10_08h52.41.286,ImageRatingTask_S1,2021.1.4,Win32,59.99880002,,,,,,,,,,,,,,,,,,,,,0,1,1,1,1,,,,,,,,,
,,,,,,,,,,,,,,,third,10,33,female,R,IMT,2021-07-10_08h52.41.286,ImageRatingTask_S1,2021.1.4,Win32,59.99880002,,,,,,,,,,,,,,,,,,,,,0,2,2,2,1,,,,,,,,,
,,,,,,,,,,,,,,,fourth,10,33,female,R,IMT,2021-07-10_08h52.41.286,ImageRatingTask_S1,2021.1.4,Win32,59.99880002,,,,,,,,,,,,,,,,,,,,,0,3,3,3,1,,,,,,,,,
,,,,,,,,,,,,,,,fifth,10,33,female,R,IMT,2021-07-10_08h52.41.286,ImageRatingTask_S1,2021.1.4,Win32,59.99880002,,,,,,,,,,,,,,,,,,,,,0,4,4,4,1,,,,,,,,,
,,,,,,,,,,,,,,,sixth,10,33,female,R,IMT,2021-07-10_08h52.41.286,ImageRatingTask_S1,2021.1.4,Win32,59.99880002,,,,,,,,,,,,,,,,,,,,,0,5,5,5,1,,,,,,,,,
,,,,,,,,,,,,,,,seventh,10,33,female,R,IMT,2021-07-10_08h52.41.286,ImageRatingTask_S1,2021.1.4,Win32,59.99880002,,,,,,,,,,,,,,,,,,,,,0,6,6,6,1,,,,,,,,,
,,,,,,,,,,,,,,,last,10,33,female,R,IMT,2021-07-10_08h52.41.286,ImageRatingTask_S1,2021.1.4,Win32,59.99880002,,,,,,,,,,,,,,,,,,,,,0,7,7,7,1,,,,,,,,,
,,,,,,,,,,,,,,,,10,33,female,R,IMT,2021-07-10_08h52.41.286,ImageRatingTask_S1,2021.1.4,Win32,59.99880002,,,,,,,,,,,,,,,,,,,,,,,,,,0,56,56,97,1,DreamStudyImages_rs1000x750g/Children/IAPS2900.2_girl12.jpg,,,
,,,,,,,,,,,,,,,main,10,33,female,R,IMT,2021-07-10_08h52.41.286,ImageRatingTask_S1,2021.1.4,Win32,59.99880002,,,,,,,,,,,num_5,1.7614,num_4,1.2326,num_7,2.4538,num_1,4.0462,num_5,0.9363,0,0,0,0,1,,,,,,,,,
,,,,,,,,,,,,,,,second,10,33,female,R,IMT,2021-07-10_08h52.41.286,ImageRatingTask_S1,2021.1.4,Win32,59.99880002,,,,,,,,,,,,,,,,,,,,,0,1,1,1,1,,,,,,,,,
,,,,,,,,,,,,,,,third,10,33,female,R,IMT,2021-07-10_08h52.41.286,ImageRatingTask_S1,2021.1.4,Win32,59.99880002,,,,,,,,,,,,,,,,,,,,,0,2,2,2,1,,,,,,,,,
,,,,,,,,,,,,,,,fourth,10,33,female,R,IMT,2021-07-10_08h52.41.286,ImageRatingTask_S1,2021.1.4,Win32,59.99880002,,,,,,,,,,,,,,,,,,,,,0,3,3,3,1,,,,,,,,,
,,,,,,,,,,,,,,,fifth,10,33,female,R,IMT,2021-07-10_08h52.41.286,ImageRatingTask_S1,2021.1.4,Win32,59.99880002,,,,,,,,,,,,,,,,,,,,,0,4,4,4,1,,,,,,,,,
,,,,,,,,,,,,,,,sixth,10,33,female,R,IMT,2021-07-10_08h52.41.286,ImageRatingTask_S1,2021.1.4,Win32,59.99880002,,,,,,,,,,,,,,,,,,,,,0,5,5,5,1,,,,,,,,,
,,,,,,,,,,,,,,,seventh,10,33,female,R,IMT,2021-07-10_08h52.41.286,ImageRatingTask_S1,2021.1.4,Win32,59.99880002,,,,,,,,,,,,,,,,,,,,,0,6,6,6,1,,,,,,,,,
,,,,,,,,,,,,,,,last,10,33,female,R,IMT,2021-07-10_08h52.41.286,ImageRatingTask_S1,2021.1.4,Win32,59.99880002,,,,,,,,,,,,,,,,,,,,,0,7,7,7,1,,,,,,,,,
,,,,,,,,,,,,,,,,10,33,female,R,IMT,2021-07-10_08h52.41.286,ImageRatingTask_S1,2021.1.4,Win32,59.99880002,,,,,,,,,,,,,,,,,,,,,,,,,,0,57,57,157,1,DreamStudyImages_rs1000x750g/Food/IAPS7450_burger.jpg,,,
,,,,,,,,,,,,,,,main,10,33,female,R,IMT,2021-07-10_08h52.41.286,ImageRatingTask_S1,2021.1.4,Win32,59.99880002,,,,,,,,,,,num_1,4.6503,num_9,1.0078,num_9,4.9913,num_2,12.012,num_2,2.6514,0,0,0,0,1,,,,,,,,,
,,,,,,,,,,,,,,,second,10,33,female,R,IMT,2021-07-10_08h52.41.286,ImageRatingTask_S1,2021.1.4,Win32,59.99880002,,,,,,,,,,,,,,,,,,,num_1,1.508,0,1,1,1,1,,,,,,,,,
,,,,,,,,,,,,,,,third,10,33,female,R,IMT,2021-07-10_08h52.41.286,ImageRatingTask_S1,2021.1.4,Win32,59.99880002,,,,,,,,,,,,,,,,,,,,,0,2,2,2,1,,,,,,,,,
,,,,,,,,,,,,,,,fourth,10,33,female,R,IMT,2021-07-10_08h52.41.286,ImageRatingTask_S1,2021.1.4,Win32,59.99880002,,,,,,,,,,,,,,,,,,,,,0,3,3,3,1,,,,,,,,,
,,,,,,,,,,,,,,,fifth,10,33,female,R,IMT,2021-07-10_08h52.41.286,ImageRatingTask_S1,2021.1.4,Win32,59.99880002,,,,,,,,,,,,,,,,,,,,,0,4,4,4,1,,,,,,,,,
,,,,,,,,,,,,,,,sixth,10,33,female,R,IMT,2021-07-10_08h52.41.286,ImageRatingTask_S1,2021.1.4,Win32,59.99880002,,,,,,,,,,,,,,,,,,,,,0,5,5,5,1,,,,,,,,,
,,,,,,,,,,,,,,,seventh,10,33,female,R,IMT,2021-07-10_08h52.41.286,ImageRatingTask_S1,2021.1.4,Win32,59.99880002,,,,,,,,,,,,,,,,,,,,,0,6,6,6,1,,,,,,,,,
,,,,,,,,,,,,,,,last,10,33,female,R,IMT,2021-07-10_08h52.41.286,ImageRatingTask_S1,2021.1.4,Win32,59.99880002,,,,,,,,,,,,,,,,,,,,,0,7,7,7,1,,,,,,,,,
,,,,,,,,,,,,,,,,10,33,female,R,IMT,2021-07-10_08h52.41.286,ImageRatingTask_S1,2021.1.4,Win32,59.99880002,,,,,,,,,,,,,,,,,,,,,,,,,,0,58,58,69,1,DreamStudyImages_rs1000x750g/Children/People_033_h.jpg,,,
,,,,,,,,,,,,,,,main,10,33,female,R,IMT,2021-07-10_08h52.41.286,ImageRatingTask_S1,2021.1.4,Win32,59.99880002,,,,,,,,,,,num_9,1.502,num_1,1.5,num_9,3.0147,num_2,2.8187,num_2,6.8266,0,0,0,0,1,,,,,,,,,
,,,,,,,,,,,,,,,second,10,33,female,R,IMT,2021-07-10_08h52.41.286,ImageRatingTask_S1,2021.1.4,Win32,59.99880002,,,,,,,,,,,,,,,,,,,num_6,1.2005,0,1,1,1,1,,,,,,,,,
,,,,,,,,,,,,,,,third,10,33,female,R,IMT,2021-07-10_08h52.41.286,ImageRatingTask_S1,2021.1.4,Win32,59.99880002,,,,,,,,,,,,,,,,,,,,,0,2,2,2,1,,,,,,,,,
,,,,,,,,,,,,,,,fourth,10,33,female,R,IMT,2021-07-10_08h52.41.286,ImageRatingTask_S1,2021.1.4,Win32,59.99880002,,,,,,,,,,,,,,,,,,,,,0,3,3,3,1,,,,,,,,,
,,,,,,,,,,,,,,,fifth,10,33,female,R,IMT,2021-07-10_08h52.41.286,ImageRatingTask_S1,2021.1.4,Win32,59.99880002,,,,,,,,,,,,,,,,,,,,,0,4,4,4,1,,,,,,,,,
,,,,,,,,,,,,,,,sixth,10,33,female,R,IMT,2021-07-10_08h52.41.286,ImageRatingTask_S1,2021.1.4,Win32,59.99880002,,,,,,,,,,,,,,,,,,,,,0,5,5,5,1,,,,,,,,,
,,,,,,,,,,,,,,,seventh,10,33,female,R,IMT,2021-07-10_08h52.41.286,ImageRatingTask_S1,2021.1.4,Win32,59.99880002,,,,,,,,,,,,,,,,,,,,,0,6,6,6,1,,,,,,,,,
,,,,,,,,,,,,,,,last,10,33,female,R,IMT,2021-07-10_08h52.41.286,ImageRatingTask_S1,2021.1.4,Win32,59.99880002,,,,,,,,,,,,,,,,,,,,,0,7,7,7,1,,,,,,,,,
,,,,,,,,,,,,,,,,10,33,female,R,IMT,2021-07-10_08h52.41.286,ImageRatingTask_S1,2021.1.4,Win32,59.99880002,,,,,,,,,,,,,,,,,,,,,,,,,,0,59,59,122,1,DreamStudyImages_rs1000x750g/Children/IAPS2274_children7.jpg,,,
,,,,,,,,,,,,,,,main,10,33,female,R,IMT,2021-07-10_08h52.41.286,ImageRatingTask_S1,2021.1.4,Win32,59.99880002,,,,,,,,,,,num_8,4.1401,num_2,1.8296,num_9,1.1209,num_1,5.9484,num_6,0.8649,0,0,0,0,1,,,,,,,,,
,,,,,,,,,,,,,,,second,10,33,female,R,IMT,2021-07-10_08h52.41.286,ImageRatingTask_S1,2021.1.4,Win32,59.99880002,,,,,,,,,,,,,,,,,,,,,0,1,1,1,1,,,,,,,,,
,,,,,,,,,,,,,,,third,10,33,female,R,IMT,2021-07-10_08h52.41.286,ImageRatingTask_S1,2021.1.4,Win32,59.99880002,,,,,,,,,,,,,,,,,,,,,0,2,2,2,1,,,,,,,,,
,,,,,,,,,,,,,,,fourth,10,33,female,R,IMT,2021-07-10_08h52.41.286,ImageRatingTask_S1,2021.1.4,Win32,59.99880002,,,,,,,,,,,,,,,,,,,,,0,3,3,3,1,,,,,,,,,
,,,,,,,,,,,,,,,fifth,10,33,female,R,IMT,2021-07-10_08h52.41.286,ImageRatingTask_S1,2021.1.4,Win32,59.99880002,,,,,,,,,,,,,,,,,,,,,0,4,4,4,1,,,,,,,,,
,,,,,,,,,,,,,,,sixth,10,33,female,R,IMT,2021-07-10_08h52.41.286,ImageRatingTask_S1,2021.1.4,Win32,59.99880002,,,,,,,,,,,,,,,,,,,,,0,5,5,5,1,,,,,,,,,
,,,,,,,,,,,,,,,seventh,10,33,female,R,IMT,2021-07-10_08h52.41.286,ImageRatingTask_S1,2021.1.4,Win32,59.99880002,,,,,,,,,,,,,,,,,,,,,0,6,6,6,1,,,,,,,,,
,,,,,,,,,,,,,,,last,10,33,female,R,IMT,2021-07-10_08h52.41.286,ImageRatingTask_S1,2021.1.4,Win32,59.99880002,,,,,,,,,,,,,,,,,,,,,0,7,7,7,1,,,,,,,,,
,,,,,,,,,,,,,,,,10,33,female,R,IMT,2021-07-10_08h52.41.286,ImageRatingTask_S1,2021.1.4,Win32,59.99880002,,,,,,,,,,,,,,,,,,,,,,,,,,0,60,60,8,1,DreamStudyImages_rs1000x750g/Houses/NDPS18_houses2_CROPPED.jpg,,,
,,,,,,,,,,,,,,,main,10,33,female,R,IMT,2021-07-10_08h52.41.286,ImageRatingTask_S1,2021.1.4,Win32,59.99880002,,,,,,,,,,,num_5,2.6411,num_4,2.0667,num_9,1.9899,num_1,1.9663,num_7,1.1076,0,0,0,0,1,,,,,,,,,
,,,,,,,,,,,,,,,second,10,33,female,R,IMT,2021-07-10_08h52.41.286,ImageRatingTask_S1,2021.1.4,Win32,59.99880002,,,,,,,,,,,,,,,,,,,,,0,1,1,1,1,,,,,,,,,
,,,,,,,,,,,,,,,third,10,33,female,R,IMT,2021-07-10_08h52.41.286,ImageRatingTask_S1,2021.1.4,Win32,59.99880002,,,,,,,,,,,,,,,,,,,,,0,2,2,2,1,,,,,,,,,
,,,,,,,,,,,,,,,fourth,10,33,female,R,IMT,2021-07-10_08h52.41.286,ImageRatingTask_S1,2021.1.4,Win32,59.99880002,,,,,,,,,,,,,,,,,,,,,0,3,3,3,1,,,,,,,,,
,,,,,,,,,,,,,,,fifth,10,33,female,R,IMT,2021-07-10_08h52.41.286,ImageRatingTask_S1,2021.1.4,Win32,59.99880002,,,,,,,,,,,,,,,,,,,,,0,4,4,4,1,,,,,,,,,
,,,,,,,,,,,,,,,sixth,10,33,female,R,IMT,2021-07-10_08h52.41.286,ImageRatingTask_S1,2021.1.4,Win32,59.99880002,,,,,,,,,,,,,,,,,,,,,0,5,5,5,1,,,,,,,,,
,,,,,,,,,,,,,,,seventh,10,33,female,R,IMT,2021-07-10_08h52.41.286,ImageRatingTask_S1,2021.1.4,Win32,59.99880002,,,,,,,,,,,,,,,,,,,,,0,6,6,6,1,,,,,,,,,
,,,,,,,,,,,,,,,last,10,33,female,R,IMT,2021-07-10_08h52.41.286,ImageRatingTask_S1,2021.1.4,Win32,59.99880002,,,,,,,,,,,,,,,,,,,,,0,7,7,7,1,,,,,,,,,
,,,,,,,,,,,,,,,,10,33,female,R,IMT,2021-07-10_08h52.41.286,ImageRatingTask_S1,2021.1.4,Win32,59.99880002,,,,,,,,,,,,,,,,,,,,,,,,,,0,61,61,137,1,DreamStudyImages_rs1000x750g/Vehicles/Objects_319_h.jpg,,,
,,,,,,,,,,,,,,,main,10,33,female,R,IMT,2021-07-10_08h52.41.286,ImageRatingTask_S1,2021.1.4,Win32,59.99880002,,,,,,,,,,,num_6,8.8875,num_3,2.1093,num_9,2.307,num_1,4.963,num_2,1.8487,0,0,0,0,1,,,,,,,,,
,,,,,,,,,,,,,,,second,10,33,female,R,IMT,2021-07-10_08h52.41.286,ImageRatingTask_S1,2021.1.4,Win32,59.99880002,,,,,,,,,,,,,,,,,,,,,0,1,1,1,1,,,,,,,,,
