slider_pre.response,slider_pre.rt,key_val.keys,key_val.rt,key_aro.keys,key_aro.rt,key_qual.keys,key_qual.rt,key_ncat.keys,key_ncat.rt,key_cats.keys,key_cats.rt,ncat_order.thisRepN,ncat_order.thisTrialN,ncat_order.thisN,ncat_order.thisIndex,ncat_order.ran,cond_cat,participant,age,gender,handedness (L/R),site (IMT/Donders),date,expName,psychopyVersion,OS,frameRate,img_trials.thisRepN,img_trials.thisTrialN,img_trials.thisN,img_trials.thisIndex,img_trials.ran,filename,slider_post.response,slider_post.rt,textbox_openfb.text
5,5.7458,num_6,9.0729,num_2,1.8696,num_9,1.5331,num_1,2.5293,num_3,0.7499,0,0,0,0,1,main,10,33,female,R,IMT,2021-07-14_09h34.18.336,ImageRatingTask_S3,2021.1.4,Win32,60.04563468,,,,,,,,,
,,,,,,,,,,,,0,1,1,1,1,second,10,33,female,R,IMT,2021-07-14_09h34.18.336,ImageRatingTask_S3,2021.1.4,Win32,60.04563468,,,,,,,,,
,,,,,,,,,,,,0,2,2,2,1,third,10,33,female,R,IMT,2021-07-14_09h34.18.336,ImageRatingTask_S3,2021.1.4,Win32,60.04563468,,,,,,,,,
,,,,,,,,,,,,0,3,3,3,1,fourth,10,33,female,R,IMT,2021-07-14_09h34.18.336,ImageRatingTask_S3,2021.1.4,Win32,60.04563468,,,,,,,,,
,,,,,,,,,,,,0,4,4,4,1,fifth,10,33,female,R,IMT,2021-07-14_09h34.18.336,ImageRatingTask_S3,2021.1.4,Win32,60.04563468,,,,,,,,,
,,,,,,,,,,,,0,5,5,5,1,sixth,10,33,female,R,IMT,2021-07-14_09h34.18.336,ImageRatingTask_S3,2021.1.4,Win32,60.04563468,,,,,,,,,
,,,,,,,,,,,,0,6,6,6,1,seventh,10,33,female,R,IMT,2021-07-14_09h34.18.336,ImageRatingTask_S3,2021.1.4,Win32,60.04563468,,,,,,,,,
,,,,,,,,,,,,0,7,7,7,1,last,10,33,female,R,IMT,2021-07-14_09h34.18.336,ImageRatingTask_S3,2021.1.4,Win32,60.04563468,,,,,,,,,
,,,,,,,,,,,,,,,,,,10,33,female,R,IMT,2021-07-14_09h34.18.336,ImageRatingTask_S3,2021.1.4,Win32,60.04563468,0,0,0,32,1,DreamStudyImages_rs1000x750g/Mammals/Animals_211_h.jpg,,,
,,num_6,2.94,num_2,1.1407,num_8,1.7436,num_1,1.058,num_3,1.0749,0,0,0,0,1,main,10,33,female,R,IMT,2021-07-14_09h34.18.336,ImageRatingTask_S3,2021.1.4,Win32,60.04563468,,,,,,,,,
,,,,,,,,,,,,0,1,1,1,1,second,10,33,female,R,IMT,2021-07-14_09h34.18.336,ImageRatingTask_S3,2021.1.4,Win32,60.04563468,,,,,,,,,
,,,,,,,,,,,,0,2,2,2,1,third,10,33,female,R,IMT,2021-07-14_09h34.18.336,ImageRatingTask_S3,2021.1.4,Win32,60.04563468,,,,,,,,,
,,,,,,,,,,,,0,3,3,3,1,fourth,10,33,female,R,IMT,2021-07-14_09h34.18.336,ImageRatingTask_S3,2021.1.4,Win32,60.04563468,,,,,,,,,
,,,,,,,,,,,,0,4,4,4,1,fifth,10,33,female,R,IMT,2021-07-14_09h34.18.336,ImageRatingTask_S3,2021.1.4,Win32,60.04563468,,,,,,,,,
,,,,,,,,,,,,0,5,5,5,1,sixth,10,33,female,R,IMT,2021-07-14_09h34.18.336,ImageRatingTask_S3,2021.1.4,Win32,60.04563468,,,,,,,,,
,,,,,,,,,,,,0,6,6,6,1,seventh,10,33,female,R,IMT,2021-07-14_09h34.18.336,ImageRatingTask_S3,2021.1.4,Win32,60.04563468,,,,,,,,,
,,,,,,,,,,,,0,7,7,7,1,last,10,33,female,R,IMT,2021-07-14_09h34.18.336,ImageRatingTask_S3,2021.1.4,Win32,60.04563468,,,,,,,,,
,,,,,,,,,,,,,,,,,,10,33,female,R,IMT,2021-07-14_09h34.18.336,ImageRatingTask_S3,2021.1.4,Win32,60.04563468,0,1,1,46,1,DreamStudyImages_rs1000x750g/Mammals/Animals_096_h.jpg,,,
,,num_5,1.6986,num_1,0.755,num_9,1.296,num_1,6.8815,num_6,1.7487,0,0,0,0,1,main,10,33,female,R,IMT,2021-07-14_09h34.18.336,ImageRatingTask_S3,2021.1.4,Win32,60.04563468,,,,,,,,,
,,,,,,,,,,,,0,1,1,1,1,second,10,33,female,R,IMT,2021-07-14_09h34.18.336,ImageRatingTask_S3,2021.1.4,Win32,60.04563468,,,,,,,,,
,,,,,,,,,,,,0,2,2,2,1,third,10,33,female,R,IMT,2021-07-14_09h34.18.336,ImageRatingTask_S3,2021.1.4,Win32,60.04563468,,,,,,,,,
,,,,,,,,,,,,0,3,3,3,1,fourth,10,33,female,R,IMT,2021-07-14_09h34.18.336,ImageRatingTask_S3,2021.1.4,Win32,60.04563468,,,,,,,,,
,,,,,,,,,,,,0,4,4,4,1,fifth,10,33,female,R,IMT,2021-07-14_09h34.18.336,ImageRatingTask_S3,2021.1.4,Win32,60.04563468,,,,,,,,,
,,,,,,,,,,,,0,5,5,5,1,sixth,10,33,female,R,IMT,2021-07-14_09h34.18.336,ImageRatingTask_S3,2021.1.4,Win32,60.04563468,,,,,,,,,
,,,,,,,,,,,,0,6,6,6,1,seventh,10,33,female,R,IMT,2021-07-14_09h34.18.336,ImageRatingTask_S3,2021.1.4,Win32,60.04563468,,,,,,,,,
,,,,,,,,,,,,0,7,7,7,1,last,10,33,female,R,IMT,2021-07-14_09h34.18.336,ImageRatingTask_S3,2021.1.4,Win32,60.04563468,,,,,,,,,
,,,,,,,,,,,,,,,,,,10,33,female,R,IMT,2021-07-14_09h34.18.336,ImageRatingTask_S3,2021.1.4,Win32,60.04563468,0,2,2,7,1,DreamStudyImages_rs1000x750g/Houses/Landscapes_015_h.jpg,,,
,,num_7,2.4516,num_2,2.434,num_8,1.7591,num_1,0.9411,num_2,0.4307,0,0,0,0,1,main,10,33,female,R,IMT,2021-07-14_09h34.18.336,ImageRatingTask_S3,2021.1.4,Win32,60.04563468,,,,,,,,,
,,,,,,,,,,,,0,1,1,1,1,second,10,33,female,R,IMT,2021-07-14_09h34.18.336,ImageRatingTask_S3,2021.1.4,Win32,60.04563468,,,,,,,,,
,,,,,,,,,,,,0,2,2,2,1,third,10,33,female,R,IMT,2021-07-14_09h34.18.336,ImageRatingTask_S3,2021.1.4,Win32,60.04563468,,,,,,,,,
,,,,,,,,,,,,0,3,3,3,1,fourth,10,33,female,R,IMT,2021-07-14_09h34.18.336,ImageRatingTask_S3,2021.1.4,Win32,60.04563468,,,,,,,,,
,,,,,,,,,,,,0,4,4,4,1,fifth,10,33,female,R,IMT,2021-07-14_09h34.18.336,ImageRatingTask_S3,2021.1.4,Win32,60.04563468,,,,,,,,,
,,,,,,,,,,,,0,5,5,5,1,sixth,10,33,female,R,IMT,2021-07-14_09h34.18.336,ImageRatingTask_S3,2021.1.4,Win32,60.04563468,,,,,,,,,
,,,,,,,,,,,,0,6,6,6,1,seventh,10,33,female,R,IMT,2021-07-14_09h34.18.336,ImageRatingTask_S3,2021.1.4,Win32,60.04563468,,,,,,,,,
,,,,,,,,,,,,0,7,7,7,1,last,10,33,female,R,IMT,2021-07-14_09h34.18.336,ImageRatingTask_S3,2021.1.4,Win32,60.04563468,,,,,,,,,
,,,,,,,,,,,,,,,,,,10,33,female,R,IMT,2021-07-14_09h34.18.336,ImageRatingTask_S3,2021.1.4,Win32,60.04563468,0,3,3,89,1,DreamStudyImages_rs1000x750g/Children/Baby 5.jpg,,,
,,num_4,3.9018,num_3,1.6236,num_8,2.2233,num_1,1.1303,num_6,1.302,0,0,0,0,1,main,10,33,female,R,IMT,2021-07-14_09h34.18.336,ImageRatingTask_S3,2021.1.4,Win32,60.04563468,,,,,,,,,
,,,,,,,,,,,,0,1,1,1,1,second,10,33,female,R,IMT,2021-07-14_09h34.18.336,ImageRatingTask_S3,2021.1.4,Win32,60.04563468,,,,,,,,,
,,,,,,,,,,,,0,2,2,2,1,third,10,33,female,R,IMT,2021-07-14_09h34.18.336,ImageRatingTask_S3,2021.1.4,Win32,60.04563468,,,,,,,,,
,,,,,,,,,,,,0,3,3,3,1,fourth,10,33,female,R,IMT,2021-07-14_09h34.18.336,ImageRatingTask_S3,2021.1.4,Win32,60.04563468,,,,,,,,,
,,,,,,,,,,,,0,4,4,4,1,fifth,10,33,female,R,IMT,2021-07-14_09h34.18.336,ImageRatingTask_S3,2021.1.4,Win32,60.04563468,,,,,,,,,
,,,,,,,,,,,,0,5,5,5,1,sixth,10,33,female,R,IMT,2021-07-14_09h34.18.336,ImageRatingTask_S3,2021.1.4,Win32,60.04563468,,,,,,,,,
,,,,,,,,,,,,0,6,6,6,1,seventh,10,33,female,R,IMT,2021-07-14_09h34.18.336,ImageRatingTask_S3,2021.1.4,Win32,60.04563468,,,,,,,,,
,,,,,,,,,,,,0,7,7,7,1,last,10,33,female,R,IMT,2021-07-14_09h34.18.336,ImageRatingTask_S3,2021.1.4,Win32,60.04563468,,,,,,,,,
,,,,,,,,,,,,,,,,,,10,33,female,R,IMT,2021-07-14_09h34.18.336,ImageRatingTask_S3,2021.1.4,Win32,60.04563468,0,4,4,88,1,DreamStudyImages_rs1000x750g/Houses/NDPS95_cityskyline.jpg,,,
,,num_3,2.7877,num_5,1.5392,num_9,1.0084,num_1,0.8343,num_6,1.4605,0,0,0,0,1,main,10,33,female,R,IMT,2021-07-14_09h34.18.336,ImageRatingTask_S3,2021.1.4,Win32,60.04563468,,,,,,,,,
,,,,,,,,,,,,0,1,1,1,1,second,10,33,female,R,IMT,2021-07-14_09h34.18.336,ImageRatingTask_S3,2021.1.4,Win32,60.04563468,,,,,,,,,
,,,,,,,,,,,,0,2,2,2,1,third,10,33,female,R,IMT,2021-07-14_09h34.18.336,ImageRatingTask_S3,2021.1.4,Win32,60.04563468,,,,,,,,,
,,,,,,,,,,,,0,3,3,3,1,fourth,10,33,female,R,IMT,2021-07-14_09h34.18.336,ImageRatingTask_S3,2021.1.4,Win32,60.04563468,,,,,,,,,
,,,,,,,,,,,,0,4,4,4,1,fifth,10,33,female,R,IMT,2021-07-14_09h34.18.336,ImageRatingTask_S3,2021.1.4,Win32,60.04563468,,,,,,,,,
,,,,,,,,,,,,0,5,5,5,1,sixth,10,33,female,R,IMT,2021-07-14_09h34.18.336,ImageRatingTask_S3,2021.1.4,Win32,60.04563468,,,,,,,,,
,,,,,,,,,,,,0,6,6,6,1,seventh,10,33,female,R,IMT,2021-07-14_09h34.18.336,ImageRatingTask_S3,2021.1.4,Win32,60.04563468,,,,,,,,,
,,,,,,,,,,,,0,7,7,7,1,last,10,33,female,R,IMT,2021-07-14_09h34.18.336,ImageRatingTask_S3,2021.1.4,Win32,60.04563468,,,,,,,,,
,,,,,,,,,,,,,,,,,,10,33,female,R,IMT,2021-07-14_09h34.18.336,ImageRatingTask_S3,2021.1.4,Win32,60.04563468,0,5,5,29,1,DreamStudyImages_rs1000x750g/Houses/Landscapes_022_h.jpg,,,
,,num_5,2.5257,num_1,0.7602,num_9,0.8788,num_1,0.7913,num_8,1.0267,0,0,0,0,1,main,10,33,female,R,IMT,2021-07-14_09h34.18.336,ImageRatingTask_S3,2021.1.4,Win32,60.04563468,,,,,,,,,
,,,,,,,,,,,,0,1,1,1,1,second,10,33,female,R,IMT,2021-07-14_09h34.18.336,ImageRatingTask_S3,2021.1.4,Win32,60.04563468,,,,,,,,,
,,,,,,,,,,,,0,2,2,2,1,third,10,33,female,R,IMT,2021-07-14_09h34.18.336,ImageRatingTask_S3,2021.1.4,Win32,60.04563468,,,,,,,,,
,,,,,,,,,,,,0,3,3,3,1,fourth,10,33,female,R,IMT,2021-07-14_09h34.18.336,ImageRatingTask_S3,2021.1.4,Win32,60.04563468,,,,,,,,,
,,,,,,,,,,,,0,4,4,4,1,fifth,10,33,female,R,IMT,2021-07-14_09h34.18.336,ImageRatingTask_S3,2021.1.4,Win32,60.04563468,,,,,,,,,
,,,,,,,,,,,,0,5,5,5,1,sixth,10,33,female,R,IMT,2021-07-14_09h34.18.336,ImageRatingTask_S3,2021.1.4,Win32,60.04563468,,,,,,,,,
,,,,,,,,,,,,0,6,6,6,1,seventh,10,33,female,R,IMT,2021-07-14_09h34.18.336,ImageRatingTask_S3,2021.1.4,Win32,60.04563468,,,,,,,,,
,,,,,,,,,,,,0,7,7,7,1,last,10,33,female,R,IMT,2021-07-14_09h34.18.336,ImageRatingTask_S3,2021.1.4,Win32,60.04563468,,,,,,,,,
,,,,,,,,,,,,,,,,,,10,33,female,R,IMT,2021-07-14_09h34.18.336,ImageRatingTask_S3,2021.1.4,Win32,60.04563468,0,6,6,63,1,DreamStudyImages_rs1000x750g/Water/Landscapes_148_h.jpg,,,
,,num_7,5.4086,num_2,5.0603,num_8,2.1382,num_1,0.9258,num_3,0.7108,0,0,0,0,1,main,10,33,female,R,IMT,2021-07-14_09h34.18.336,ImageRatingTask_S3,2021.1.4,Win32,60.04563468,,,,,,,,,
,,,,,,,,,,,,0,1,1,1,1,second,10,33,female,R,IMT,2021-07-14_09h34.18.336,ImageRatingTask_S3,2021.1.4,Win32,60.04563468,,,,,,,,,
,,,,,,,,,,,,0,2,2,2,1,third,10,33,female,R,IMT,2021-07-14_09h34.18.336,ImageRatingTask_S3,2021.1.4,Win32,60.04563468,,,,,,,,,
,,,,,,,,,,,,0,3,3,3,1,fourth,10,33,female,R,IMT,2021-07-14_09h34.18.336,ImageRatingTask_S3,2021.1.4,Win32,60.04563468,,,,,,,,,
,,,,,,,,,,,,0,4,4,4,1,fifth,10,33,female,R,IMT,2021-07-14_09h34.18.336,ImageRatingTask_S3,2021.1.4,Win32,60.04563468,,,,,,,,,
,,,,,,,,,,,,0,5,5,5,1,sixth,10,33,female,R,IMT,2021-07-14_09h34.18.336,ImageRatingTask_S3,2021.1.4,Win32,60.04563468,,,,,,,,,
,,,,,,,,,,,,0,6,6,6,1,seventh,10,33,female,R,IMT,2021-07-14_09h34.18.336,ImageRatingTask_S3,2021.1.4,Win32,60.04563468,,,,,,,,,
,,,,,,,,,,,,0,7,7,7,1,last,10,33,female,R,IMT,2021-07-14_09h34.18.336,ImageRatingTask_S3,2021.1.4,Win32,60.04563468,,,,,,,,,
,,,,,,,,,,,,,,,,,,10,33,female,R,IMT,2021-07-14_09h34.18.336,ImageRatingTask_S3,2021.1.4,Win32,60.04563468,0,7,7,51,1,DreamStudyImages_rs1000x750g/Mammals/Animals_120_h.jpg,,,
,,num_5,2.2458,num_1,0.981,num_7,3.4611,num_1,1.0128,num_5,1.5457,0,0,0,0,1,main,10,33,female,R,IMT,2021-07-14_09h34.18.336,ImageRatingTask_S3,2021.1.4,Win32,60.04563468,,,,,,,,,
,,,,,,,,,,,,0,1,1,1,1,second,10,33,female,R,IMT,2021-07-14_09h34.18.336,ImageRatingTask_S3,2021.1.4,Win32,60.04563468,,,,,,,,,
,,,,,,,,,,,,0,2,2,2,1,third,10,33,female,R,IMT,2021-07-14_09h34.18.336,ImageRatingTask_S3,2021.1.4,Win32,60.04563468,,,,,,,,,
,,,,,,,,,,,,0,3,3,3,1,fourth,10,33,female,R,IMT,2021-07-14_09h34.18.336,ImageRatingTask_S3,2021.1.4,Win32,60.04563468,,,,,,,,,
,,,,,,,,,,,,0,4,4,4,1,fifth,10,33,female,R,IMT,2021-07-14_09h34.18.336,ImageRatingTask_S3,2021.1.4,Win32,60.04563468,,,,,,,,,
,,,,,,,,,,,,0,5,5,5,1,sixth,10,33,female,R,IMT,2021-07-14_09h34.18.336,ImageRatingTask_S3,2021.1.4,Win32,60.04563468,,,,,,,,,
,,,,,,,,,,,,0,6,6,6,1,seventh,10,33,female,R,IMT,2021-07-14_09h34.18.336,ImageRatingTask_S3,2021.1.4,Win32,60.04563468,,,,,,,,,
,,,,,,,,,,,,0,7,7,7,1,last,10,33,female,R,IMT,2021-07-14_09h34.18.336,ImageRatingTask_S3,2021.1.4,Win32,60.04563468,,,,,,,,,
,,,,,,,,,,,,,,,,,,10,33,female,R,IMT,2021-07-14_09h34.18.336,ImageRatingTask_S3,2021.1.4,Win32,60.04563468,0,8,8,113,1,DreamStudyImages_rs1000x750g/Food/IAPS7320_fruitbasket2.jpg,,,
,,num_6,3.6902,num_1,0.7381,num_9,1.3564,num_1,1.0475,num_2,0.1882,0,0,0,0,1,main,10,33,female,R,IMT,2021-07-14_09h34.18.336,ImageRatingTask_S3,2021.1.4,Win32,60.04563468,,,,,,,,,
,,,,,,,,,,,,0,1,1,1,1,second,10,33,female,R,IMT,2021-07-14_09h34.18.336,ImageRatingTask_S3,2021.1.4,Win32,60.04563468,,,,,,,,,
,,,,,,,,,,,,0,2,2,2,1,third,10,33,female,R,IMT,2021-07-14_09h34.18.336,ImageRatingTask_S3,2021.1.4,Win32,60.04563468,,,,,,,,,
,,,,,,,,,,,,0,3,3,3,1,fourth,10,33,female,R,IMT,2021-07-14_09h34.18.336,ImageRatingTask_S3,2021.1.4,Win32,60.04563468,,,,,,,,,
,,,,,,,,,,,,0,4,4,4,1,fifth,10,33,female,R,IMT,2021-07-14_09h34.18.336,ImageRatingTask_S3,2021.1.4,Win32,60.04563468,,,,,,,,,
,,,,,,,,,,,,0,5,5,5,1,sixth,10,33,female,R,IMT,2021-07-14_09h34.18.336,ImageRatingTask_S3,2021.1.4,Win32,60.04563468,,,,,,,,,
,,,,,,,,,,,,0,6,6,6,1,seventh,10,33,female,R,IMT,2021-07-14_09h34.18.336,ImageRatingTask_S3,2021.1.4,Win32,60.04563468,,,,,,,,,
,,,,,,,,,,,,0,7,7,7,1,last,10,33,female,R,IMT,2021-07-14_09h34.18.336,ImageRatingTask_S3,2021.1.4,Win32,60.04563468,,,,,,,,,
,,,,,,,,,,,,,,,,,,10,33,female,R,IMT,2021-07-14_09h34.18.336,ImageRatingTask_S3,2021.1.4,Win32,60.04563468,0,9,9,105,1,DreamStudyImages_rs1000x750g/Children/Faces_044_h.jpg,,,
,,num_5,2.943,num_5,1.7899,num_9,2.2895,num_1,1.1617,num_8,1.5459,0,0,0,0,1,main,10,33,female,R,IMT,2021-07-14_09h34.18.336,ImageRatingTask_S3,2021.1.4,Win32,60.04563468,,,,,,,,,
,,,,,,,,,,,,0,1,1,1,1,second,10,33,female,R,IMT,2021-07-14_09h34.18.336,ImageRatingTask_S3,2021.1.4,Win32,60.04563468,,,,,,,,,
,,,,,,,,,,,,0,2,2,2,1,third,10,33,female,R,IMT,2021-07-14_09h34.18.336,ImageRatingTask_S3,2021.1.4,Win32,60.04563468,,,,,,,,,
,,,,,,,,,,,,0,3,3,3,1,fourth,10,33,female,R,IMT,2021-07-14_09h34.18.336,ImageRatingTask_S3,2021.1.4,Win32,60.04563468,,,,,,,,,
,,,,,,,,,,,,0,4,4,4,1,fifth,10,33,female,R,IMT,2021-07-14_09h34.18.336,ImageRatingTask_S3,2021.1.4,Win32,60.04563468,,,,,,,,,
,,,,,,,,,,,,0,5,5,5,1,sixth,10,33,female,R,IMT,2021-07-14_09h34.18.336,ImageRatingTask_S3,2021.1.4,Win32,60.04563468,,,,,,,,,
,,,,,,,,,,,,0,6,6,6,1,seventh,10,33,female,R,IMT,2021-07-14_09h34.18.336,ImageRatingTask_S3,2021.1.4,Win32,60.04563468,,,,,,,,,
,,,,,,,,,,,,0,7,7,7,1,last,10,33,female,R,IMT,2021-07-14_09h34.18.336,ImageRatingTask_S3,2021.1.4,Win32,60.04563468,,,,,,,,,
,,,,,,,,,,,,,,,,,,10,33,female,R,IMT,2021-07-14_09h34.18.336,ImageRatingTask_S3,2021.1.4,Win32,60.04563468,0,10,10,76,1,DreamStudyImages_rs1000x750g/Water/98.jpg,,,
,,num_3,5.2478,num_2,1.0113,num_9,1.8975,num_1,1.6309,num_2,0.8728,0,0,0,0,1,main,10,33,female,R,IMT,2021-07-14_09h34.18.336,ImageRatingTask_S3,2021.1.4,Win32,60.04563468,,,,,,,,,
,,,,,,,,,,,,0,1,1,1,1,second,10,33,female,R,IMT,2021-07-14_09h34.18.336,ImageRatingTask_S3,2021.1.4,Win32,60.04563468,,,,,,,,,
,,,,,,,,,,,,0,2,2,2,1,third,10,33,female,R,IMT,2021-07-14_09h34.18.336,ImageRatingTask_S3,2021.1.4,Win32,60.04563468,,,,,,,,,
,,,,,,,,,,,,0,3,3,3,1,fourth,10,33,female,R,IMT,2021-07-14_09h34.18.336,ImageRatingTask_S3,2021.1.4,Win32,60.04563468,,,,,,,,,
,,,,,,,,,,,,0,4,4,4,1,fifth,10,33,female,R,IMT,2021-07-14_09h34.18.336,ImageRatingTask_S3,2021.1.4,Win32,60.04563468,,,,,,,,,
,,,,,,,,,,,,0,5,5,5,1,sixth,10,33,female,R,IMT,2021-07-14_09h34.18.336,ImageRatingTask_S3,2021.1.4,Win32,60.04563468,,,,,,,,,
,,,,,,,,,,,,0,6,6,6,1,seventh,10,33,female,R,IMT,2021-07-14_09h34.18.336,ImageRatingTask_S3,2021.1.4,Win32,60.04563468,,,,,,,,,
,,,,,,,,,,,,0,7,7,7,1,last,10,33,female,R,IMT,2021-07-14_09h34.18.336,ImageRatingTask_S3,2021.1.4,Win32,60.04563468,,,,,,,,,
,,,,,,,,,,,,,,,,,,10,33,female,R,IMT,2021-07-14_09h34.18.336,ImageRatingTask_S3,2021.1.4,Win32,60.04563468,0,11,11,49,1,DreamStudyImages_rs1000x750g/Children/Faces_024_h.jpg,,,
,,num_5,1.8285,num_1,0.189,num_9,0.8171,num_1,0.7145,num_8,0.623,0,0,0,0,1,main,10,33,female,R,IMT,2021-07-14_09h34.18.336,ImageRatingTask_S3,2021.1.4,Win32,60.04563468,,,,,,,,,
,,,,,,,,,,,,0,1,1,1,1,second,10,33,female,R,IMT,2021-07-14_09h34.18.336,ImageRatingTask_S3,2021.1.4,Win32,60.04563468,,,,,,,,,
,,,,,,,,,,,,0,2,2,2,1,third,10,33,female,R,IMT,2021-07-14_09h34.18.336,ImageRatingTask_S3,2021.1.4,Win32,60.04563468,,,,,,,,,
,,,,,,,,,,,,0,3,3,3,1,fourth,10,33,female,R,IMT,2021-07-14_09h34.18.336,ImageRatingTask_S3,2021.1.4,Win32,60.04563468,,,,,,,,,
,,,,,,,,,,,,0,4,4,4,1,fifth,10,33,female,R,IMT,2021-07-14_09h34.18.336,ImageRatingTask_S3,2021.1.4,Win32,60.04563468,,,,,,,,,
,,,,,,,,,,,,0,5,5,5,1,sixth,10,33,female,R,IMT,2021-07-14_09h34.18.336,ImageRatingTask_S3,2021.1.4,Win32,60.04563468,,,,,,,,,
,,,,,,,,,,,,0,6,6,6,1,seventh,10,33,female,R,IMT,2021-07-14_09h34.18.336,ImageRatingTask_S3,2021.1.4,Win32,60.04563468,,,,,,,,,
,,,,,,,,,,,,0,7,7,7,1,last,10,33,female,R,IMT,2021-07-14_09h34.18.336,ImageRatingTask_S3,2021.1.4,Win32,60.04563468,,,,,,,,,
,,,,,,,,,,,,,,,,,,10,33,female,R,IMT,2021-07-14_09h34.18.336,ImageRatingTask_S3,2021.1.4,Win32,60.04563468,0,12,12,41,1,DreamStudyImages_rs1000x750g/Water/Landscapes_136_h.jpg,,,
,,num_5,3.2564,num_1,1.5414,num_9,1.3938,num_1,0.7577,num_8,0.6334,0,0,0,0,1,main,10,33,female,R,IMT,2021-07-14_09h34.18.336,ImageRatingTask_S3,2021.1.4,Win32,60.04563468,,,,,,,,,
,,,,,,,,,,,,0,1,1,1,1,second,10,33,female,R,IMT,2021-07-14_09h34.18.336,ImageRatingTask_S3,2021.1.4,Win32,60.04563468,,,,,,,,,
,,,,,,,,,,,,0,2,2,2,1,third,10,33,female,R,IMT,2021-07-14_09h34.18.336,ImageRatingTask_S3,2021.1.4,Win32,60.04563468,,,,,,,,,
,,,,,,,,,,,,0,3,3,3,1,fourth,10,33,female,R,IMT,2021-07-14_09h34.18.336,ImageRatingTask_S3,2021.1.4,Win32,60.04563468,,,,,,,,,
,,,,,,,,,,,,0,4,4,4,1,fifth,10,33,female,R,IMT,2021-07-14_09h34.18.336,ImageRatingTask_S3,2021.1.4,Win32,60.04563468,,,,,,,,,
,,,,,,,,,,,,0,5,5,5,1,sixth,10,33,female,R,IMT,2021-07-14_09h34.18.336,ImageRatingTask_S3,2021.1.4,Win32,60.04563468,,,,,,,,,
,,,,,,,,,,,,0,6,6,6,1,seventh,10,33,female,R,IMT,2021-07-14_09h34.18.336,ImageRatingTask_S3,2021.1.4,Win32,60.04563468,,,,,,,,,
,,,,,,,,,,,,0,7,7,7,1,last,10,33,female,R,IMT,2021-07-14_09h34.18.336,ImageRatingTask_S3,2021.1.4,Win32,60.04563468,,,,,,,,,
,,,,,,,,,,,,,,,,,,10,33,female,R,IMT,2021-07-14_09h34.18.336,ImageRatingTask_S3,2021.1.4,Win32,60.04563468,0,13,13,117,1,DreamStudyImages_rs1000x750g/Water/rockylake.jpg,,,
,,num_5,1.9638,num_1,0.5107,num_7,1.7254,num_1,4.695,num_5,2.008,0,0,0,0,1,main,10,33,female,R,IMT,2021-07-14_09h34.18.336,ImageRatingTask_S3,2021.1.4,Win32,60.04563468,,,,,,,,,
,,,,,,,,,,,,0,1,1,1,1,second,10,33,female,R,IMT,2021-07-14_09h34.18.336,ImageRatingTask_S3,2021.1.4,Win32,60.04563468,,,,,,,,,
,,,,,,,,,,,,0,2,2,2,1,third,10,33,female,R,IMT,2021-07-14_09h34.18.336,ImageRatingTask_S3,2021.1.4,Win32,60.04563468,,,,,,,,,
,,,,,,,,,,,,0,3,3,3,1,fourth,10,33,female,R,IMT,2021-07-14_09h34.18.336,ImageRatingTask_S3,2021.1.4,Win32,60.04563468,,,,,,,,,
,,,,,,,,,,,,0,4,4,4,1,fifth,10,33,female,R,IMT,2021-07-14_09h34.18.336,ImageRatingTask_S3,2021.1.4,Win32,60.04563468,,,,,,,,,
,,,,,,,,,,,,0,5,5,5,1,sixth,10,33,female,R,IMT,2021-07-14_09h34.18.336,ImageRatingTask_S3,2021.1.4,Win32,60.04563468,,,,,,,,,
,,,,,,,,,,,,0,6,6,6,1,seventh,10,33,female,R,IMT,2021-07-14_09h34.18.336,ImageRatingTask_S3,2021.1.4,Win32,60.04563468,,,,,,,,,
,,,,,,,,,,,,0,7,7,7,1,last,10,33,female,R,IMT,2021-07-14_09h34.18.336,ImageRatingTask_S3,2021.1.4,Win32,60.04563468,,,,,,,,,
,,,,,,,,,,,,,,,,,,10,33,female,R,IMT,2021-07-14_09h34.18.336,ImageRatingTask_S3,2021.1.4,Win32,60.04563468,0,14,14,71,1,DreamStudyImages_rs1000x750g/Food/7260.jpg,,,
,,num_5,5.9886,num_1,0.6535,num_8,3.1989,num_1,1.2924,num_6,1.6826,0,0,0,0,1,main,10,33,female,R,IMT,2021-07-14_09h34.18.336,ImageRatingTask_S3,2021.1.4,Win32,60.04563468,,,,,,,,,
,,,,,,,,,,,,0,1,1,1,1,second,10,33,female,R,IMT,2021-07-14_09h34.18.336,ImageRatingTask_S3,2021.1.4,Win32,60.04563468,,,,,,,,,
,,,,,,,,,,,,0,2,2,2,1,third,10,33,female,R,IMT,2021-07-14_09h34.18.336,ImageRatingTask_S3,2021.1.4,Win32,60.04563468,,,,,,,,,
,,,,,,,,,,,,0,3,3,3,1,fourth,10,33,female,R,IMT,2021-07-14_09h34.18.336,ImageRatingTask_S3,2021.1.4,Win32,60.04563468,,,,,,,,,
,,,,,,,,,,,,0,4,4,4,1,fifth,10,33,female,R,IMT,2021-07-14_09h34.18.336,ImageRatingTask_S3,2021.1.4,Win32,60.04563468,,,,,,,,,
,,,,,,,,,,,,0,5,5,5,1,sixth,10,33,female,R,IMT,2021-07-14_09h34.18.336,ImageRatingTask_S3,2021.1.4,Win32,60.04563468,,,,,,,,,
,,,,,,,,,,,,0,6,6,6,1,seventh,10,33,female,R,IMT,2021-07-14_09h34.18.336,ImageRatingTask_S3,2021.1.4,Win32,60.04563468,,,,,,,,,
,,,,,,,,,,,,0,7,7,7,1,last,10,33,female,R,IMT,2021-07-14_09h34.18.336,ImageRatingTask_S3,2021.1.4,Win32,60.04563468,,,,,,,,,
,,,,,,,,,,,,,,,,,,10,33,female,R,IMT,2021-07-14_09h34.18.336,ImageRatingTask_S3,2021.1.4,Win32,60.04563468,0,15,15,101,1,DreamStudyImages_rs1000x750g/Houses/IAPS7546_skyline.jpg,,,
,,num_4,5.0881,num_1,2.5231,num_8,2.1977,num_2,1.2059,num_2,0.8829,0,0,0,0,1,main,10,33,female,R,IMT,2021-07-14_09h34.18.336,ImageRatingTask_S3,2021.1.4,Win32,60.04563468,,,,,,,,,
,,,,,,,,,,num_1,0.8515,0,1,1,1,1,second,10,33,female,R,IMT,2021-07-14_09h34.18.336,ImageRatingTask_S3,2021.1.4,Win32,60.04563468,,,,,,,,,
,,,,,,,,,,,,0,2,2,2,1,third,10,33,female,R,IMT,2021-07-14_09h34.18.336,ImageRatingTask_S3,2021.1.4,Win32,60.04563468,,,,,,,,,
,,,,,,,,,,,,0,3,3,3,1,fourth,10,33,female,R,IMT,2021-07-14_09h34.18.336,ImageRatingTask_S3,2021.1.4,Win32,60.04563468,,,,,,,,,
,,,,,,,,,,,,0,4,4,4,1,fifth,10,33,female,R,IMT,2021-07-14_09h34.18.336,ImageRatingTask_S3,2021.1.4,Win32,60.04563468,,,,,,,,,
,,,,,,,,,,,,0,5,5,5,1,sixth,10,33,female,R,IMT,2021-07-14_09h34.18.336,ImageRatingTask_S3,2021.1.4,Win32,60.04563468,,,,,,,,,
,,,,,,,,,,,,0,6,6,6,1,seventh,10,33,female,R,IMT,2021-07-14_09h34.18.336,ImageRatingTask_S3,2021.1.4,Win32,60.04563468,,,,,,,,,
,,,,,,,,,,,,0,7,7,7,1,last,10,33,female,R,IMT,2021-07-14_09h34.18.336,ImageRatingTask_S3,2021.1.4,Win32,60.04563468,,,,,,,,,
,,,,,,,,,,,,,,,,,,10,33,female,R,IMT,2021-07-14_09h34.18.336,ImageRatingTask_S3,2021.1.4,Win32,60.04563468,0,16,16,91,1,DreamStudyImages_rs1000x750g/Children/Faces_012_v.jpg,,,
,,num_8,2.4231,num_2,1.6319,num_9,1.7311,num_1,9.0905,num_3,0.7721,0,0,0,0,1,main,10,33,female,R,IMT,2021-07-14_09h34.18.336,ImageRatingTask_S3,2021.1.4,Win32,60.04563468,,,,,,,,,
,,,,,,,,,,,,0,1,1,1,1,second,10,33,female,R,IMT,2021-07-14_09h34.18.336,ImageRatingTask_S3,2021.1.4,Win32,60.04563468,,,,,,,,,
,,,,,,,,,,,,0,2,2,2,1,third,10,33,female,R,IMT,2021-07-14_09h34.18.336,ImageRatingTask_S3,2021.1.4,Win32,60.04563468,,,,,,,,,
,,,,,,,,,,,,0,3,3,3,1,fourth,10,33,female,R,IMT,2021-07-14_09h34.18.336,ImageRatingTask_S3,2021.1.4,Win32,60.04563468,,,,,,,,,
,,,,,,,,,,,,0,4,4,4,1,fifth,10,33,female,R,IMT,2021-07-14_09h34.18.336,ImageRatingTask_S3,2021.1.4,Win32,60.04563468,,,,,,,,,
,,,,,,,,,,,,0,5,5,5,1,sixth,10,33,female,R,IMT,2021-07-14_09h34.18.336,ImageRatingTask_S3,2021.1.4,Win32,60.04563468,,,,,,,,,
,,,,,,,,,,,,0,6,6,6,1,seventh,10,33,female,R,IMT,2021-07-14_09h34.18.336,ImageRatingTask_S3,2021.1.4,Win32,60.04563468,,,,,,,,,
,,,,,,,,,,,,0,7,7,7,1,last,10,33,female,R,IMT,2021-07-14_09h34.18.336,ImageRatingTask_S3,2021.1.4,Win32,60.04563468,,,,,,,,,
,,,,,,,,,,,,,,,,,,10,33,female,R,IMT,2021-07-14_09h34.18.336,ImageRatingTask_S3,2021.1.4,Win32,60.04563468,0,17,17,153,1,DreamStudyImages_rs1000x750g/Mammals/IAPS1460_babycat.jpg,,,
,,num_5,2.2217,num_1,0.6249,num_9,0.6834,num_1,0.5455,num_8,0.5988,0,0,0,0,1,main,10,33,female,R,IMT,2021-07-14_09h34.18.336,ImageRatingTask_S3,2021.1.4,Win32,60.04563468,,,,,,,,,
,,,,,,,,,,,,0,1,1,1,1,second,10,33,female,R,IMT,2021-07-14_09h34.18.336,ImageRatingTask_S3,2021.1.4,Win32,60.04563468,,,,,,,,,
,,,,,,,,,,,,0,2,2,2,1,third,10,33,female,R,IMT,2021-07-14_09h34.18.336,ImageRatingTask_S3,2021.1.4,Win32,60.04563468,,,,,,,,,
,,,,,,,,,,,,0,3,3,3,1,fourth,10,33,female,R,IMT,2021-07-14_09h34.18.336,ImageRatingTask_S3,2021.1.4,Win32,60.04563468,,,,,,,,,
,,,,,,,,,,,,0,4,4,4,1,fifth,10,33,female,R,IMT,2021-07-14_09h34.18.336,ImageRatingTask_S3,2021.1.4,Win32,60.04563468,,,,,,,,,
,,,,,,,,,,,,0,5,5,5,1,sixth,10,33,female,R,IMT,2021-07-14_09h34.18.336,ImageRatingTask_S3,2021.1.4,Win32,60.04563468,,,,,,,,,
,,,,,,,,,,,,0,6,6,6,1,seventh,10,33,female,R,IMT,2021-07-14_09h34.18.336,ImageRatingTask_S3,2021.1.4,Win32,60.04563468,,,,,,,,,
,,,,,,,,,,,,0,7,7,7,1,last,10,33,female,R,IMT,2021-07-14_09h34.18.336,ImageRatingTask_S3,2021.1.4,Win32,60.04563468,,,,,,,,,
,,,,,,,,,,,,,,,,,,10,33,female,R,IMT,2021-07-14_09h34.18.336,ImageRatingTask_S3,2021.1.4,Win32,60.04563468,0,18,18,78,1,DreamStudyImages_rs1000x750g/Water/landscapes_130_h.jpg,,,
,,num_8,2.6603,num_2,0.9838,num_9,0.899,num_1,1.8351,num_3,0.7188,0,0,0,0,1,main,10,33,female,R,IMT,2021-07-14_09h34.18.336,ImageRatingTask_S3,2021.1.4,Win32,60.04563468,,,,,,,,,
,,,,,,,,,,,,0,1,1,1,1,second,10,33,female,R,IMT,2021-07-14_09h34.18.336,ImageRatingTask_S3,2021.1.4,Win32,60.04563468,,,,,,,,,
,,,,,,,,,,,,0,2,2,2,1,third,10,33,female,R,IMT,2021-07-14_09h34.18.336,ImageRatingTask_S3,2021.1.4,Win32,60.04563468,,,,,,,,,
,,,,,,,,,,,,0,3,3,3,1,fourth,10,33,female,R,IMT,2021-07-14_09h34.18.336,ImageRatingTask_S3,2021.1.4,Win32,60.04563468,,,,,,,,,
,,,,,,,,,,,,0,4,4,4,1,fifth,10,33,female,R,IMT,2021-07-14_09h34.18.336,ImageRatingTask_S3,2021.1.4,Win32,60.04563468,,,,,,,,,
,,,,,,,,,,,,0,5,5,5,1,sixth,10,33,female,R,IMT,2021-07-14_09h34.18.336,ImageRatingTask_S3,2021.1.4,Win32,60.04563468,,,,,,,,,
,,,,,,,,,,,,0,6,6,6,1,seventh,10,33,female,R,IMT,2021-07-14_09h34.18.336,ImageRatingTask_S3,2021.1.4,Win32,60.04563468,,,,,,,,,
,,,,,,,,,,,,0,7,7,7,1,last,10,33,female,R,IMT,2021-07-14_09h34.18.336,ImageRatingTask_S3,2021.1.4,Win32,60.04563468,,,,,,,,,
,,,,,,,,,,,,,,,,,,10,33,female,R,IMT,2021-07-14_09h34.18.336,ImageRatingTask_S3,2021.1.4,Win32,60.04563468,0,19,19,35,1,DreamStudyImages_rs1000x750g/Mammals/IAPS1630_deer.jpg,,,
,,num_7,2.3737,num_2,0.9632,num_9,1.2451,num_1,1.2086,num_1,3.1156,0,0,0,0,1,main,10,33,female,R,IMT,2021-07-14_09h34.18.336,ImageRatingTask_S3,2021.1.4,Win32,60.04563468,,,,,,,,,
,,,,,,,,,,,,0,1,1,1,1,second,10,33,female,R,IMT,2021-07-14_09h34.18.336,ImageRatingTask_S3,2021.1.4,Win32,60.04563468,,,,,,,,,
,,,,,,,,,,,,0,2,2,2,1,third,10,33,female,R,IMT,2021-07-14_09h34.18.336,ImageRatingTask_S3,2021.1.4,Win32,60.04563468,,,,,,,,,
,,,,,,,,,,,,0,3,3,3,1,fourth,10,33,female,R,IMT,2021-07-14_09h34.18.336,ImageRatingTask_S3,2021.1.4,Win32,60.04563468,,,,,,,,,
,,,,,,,,,,,,0,4,4,4,1,fifth,10,33,female,R,IMT,2021-07-14_09h34.18.336,ImageRatingTask_S3,2021.1.4,Win32,60.04563468,,,,,,,,,
,,,,,,,,,,,,0,5,5,5,1,sixth,10,33,female,R,IMT,2021-07-14_09h34.18.336,ImageRatingTask_S3,2021.1.4,Win32,60.04563468,,,,,,,,,
,,,,,,,,,,,,0,6,6,6,1,seventh,10,33,female,R,IMT,2021-07-14_09h34.18.336,ImageRatingTask_S3,2021.1.4,Win32,60.04563468,,,,,,,,,
,,,,,,,,,,,,0,7,7,7,1,last,10,33,female,R,IMT,2021-07-14_09h34.18.336,ImageRatingTask_S3,2021.1.4,Win32,60.04563468,,,,,,,,,
,,,,,,,,,,,,,,,,,,10,33,female,R,IMT,2021-07-14_09h34.18.336,ImageRatingTask_S3,2021.1.4,Win32,60.04563468,0,20,20,12,1,DreamStudyImages_rs1000x750g/Children/Faces_259_v.jpg,,,
,,num_7,4.4723,num_3,2.3264,num_9,0.9316,num_2,0.5327,num_2,1.6195,0,0,0,0,1,main,10,33,female,R,IMT,2021-07-14_09h34.18.336,ImageRatingTask_S3,2021.1.4,Win32,60.04563468,,,,,,,,,
,,,,,,,,,,num_1,0.4004,0,1,1,1,1,second,10,33,female,R,IMT,2021-07-14_09h34.18.336,ImageRatingTask_S3,2021.1.4,Win32,60.04563468,,,,,,,,,
,,,,,,,,,,,,0,2,2,2,1,third,10,33,female,R,IMT,2021-07-14_09h34.18.336,ImageRatingTask_S3,2021.1.4,Win32,60.04563468,,,,,,,,,
,,,,,,,,,,,,0,3,3,3,1,fourth,10,33,female,R,IMT,2021-07-14_09h34.18.336,ImageRatingTask_S3,2021.1.4,Win32,60.04563468,,,,,,,,,
,,,,,,,,,,,,0,4,4,4,1,fifth,10,33,female,R,IMT,2021-07-14_09h34.18.336,ImageRatingTask_S3,2021.1.4,Win32,60.04563468,,,,,,,,,
,,,,,,,,,,,,0,5,5,5,1,sixth,10,33,female,R,IMT,2021-07-14_09h34.18.336,ImageRatingTask_S3,2021.1.4,Win32,60.04563468,,,,,,,,,
,,,,,,,,,,,,0,6,6,6,1,seventh,10,33,female,R,IMT,2021-07-14_09h34.18.336,ImageRatingTask_S3,2021.1.4,Win32,60.04563468,,,,,,,,,
,,,,,,,,,,,,0,7,7,7,1,last,10,33,female,R,IMT,2021-07-14_09h34.18.336,ImageRatingTask_S3,2021.1.4,Win32,60.04563468,,,,,,,,,
,,,,,,,,,,,,,,,,,,10,33,female,R,IMT,2021-07-14_09h34.18.336,ImageRatingTask_S3,2021.1.4,Win32,60.04563468,0,21,21,97,1,DreamStudyImages_rs1000x750g/Children/Faces_116_h.jpg,,,
,,num_5,2.6877,num_1,1.1423,num_9,3.0416,num_1,1.7316,num_5,1.1311,0,0,0,0,1,main,10,33,female,R,IMT,2021-07-14_09h34.18.336,ImageRatingTask_S3,2021.1.4,Win32,60.04563468,,,,,,,,,
,,,,,,,,,,,,0,1,1,1,1,second,10,33,female,R,IMT,2021-07-14_09h34.18.336,ImageRatingTask_S3,2021.1.4,Win32,60.04563468,,,,,,,,,
,,,,,,,,,,,,0,2,2,2,1,third,10,33,female,R,IMT,2021-07-14_09h34.18.336,ImageRatingTask_S3,2021.1.4,Win32,60.04563468,,,,,,,,,
,,,,,,,,,,,,0,3,3,3,1,fourth,10,33,female,R,IMT,2021-07-14_09h34.18.336,ImageRatingTask_S3,2021.1.4,Win32,60.04563468,,,,,,,,,
,,,,,,,,,,,,0,4,4,4,1,fifth,10,33,female,R,IMT,2021-07-14_09h34.18.336,ImageRatingTask_S3,2021.1.4,Win32,60.04563468,,,,,,,,,
,,,,,,,,,,,,0,5,5,5,1,sixth,10,33,female,R,IMT,2021-07-14_09h34.18.336,ImageRatingTask_S3,2021.1.4,Win32,60.04563468,,,,,,,,,
,,,,,,,,,,,,0,6,6,6,1,seventh,10,33,female,R,IMT,2021-07-14_09h34.18.336,ImageRatingTask_S3,2021.1.4,Win32,60.04563468,,,,,,,,,
,,,,,,,,,,,,0,7,7,7,1,last,10,33,female,R,IMT,2021-07-14_09h34.18.336,ImageRatingTask_S3,2021.1.4,Win32,60.04563468,,,,,,,,,
,,,,,,,,,,,,,,,,,,10,33,female,R,IMT,2021-07-14_09h34.18.336,ImageRatingTask_S3,2021.1.4,Win32,60.04563468,0,22,22,109,1,DreamStudyImages_rs1000x750g/Food/IAPS7487_pastela.jpg,,,
,,num_5,4.3184,num_1,0.5924,num_9,1.4089,num_1,2.0221,num_7,0.9526,0,0,0,0,1,main,10,33,female,R,IMT,2021-07-14_09h34.18.336,ImageRatingTask_S3,2021.1.4,Win32,60.04563468,,,,,,,,,
,,,,,,,,,,,,0,1,1,1,1,second,10,33,female,R,IMT,2021-07-14_09h34.18.336,ImageRatingTask_S3,2021.1.4,Win32,60.04563468,,,,,,,,,
,,,,,,,,,,,,0,2,2,2,1,third,10,33,female,R,IMT,2021-07-14_09h34.18.336,ImageRatingTask_S3,2021.1.4,Win32,60.04563468,,,,,,,,,
,,,,,,,,,,,,0,3,3,3,1,fourth,10,33,female,R,IMT,2021-07-14_09h34.18.336,ImageRatingTask_S3,2021.1.4,Win32,60.04563468,,,,,,,,,
,,,,,,,,,,,,0,4,4,4,1,fifth,10,33,female,R,IMT,2021-07-14_09h34.18.336,ImageRatingTask_S3,2021.1.4,Win32,60.04563468,,,,,,,,,
,,,,,,,,,,,,0,5,5,5,1,sixth,10,33,female,R,IMT,2021-07-14_09h34.18.336,ImageRatingTask_S3,2021.1.4,Win32,60.04563468,,,,,,,,,
,,,,,,,,,,,,0,6,6,6,1,seventh,10,33,female,R,IMT,2021-07-14_09h34.18.336,ImageRatingTask_S3,2021.1.4,Win32,60.04563468,,,,,,,,,
,,,,,,,,,,,,0,7,7,7,1,last,10,33,female,R,IMT,2021-07-14_09h34.18.336,ImageRatingTask_S3,2021.1.4,Win32,60.04563468,,,,,,,,,
,,,,,,,,,,,,,,,,,,10,33,female,R,IMT,2021-07-14_09h34.18.336,ImageRatingTask_S3,2021.1.4,Win32,60.04563468,0,23,23,136,1,DreamStudyImages_rs1000x750g/Vehicles/Objects_302_h.jpg,,,
,,num_2,9.077,num_1,1.0823,num_7,4.0801,num_0,12.2545,,,0,0,0,0,1,main,10,33,female,R,IMT,2021-07-14_09h34.18.336,ImageRatingTask_S3,2021.1.4,Win32,60.04563468,,,,,,,,,
,,,,,,,,,,,,0,1,1,1,1,second,10,33,female,R,IMT,2021-07-14_09h34.18.336,ImageRatingTask_S3,2021.1.4,Win32,60.04563468,,,,,,,,,
,,,,,,,,,,,,0,2,2,2,1,third,10,33,female,R,IMT,2021-07-14_09h34.18.336,ImageRatingTask_S3,2021.1.4,Win32,60.04563468,,,,,,,,,
,,,,,,,,,,,,0,3,3,3,1,fourth,10,33,female,R,IMT,2021-07-14_09h34.18.336,ImageRatingTask_S3,2021.1.4,Win32,60.04563468,,,,,,,,,
,,,,,,,,,,,,0,4,4,4,1,fifth,10,33,female,R,IMT,2021-07-14_09h34.18.336,ImageRatingTask_S3,2021.1.4,Win32,60.04563468,,,,,,,,,
,,,,,,,,,,,,0,5,5,5,1,sixth,10,33,female,R,IMT,2021-07-14_09h34.18.336,ImageRatingTask_S3,2021.1.4,Win32,60.04563468,,,,,,,,,
,,,,,,,,,,,,0,6,6,6,1,seventh,10,33,female,R,IMT,2021-07-14_09h34.18.336,ImageRatingTask_S3,2021.1.4,Win32,60.04563468,,,,,,,,,
,,,,,,,,,,,,0,7,7,7,1,last,10,33,female,R,IMT,2021-07-14_09h34.18.336,ImageRatingTask_S3,2021.1.4,Win32,60.04563468,,,,,,,,,
,,,,,,,,,,,,,,,,,,10,33,female,R,IMT,2021-07-14_09h34.18.336,ImageRatingTask_S3,2021.1.4,Win32,60.04563468,0,24,24,150,1,DreamStudyImages_rs1000x750g/Water/IAPS5220_tropicalbridge_CHECK.jpg,,,
,,num_3,3.9122,num_4,2.1169,num_9,1.618,num_1,3.3233,num_6,0.7062,0,0,0,0,1,main,10,33,female,R,IMT,2021-07-14_09h34.18.336,ImageRatingTask_S3,2021.1.4,Win32,60.04563468,,,,,,,,,
,,,,,,,,,,,,0,1,1,1,1,second,10,33,female,R,IMT,2021-07-14_09h34.18.336,ImageRatingTask_S3,2021.1.4,Win32,60.04563468,,,,,,,,,
,,,,,,,,,,,,0,2,2,2,1,third,10,33,female,R,IMT,2021-07-14_09h34.18.336,ImageRatingTask_S3,2021.1.4,Win32,60.04563468,,,,,,,,,
,,,,,,,,,,,,0,3,3,3,1,fourth,10,33,female,R,IMT,2021-07-14_09h34.18.336,ImageRatingTask_S3,2021.1.4,Win32,60.04563468,,,,,,,,,
,,,,,,,,,,,,0,4,4,4,1,fifth,10,33,female,R,IMT,2021-07-14_09h34.18.336,ImageRatingTask_S3,2021.1.4,Win32,60.04563468,,,,,,,,,
,,,,,,,,,,,,0,5,5,5,1,sixth,10,33,female,R,IMT,2021-07-14_09h34.18.336,ImageRatingTask_S3,2021.1.4,Win32,60.04563468,,,,,,,,,
,,,,,,,,,,,,0,6,6,6,1,seventh,10,33,female,R,IMT,2021-07-14_09h34.18.336,ImageRatingTask_S3,2021.1.4,Win32,60.04563468,,,,,,,,,
,,,,,,,,,,,,0,7,7,7,1,last,10,33,female,R,IMT,2021-07-14_09h34.18.336,ImageRatingTask_S3,2021.1.4,Win32,60.04563468,,,,,,,,,
,,,,,,,,,,,,,,,,,,10,33,female,R,IMT,2021-07-14_09h34.18.336,ImageRatingTask_S3,2021.1.4,Win32,60.04563468,0,25,25,127,1,DreamStudyImages_rs1000x750g/Houses/IAPS9468_doortag.jpg,,,
,,num_6,2.1011,num_1,1.3428,num_8,2.2736,num_1,3.0294,num_7,0.7482,0,0,0,0,1,main,10,33,female,R,IMT,2021-07-14_09h34.18.336,ImageRatingTask_S3,2021.1.4,Win32,60.04563468,,,,,,,,,
,,,,,,,,,,,,0,1,1,1,1,second,10,33,female,R,IMT,2021-07-14_09h34.18.336,ImageRatingTask_S3,2021.1.4,Win32,60.04563468,,,,,,,,,
,,,,,,,,,,,,0,2,2,2,1,third,10,33,female,R,IMT,2021-07-14_09h34.18.336,ImageRatingTask_S3,2021.1.4,Win32,60.04563468,,,,,,,,,
,,,,,,,,,,,,0,3,3,3,1,fourth,10,33,female,R,IMT,2021-07-14_09h34.18.336,ImageRatingTask_S3,2021.1.4,Win32,60.04563468,,,,,,,,,
,,,,,,,,,,,,0,4,4,4,1,fifth,10,33,female,R,IMT,2021-07-14_09h34.18.336,ImageRatingTask_S3,2021.1.4,Win32,60.04563468,,,,,,,,,
,,,,,,,,,,,,0,5,5,5,1,sixth,10,33,female,R,IMT,2021-07-14_09h34.18.336,ImageRatingTask_S3,2021.1.4,Win32,60.04563468,,,,,,,,,
,,,,,,,,,,,,0,6,6,6,1,seventh,10,33,female,R,IMT,2021-07-14_09h34.18.336,ImageRatingTask_S3,2021.1.4,Win32,60.04563468,,,,,,,,,
,,,,,,,,,,,,0,7,7,7,1,last,10,33,female,R,IMT,2021-07-14_09h34.18.336,ImageRatingTask_S3,2021.1.4,Win32,60.04563468,,,,,,,,,
,,,,,,,,,,,,,,,,,,10,33,female,R,IMT,2021-07-14_09h34.18.336,ImageRatingTask_S3,2021.1.4,Win32,60.04563468,0,26,26,14,1,DreamStudyImages_rs1000x750g/Vehicles/Objects_301_h.jpg,,,
,,num_5,3.162,num_1,0.6189,num_9,1.0004,num_1,3.7237,num_7,1.0119,0,0,0,0,1,main,10,33,female,R,IMT,2021-07-14_09h34.18.336,ImageRatingTask_S3,2021.1.4,Win32,60.04563468,,,,,,,,,
,,,,,,,,,,,,0,1,1,1,1,second,10,33,female,R,IMT,2021-07-14_09h34.18.336,ImageRatingTask_S3,2021.1.4,Win32,60.04563468,,,,,,,,,
,,,,,,,,,,,,0,2,2,2,1,third,10,33,female,R,IMT,2021-07-14_09h34.18.336,ImageRatingTask_S3,2021.1.4,Win32,60.04563468,,,,,,,,,
,,,,,,,,,,,,0,3,3,3,1,fourth,10,33,female,R,IMT,2021-07-14_09h34.18.336,ImageRatingTask_S3,2021.1.4,Win32,60.04563468,,,,,,,,,
,,,,,,,,,,,,0,4,4,4,1,fifth,10,33,female,R,IMT,2021-07-14_09h34.18.336,ImageRatingTask_S3,2021.1.4,Win32,60.04563468,,,,,,,,,
,,,,,,,,,,,,0,5,5,5,1,sixth,10,33,female,R,IMT,2021-07-14_09h34.18.336,ImageRatingTask_S3,2021.1.4,Win32,60.04563468,,,,,,,,,
,,,,,,,,,,,,0,6,6,6,1,seventh,10,33,female,R,IMT,2021-07-14_09h34.18.336,ImageRatingTask_S3,2021.1.4,Win32,60.04563468,,,,,,,,,
,,,,,,,,,,,,0,7,7,7,1,last,10,33,female,R,IMT,2021-07-14_09h34.18.336,ImageRatingTask_S3,2021.1.4,Win32,60.04563468,,,,,,,,,
,,,,,,,,,,,,,,,,,,10,33,female,R,IMT,2021-07-14_09h34.18.336,ImageRatingTask_S3,2021.1.4,Win32,60.04563468,0,27,27,75,1,DreamStudyImages_rs1000x750g/Vehicles/truckfleet.jpg,,,
,,num_7,4.6088,num_2,1.2979,num_9,1.0107,num_1,1.9786,num_3,0.6166,0,0,0,0,1,main,10,33,female,R,IMT,2021-07-14_09h34.18.336,ImageRatingTask_S3,2021.1.4,Win32,60.04563468,,,,,,,,,
,,,,,,,,,,,,0,1,1,1,1,second,10,33,female,R,IMT,2021-07-14_09h34.18.336,ImageRatingTask_S3,2021.1.4,Win32,60.04563468,,,,,,,,,
,,,,,,,,,,,,0,2,2,2,1,third,10,33,female,R,IMT,2021-07-14_09h34.18.336,ImageRatingTask_S3,2021.1.4,Win32,60.04563468,,,,,,,,,
,,,,,,,,,,,,0,3,3,3,1,fourth,10,33,female,R,IMT,2021-07-14_09h34.18.336,ImageRatingTask_S3,2021.1.4,Win32,60.04563468,,,,,,,,,
,,,,,,,,,,,,0,4,4,4,1,fifth,10,33,female,R,IMT,2021-07-14_09h34.18.336,ImageRatingTask_S3,2021.1.4,Win32,60.04563468,,,,,,,,,
,,,,,,,,,,,,0,5,5,5,1,sixth,10,33,female,R,IMT,2021-07-14_09h34.18.336,ImageRatingTask_S3,2021.1.4,Win32,60.04563468,,,,,,,,,
,,,,,,,,,,,,0,6,6,6,1,seventh,10,33,female,R,IMT,2021-07-14_09h34.18.336,ImageRatingTask_S3,2021.1.4,Win32,60.04563468,,,,,,,,,
,,,,,,,,,,,,0,7,7,7,1,last,10,33,female,R,IMT,2021-07-14_09h34.18.336,ImageRatingTask_S3,2021.1.4,Win32,60.04563468,,,,,,,,,
,,,,,,,,,,,,,,,,,,10,33,female,R,IMT,2021-07-14_09h34.18.336,ImageRatingTask_S3,2021.1.4,Win32,60.04563468,0,28,28,23,1,DreamStudyImages_rs1000x750g/Mammals/Animals_207_h.jpg,,,
,,num_6,1.6664,num_1,0.5675,num_9,0.9736,num_1,1.3134,num_2,0.6224,0,0,0,0,1,main,10,33,female,R,IMT,2021-07-14_09h34.18.336,ImageRatingTask_S3,2021.1.4,Win32,60.04563468,,,,,,,,,
,,,,,,,,,,,,0,1,1,1,1,second,10,33,female,R,IMT,2021-07-14_09h34.18.336,ImageRatingTask_S3,2021.1.4,Win32,60.04563468,,,,,,,,,
,,,,,,,,,,,,0,2,2,2,1,third,10,33,female,R,IMT,2021-07-14_09h34.18.336,ImageRatingTask_S3,2021.1.4,Win32,60.04563468,,,,,,,,,
,,,,,,,,,,,,0,3,3,3,1,fourth,10,33,female,R,IMT,2021-07-14_09h34.18.336,ImageRatingTask_S3,2021.1.4,Win32,60.04563468,,,,,,,,,
,,,,,,,,,,,,0,4,4,4,1,fifth,10,33,female,R,IMT,2021-07-14_09h34.18.336,ImageRatingTask_S3,2021.1.4,Win32,60.04563468,,,,,,,,,
,,,,,,,,,,,,0,5,5,5,1,sixth,10,33,female,R,IMT,2021-07-14_09h34.18.336,ImageRatingTask_S3,2021.1.4,Win32,60.04563468,,,,,,,,,
,,,,,,,,,,,,0,6,6,6,1,seventh,10,33,female,R,IMT,2021-07-14_09h34.18.336,ImageRatingTask_S3,2021.1.4,Win32,60.04563468,,,,,,,,,
,,,,,,,,,,,,0,7,7,7,1,last,10,33,female,R,IMT,2021-07-14_09h34.18.336,ImageRatingTask_S3,2021.1.4,Win32,60.04563468,,,,,,,,,
,,,,,,,,,,,,,,,,,,10,33,female,R,IMT,2021-07-14_09h34.18.336,ImageRatingTask_S3,2021.1.4,Win32,60.04563468,0,29,29,39,1,DreamStudyImages_rs1000x750g/Children/Faces_075_v.jpg,,,
,,num_4,3.1813,num_2,9.4161,num_8,4.8075,num_1,1.1031,num_6,0.7603,0,0,0,0,1,main,10,33,female,R,IMT,2021-07-14_09h34.18.336,ImageRatingTask_S3,2021.1.4,Win32,60.04563468,,,,,,,,,
,,,,,,,,,,,,0,1,1,1,1,second,10,33,female,R,IMT,2021-07-14_09h34.18.336,ImageRatingTask_S3,2021.1.4,Win32,60.04563468,,,,,,,,,
,,,,,,,,,,,,0,2,2,2,1,third,10,33,female,R,IMT,2021-07-14_09h34.18.336,ImageRatingTask_S3,2021.1.4,Win32,60.04563468,,,,,,,,,
,,,,,,,,,,,,0,3,3,3,1,fourth,10,33,female,R,IMT,2021-07-14_09h34.18.336,ImageRatingTask_S3,2021.1.4,Win32,60.04563468,,,,,,,,,
,,,,,,,,,,,,0,4,4,4,1,fifth,10,33,female,R,IMT,2021-07-14_09h34.18.336,ImageRatingTask_S3,2021.1.4,Win32,60.04563468,,,,,,,,,
,,,,,,,,,,,,0,5,5,5,1,sixth,10,33,female,R,IMT,2021-07-14_09h34.18.336,ImageRatingTask_S3,2021.1.4,Win32,60.04563468,,,,,,,,,
,,,,,,,,,,,,0,6,6,6,1,seventh,10,33,female,R,IMT,2021-07-14_09h34.18.336,ImageRatingTask_S3,2021.1.4,Win32,60.04563468,,,,,,,,,
,,,,,,,,,,,,0,7,7,7,1,last,10,33,female,R,IMT,2021-07-14_09h34.18.336,ImageRatingTask_S3,2021.1.4,Win32,60.04563468,,,,,,,,,
,,,,,,,,,,,,,,,,,,10,33,female,R,IMT,2021-07-14_09h34.18.336,ImageRatingTask_S3,2021.1.4,Win32,60.04563468,0,30,30,37,1,DreamStudyImages_rs1000x750g/Houses/Landscapes_018_h_CROPPED.jpg,,,
,,num_7,7.2644,num_4,3.357,num_9,1.1929,num_1,0.5744,num_3,0.5413,0,0,0,0,1,main,10,33,female,R,IMT,2021-07-14_09h34.18.336,ImageRatingTask_S3,2021.1.4,Win32,60.04563468,,,,,,,,,
,,,,,,,,,,,,0,1,1,1,1,second,10,33,female,R,IMT,2021-07-14_09h34.18.336,ImageRatingTask_S3,2021.1.4,Win32,60.04563468,,,,,,,,,
,,,,,,,,,,,,0,2,2,2,1,third,10,33,female,R,IMT,2021-07-14_09h34.18.336,ImageRatingTask_S3,2021.1.4,Win32,60.04563468,,,,,,,,,
,,,,,,,,,,,,0,3,3,3,1,fourth,10,33,female,R,IMT,2021-07-14_09h34.18.336,ImageRatingTask_S3,2021.1.4,Win32,60.04563468,,,,,,,,,
,,,,,,,,,,,,0,4,4,4,1,fifth,10,33,female,R,IMT,2021-07-14_09h34.18.336,ImageRatingTask_S3,2021.1.4,Win32,60.04563468,,,,,,,,,
,,,,,,,,,,,,0,5,5,5,1,sixth,10,33,female,R,IMT,2021-07-14_09h34.18.336,ImageRatingTask_S3,2021.1.4,Win32,60.04563468,,,,,,,,,
,,,,,,,,,,,,0,6,6,6,1,seventh,10,33,female,R,IMT,2021-07-14_09h34.18.336,ImageRatingTask_S3,2021.1.4,Win32,60.04563468,,,,,,,,,
,,,,,,,,,,,,0,7,7,7,1,last,10,33,female,R,IMT,2021-07-14_09h34.18.336,ImageRatingTask_S3,2021.1.4,Win32,60.04563468,,,,,,,,,
,,,,,,,,,,,,,,,,,,10,33,female,R,IMT,2021-07-14_09h34.18.336,ImageRatingTask_S3,2021.1.4,Win32,60.04563468,0,31,31,22,1,DreamStudyImages_rs1000x750g/Mammals/Animals_202_h.jpg,,,
,,num_2,2.0937,num_4,1.7244,num_9,0.9129,num_1,0.9317,num_6,4.7496,0,0,0,0,1,main,10,33,female,R,IMT,2021-07-14_09h34.18.336,ImageRatingTask_S3,2021.1.4,Win32,60.04563468,,,,,,,,,
,,,,,,,,,,,,0,1,1,1,1,second,10,33,female,R,IMT,2021-07-14_09h34.18.336,ImageRatingTask_S3,2021.1.4,Win32,60.04563468,,,,,,,,,
,,,,,,,,,,,,0,2,2,2,1,third,10,33,female,R,IMT,2021-07-14_09h34.18.336,ImageRatingTask_S3,2021.1.4,Win32,60.04563468,,,,,,,,,
,,,,,,,,,,,,0,3,3,3,1,fourth,10,33,female,R,IMT,2021-07-14_09h34.18.336,ImageRatingTask_S3,2021.1.4,Win32,60.04563468,,,,,,,,,
,,,,,,,,,,,,0,4,4,4,1,fifth,10,33,female,R,IMT,2021-07-14_09h34.18.336,ImageRatingTask_S3,2021.1.4,Win32,60.04563468,,,,,,,,,
,,,,,,,,,,,,0,5,5,5,1,sixth,10,33,female,R,IMT,2021-07-14_09h34.18.336,ImageRatingTask_S3,2021.1.4,Win32,60.04563468,,,,,,,,,
,,,,,,,,,,,,0,6,6,6,1,seventh,10,33,female,R,IMT,2021-07-14_09h34.18.336,ImageRatingTask_S3,2021.1.4,Win32,60.04563468,,,,,,,,,
,,,,,,,,,,,,0,7,7,7,1,last,10,33,female,R,IMT,2021-07-14_09h34.18.336,ImageRatingTask_S3,2021.1.4,Win32,60.04563468,,,,,,,,,
,,,,,,,,,,,,,,,,,,10,33,female,R,IMT,2021-07-14_09h34.18.336,ImageRatingTask_S3,2021.1.4,Win32,60.04563468,0,32,32,137,1,DreamStudyImages_rs1000x750g/Houses/Jail 5.jpg,,,
,,num_3,6.859,num_7,2.7341,num_9,2.1575,num_1,2.4099,num_7,0.6619,0,0,0,0,1,main,10,33,female,R,IMT,2021-07-14_09h34.18.336,ImageRatingTask_S3,2021.1.4,Win32,60.04563468,,,,,,,,,
,,,,,,,,,,,,0,1,1,1,1,second,10,33,female,R,IMT,2021-07-14_09h34.18.336,ImageRatingTask_S3,2021.1.4,Win32,60.04563468,,,,,,,,,
,,,,,,,,,,,,0,2,2,2,1,third,10,33,female,R,IMT,2021-07-14_09h34.18.336,ImageRatingTask_S3,2021.1.4,Win32,60.04563468,,,,,,,,,
,,,,,,,,,,,,0,3,3,3,1,fourth,10,33,female,R,IMT,2021-07-14_09h34.18.336,ImageRatingTask_S3,2021.1.4,Win32,60.04563468,,,,,,,,,
,,,,,,,,,,,,0,4,4,4,1,fifth,10,33,female,R,IMT,2021-07-14_09h34.18.336,ImageRatingTask_S3,2021.1.4,Win32,60.04563468,,,,,,,,,
,,,,,,,,,,,,0,5,5,5,1,sixth,10,33,female,R,IMT,2021-07-14_09h34.18.336,ImageRatingTask_S3,2021.1.4,Win32,60.04563468,,,,,,,,,
,,,,,,,,,,,,0,6,6,6,1,seventh,10,33,female,R,IMT,2021-07-14_09h34.18.336,ImageRatingTask_S3,2021.1.4,Win32,60.04563468,,,,,,,,,
,,,,,,,,,,,,0,7,7,7,1,last,10,33,female,R,IMT,2021-07-14_09h34.18.336,ImageRatingTask_S3,2021.1.4,Win32,60.04563468,,,,,,,,,
,,,,,,,,,,,,,,,,,,10,33,female,R,IMT,2021-07-14_09h34.18.336,ImageRatingTask_S3,2021.1.4,Win32,60.04563468,0,33,33,38,1,DreamStudyImages_rs1000x750g/Vehicles/Car accident 3.jpg,,,
,,num_5,2.1706,num_6,1.1238,num_9,6.6151,num_1,1.4714,num_5,0.7756,0,0,0,0,1,main,10,33,female,R,IMT,2021-07-14_09h34.18.336,ImageRatingTask_S3,2021.1.4,Win32,60.04563468,,,,,,,,,
,,,,,,,,,,,,0,1,1,1,1,second,10,33,female,R,IMT,2021-07-14_09h34.18.336,ImageRatingTask_S3,2021.1.4,Win32,60.04563468,,,,,,,,,
,,,,,,,,,,,,0,2,2,2,1,third,10,33,female,R,IMT,2021-07-14_09h34.18.336,ImageRatingTask_S3,2021.1.4,Win32,60.04563468,,,,,,,,,
,,,,,,,,,,,,0,3,3,3,1,fourth,10,33,female,R,IMT,2021-07-14_09h34.18.336,ImageRatingTask_S3,2021.1.4,Win32,60.04563468,,,,,,,,,
,,,,,,,,,,,,0,4,4,4,1,fifth,10,33,female,R,IMT,2021-07-14_09h34.18.336,ImageRatingTask_S3,2021.1.4,Win32,60.04563468,,,,,,,,,
,,,,,,,,,,,,0,5,5,5,1,sixth,10,33,female,R,IMT,2021-07-14_09h34.18.336,ImageRatingTask_S3,2021.1.4,Win32,60.04563468,,,,,,,,,
,,,,,,,,,,,,0,6,6,6,1,seventh,10,33,female,R,IMT,2021-07-14_09h34.18.336,ImageRatingTask_S3,2021.1.4,Win32,60.04563468,,,,,,,,,
,,,,,,,,,,,,0,7,7,7,1,last,10,33,female,R,IMT,2021-07-14_09h34.18.336,ImageRatingTask_S3,2021.1.4,Win32,60.04563468,,,,,,,,,
,,,,,,,,,,,,,,,,,,10,33,female,R,IMT,2021-07-14_09h34.18.336,ImageRatingTask_S3,2021.1.4,Win32,60.04563468,0,34,34,82,1,DreamStudyImages_rs1000x750g/Food/Dessert 4.jpg,,,
,,num_5,4.4113,num_1,1.012,num_9,0.9081,num_1,1.8774,num_8,0.6453,0,0,0,0,1,main,10,33,female,R,IMT,2021-07-14_09h34.18.336,ImageRatingTask_S3,2021.1.4,Win32,60.04563468,,,,,,,,,
,,,,,,,,,,,,0,1,1,1,1,second,10,33,female,R,IMT,2021-07-14_09h34.18.336,ImageRatingTask_S3,2021.1.4,Win32,60.04563468,,,,,,,,,
,,,,,,,,,,,,0,2,2,2,1,third,10,33,female,R,IMT,2021-07-14_09h34.18.336,ImageRatingTask_S3,2021.1.4,Win32,60.04563468,,,,,,,,,
,,,,,,,,,,,,0,3,3,3,1,fourth,10,33,female,R,IMT,2021-07-14_09h34.18.336,ImageRatingTask_S3,2021.1.4,Win32,60.04563468,,,,,,,,,
,,,,,,,,,,,,0,4,4,4,1,fifth,10,33,female,R,IMT,2021-07-14_09h34.18.336,ImageRatingTask_S3,2021.1.4,Win32,60.04563468,,,,,,,,,
,,,,,,,,,,,,0,5,5,5,1,sixth,10,33,female,R,IMT,2021-07-14_09h34.18.336,ImageRatingTask_S3,2021.1.4,Win32,60.04563468,,,,,,,,,
,,,,,,,,,,,,0,6,6,6,1,seventh,10,33,female,R,IMT,2021-07-14_09h34.18.336,ImageRatingTask_S3,2021.1.4,Win32,60.04563468,,,,,,,,,
,,,,,,,,,,,,0,7,7,7,1,last,10,33,female,R,IMT,2021-07-14_09h34.18.336,ImageRatingTask_S3,2021.1.4,Win32,60.04563468,,,,,,,,,
,,,,,,,,,,,,,,,,,,10,33,female,R,IMT,2021-07-14_09h34.18.336,ImageRatingTask_S3,2021.1.4,Win32,60.04563468,0,35,35,96,1,DreamStudyImages_rs1000x750g/Water/seacliffbridge.jpg,,,
,,num_5,1.5077,num_1,0.7039,num_9,0.8338,num_1,0.7488,num_7,0.6244,0,0,0,0,1,main,10,33,female,R,IMT,2021-07-14_09h34.18.336,ImageRatingTask_S3,2021.1.4,Win32,60.04563468,,,,,,,,,
,,,,,,,,,,,,0,1,1,1,1,second,10,33,female,R,IMT,2021-07-14_09h34.18.336,ImageRatingTask_S3,2021.1.4,Win32,60.04563468,,,,,,,,,
,,,,,,,,,,,,0,2,2,2,1,third,10,33,female,R,IMT,2021-07-14_09h34.18.336,ImageRatingTask_S3,2021.1.4,Win32,60.04563468,,,,,,,,,
,,,,,,,,,,,,0,3,3,3,1,fourth,10,33,female,R,IMT,2021-07-14_09h34.18.336,ImageRatingTask_S3,2021.1.4,Win32,60.04563468,,,,,,,,,
,,,,,,,,,,,,0,4,4,4,1,fifth,10,33,female,R,IMT,2021-07-14_09h34.18.336,ImageRatingTask_S3,2021.1.4,Win32,60.04563468,,,,,,,,,
,,,,,,,,,,,,0,5,5,5,1,sixth,10,33,female,R,IMT,2021-07-14_09h34.18.336,ImageRatingTask_S3,2021.1.4,Win32,60.04563468,,,,,,,,,
,,,,,,,,,,,,0,6,6,6,1,seventh,10,33,female,R,IMT,2021-07-14_09h34.18.336,ImageRatingTask_S3,2021.1.4,Win32,60.04563468,,,,,,,,,
,,,,,,,,,,,,0,7,7,7,1,last,10,33,female,R,IMT,2021-07-14_09h34.18.336,ImageRatingTask_S3,2021.1.4,Win32,60.04563468,,,,,,,,,
,,,,,,,,,,,,,,,,,,10,33,female,R,IMT,2021-07-14_09h34.18.336,ImageRatingTask_S3,2021.1.4,Win32,60.04563468,0,36,36,125,1,DreamStudyImages_rs1000x750g/Houses/Landscapes_080_h.jpg,,,
,,num_6,1.7303,num_2,1.0596,num_8,1.4789,num_1,1.6687,num_8,0.7458,0,0,0,0,1,main,10,33,female,R,IMT,2021-07-14_09h34.18.336,ImageRatingTask_S3,2021.1.4,Win32,60.04563468,,,,,,,,,
,,,,,,,,,,,,0,1,1,1,1,second,10,33,female,R,IMT,2021-07-14_09h34.18.336,ImageRatingTask_S3,2021.1.4,Win32,60.04563468,,,,,,,,,
,,,,,,,,,,,,0,2,2,2,1,third,10,33,female,R,IMT,2021-07-14_09h34.18.336,ImageRatingTask_S3,2021.1.4,Win32,60.04563468,,,,,,,,,
,,,,,,,,,,,,0,3,3,3,1,fourth,10,33,female,R,IMT,2021-07-14_09h34.18.336,ImageRatingTask_S3,2021.1.4,Win32,60.04563468,,,,,,,,,
,,,,,,,,,,,,0,4,4,4,1,fifth,10,33,female,R,IMT,2021-07-14_09h34.18.336,ImageRatingTask_S3,2021.1.4,Win32,60.04563468,,,,,,,,,
,,,,,,,,,,,,0,5,5,5,1,sixth,10,33,female,R,IMT,2021-07-14_09h34.18.336,ImageRatingTask_S3,2021.1.4,Win32,60.04563468,,,,,,,,,
,,,,,,,,,,,,0,6,6,6,1,seventh,10,33,female,R,IMT,2021-07-14_09h34.18.336,ImageRatingTask_S3,2021.1.4,Win32,60.04563468,,,,,,,,,
,,,,,,,,,,,,0,7,7,7,1,last,10,33,female,R,IMT,2021-07-14_09h34.18.336,ImageRatingTask_S3,2021.1.4,Win32,60.04563468,,,,,,,,,
,,,,,,,,,,,,,,,,,,10,33,female,R,IMT,2021-07-14_09h34.18.336,ImageRatingTask_S3,2021.1.4,Win32,60.04563468,0,37,37,87,1,DreamStudyImages_rs1000x750g/Water/97.jpg,,,
,,num_7,4.7755,num_2,3.6019,num_9,1.5738,num_1,2.2863,num_3,0.8434,0,0,0,0,1,main,10,33,female,R,IMT,2021-07-14_09h34.18.336,ImageRatingTask_S3,2021.1.4,Win32,60.04563468,,,,,,,,,
,,,,,,,,,,,,0,1,1,1,1,second,10,33,female,R,IMT,2021-07-14_09h34.18.336,ImageRatingTask_S3,2021.1.4,Win32,60.04563468,,,,,,,,,
,,,,,,,,,,,,0,2,2,2,1,third,10,33,female,R,IMT,2021-07-14_09h34.18.336,ImageRatingTask_S3,2021.1.4,Win32,60.04563468,,,,,,,,,
,,,,,,,,,,,,0,3,3,3,1,fourth,10,33,female,R,IMT,2021-07-14_09h34.18.336,ImageRatingTask_S3,2021.1.4,Win32,60.04563468,,,,,,,,,
,,,,,,,,,,,,0,4,4,4,1,fifth,10,33,female,R,IMT,2021-07-14_09h34.18.336,ImageRatingTask_S3,2021.1.4,Win32,60.04563468,,,,,,,,,
,,,,,,,,,,,,0,5,5,5,1,sixth,10,33,female,R,IMT,2021-07-14_09h34.18.336,ImageRatingTask_S3,2021.1.4,Win32,60.04563468,,,,,,,,,
,,,,,,,,,,,,0,6,6,6,1,seventh,10,33,female,R,IMT,2021-07-14_09h34.18.336,ImageRatingTask_S3,2021.1.4,Win32,60.04563468,,,,,,,,,
,,,,,,,,,,,,0,7,7,7,1,last,10,33,female,R,IMT,2021-07-14_09h34.18.336,ImageRatingTask_S3,2021.1.4,Win32,60.04563468,,,,,,,,,
,,,,,,,,,,,,,,,,,,10,33,female,R,IMT,2021-07-14_09h34.18.336,ImageRatingTask_S3,2021.1.4,Win32,60.04563468,0,38,38,120,1,DreamStudyImages_rs1000x750g/Mammals/Orangutan 1.jpg,,,
,,num_7,5.9645,num_2,0.7613,num_9,1.6675,num_1,2.0863,num_3,0.3431,0,0,0,0,1,main,10,33,female,R,IMT,2021-07-14_09h34.18.336,ImageRatingTask_S3,2021.1.4,Win32,60.04563468,,,,,,,,,
,,,,,,,,,,,,0,1,1,1,1,second,10,33,female,R,IMT,2021-07-14_09h34.18.336,ImageRatingTask_S3,2021.1.4,Win32,60.04563468,,,,,,,,,
,,,,,,,,,,,,0,2,2,2,1,third,10,33,female,R,IMT,2021-07-14_09h34.18.336,ImageRatingTask_S3,2021.1.4,Win32,60.04563468,,,,,,,,,
,,,,,,,,,,,,0,3,3,3,1,fourth,10,33,female,R,IMT,2021-07-14_09h34.18.336,ImageRatingTask_S3,2021.1.4,Win32,60.04563468,,,,,,,,,
,,,,,,,,,,,,0,4,4,4,1,fifth,10,33,female,R,IMT,2021-07-14_09h34.18.336,ImageRatingTask_S3,2021.1.4,Win32,60.04563468,,,,,,,,,
,,,,,,,,,,,,0,5,5,5,1,sixth,10,33,female,R,IMT,2021-07-14_09h34.18.336,ImageRatingTask_S3,2021.1.4,Win32,60.04563468,,,,,,,,,
,,,,,,,,,,,,0,6,6,6,1,seventh,10,33,female,R,IMT,2021-07-14_09h34.18.336,ImageRatingTask_S3,2021.1.4,Win32,60.04563468,,,,,,,,,
,,,,,,,,,,,,0,7,7,7,1,last,10,33,female,R,IMT,2021-07-14_09h34.18.336,ImageRatingTask_S3,2021.1.4,Win32,60.04563468,,,,,,,,,
,,,,,,,,,,,,,,,,,,10,33,female,R,IMT,2021-07-14_09h34.18.336,ImageRatingTask_S3,2021.1.4,Win32,60.04563468,0,39,39,13,1,DreamStudyImages_rs1000x750g/Mammals/Tiger 2.jpg,,,
,,num_7,3.7056,num_2,0.835,num_8,1.4325,num_1,0.7852,num_2,1.8688,0,0,0,0,1,main,10,33,female,R,IMT,2021-07-14_09h34.18.336,ImageRatingTask_S3,2021.1.4,Win32,60.04563468,,,,,,,,,
,,,,,,,,,,,,0,1,1,1,1,second,10,33,female,R,IMT,2021-07-14_09h34.18.336,ImageRatingTask_S3,2021.1.4,Win32,60.04563468,,,,,,,,,
,,,,,,,,,,,,0,2,2,2,1,third,10,33,female,R,IMT,2021-07-14_09h34.18.336,ImageRatingTask_S3,2021.1.4,Win32,60.04563468,,,,,,,,,
,,,,,,,,,,,,0,3,3,3,1,fourth,10,33,female,R,IMT,2021-07-14_09h34.18.336,ImageRatingTask_S3,2021.1.4,Win32,60.04563468,,,,,,,,,
,,,,,,,,,,,,0,4,4,4,1,fifth,10,33,female,R,IMT,2021-07-14_09h34.18.336,ImageRatingTask_S3,2021.1.4,Win32,60.04563468,,,,,,,,,
,,,,,,,,,,,,0,5,5,5,1,sixth,10,33,female,R,IMT,2021-07-14_09h34.18.336,ImageRatingTask_S3,2021.1.4,Win32,60.04563468,,,,,,,,,
,,,,,,,,,,,,0,6,6,6,1,seventh,10,33,female,R,IMT,2021-07-14_09h34.18.336,ImageRatingTask_S3,2021.1.4,Win32,60.04563468,,,,,,,,,
,,,,,,,,,,,,0,7,7,7,1,last,10,33,female,R,IMT,2021-07-14_09h34.18.336,ImageRatingTask_S3,2021.1.4,Win32,60.04563468,,,,,,,,,
,,,,,,,,,,,,,,,,,,10,33,female,R,IMT,2021-07-14_09h34.18.336,ImageRatingTask_S3,2021.1.4,Win32,60.04563468,0,40,40,145,1,DreamStudyImages_rs1000x750g/Children/Baby 9.jpg,,,
,,num_6,1.8806,num_2,0.9033,num_9,1.6639,num_1,0.7583,num_2,0.3765,0,0,0,0,1,main,10,33,female,R,IMT,2021-07-14_09h34.18.336,ImageRatingTask_S3,2021.1.4,Win32,60.04563468,,,,,,,,,
,,,,,,,,,,,,0,1,1,1,1,second,10,33,female,R,IMT,2021-07-14_09h34.18.336,ImageRatingTask_S3,2021.1.4,Win32,60.04563468,,,,,,,,,
,,,,,,,,,,,,0,2,2,2,1,third,10,33,female,R,IMT,2021-07-14_09h34.18.336,ImageRatingTask_S3,2021.1.4,Win32,60.04563468,,,,,,,,,
,,,,,,,,,,,,0,3,3,3,1,fourth,10,33,female,R,IMT,2021-07-14_09h34.18.336,ImageRatingTask_S3,2021.1.4,Win32,60.04563468,,,,,,,,,
,,,,,,,,,,,,0,4,4,4,1,fifth,10,33,female,R,IMT,2021-07-14_09h34.18.336,ImageRatingTask_S3,2021.1.4,Win32,60.04563468,,,,,,,,,
,,,,,,,,,,,,0,5,5,5,1,sixth,10,33,female,R,IMT,2021-07-14_09h34.18.336,ImageRatingTask_S3,2021.1.4,Win32,60.04563468,,,,,,,,,
,,,,,,,,,,,,0,6,6,6,1,seventh,10,33,female,R,IMT,2021-07-14_09h34.18.336,ImageRatingTask_S3,2021.1.4,Win32,60.04563468,,,,,,,,,
,,,,,,,,,,,,0,7,7,7,1,last,10,33,female,R,IMT,2021-07-14_09h34.18.336,ImageRatingTask_S3,2021.1.4,Win32,60.04563468,,,,,,,,,
,,,,,,,,,,,,,,,,,,10,33,female,R,IMT,2021-07-14_09h34.18.336,ImageRatingTask_S3,2021.1.4,Win32,60.04563468,0,41,41,81,1,DreamStudyImages_rs1000x750g/Children/Faces_131_v.jpg,,,
,,num_5,1.5808,num_1,0.8761,num_7,2.0248,num_1,2.3326,num_5,1.0883,0,0,0,0,1,main,10,33,female,R,IMT,2021-07-14_09h34.18.336,ImageRatingTask_S3,2021.1.4,Win32,60.04563468,,,,,,,,,
,,,,,,,,,,,,0,1,1,1,1,second,10,33,female,R,IMT,2021-07-14_09h34.18.336,ImageRatingTask_S3,2021.1.4,Win32,60.04563468,,,,,,,,,
,,,,,,,,,,,,0,2,2,2,1,third,10,33,female,R,IMT,2021-07-14_09h34.18.336,ImageRatingTask_S3,2021.1.4,Win32,60.04563468,,,,,,,,,
,,,,,,,,,,,,0,3,3,3,1,fourth,10,33,female,R,IMT,2021-07-14_09h34.18.336,ImageRatingTask_S3,2021.1.4,Win32,60.04563468,,,,,,,,,
,,,,,,,,,,,,0,4,4,4,1,fifth,10,33,female,R,IMT,2021-07-14_09h34.18.336,ImageRatingTask_S3,2021.1.4,Win32,60.04563468,,,,,,,,,
,,,,,,,,,,,,0,5,5,5,1,sixth,10,33,female,R,IMT,2021-07-14_09h34.18.336,ImageRatingTask_S3,2021.1.4,Win32,60.04563468,,,,,,,,,
,,,,,,,,,,,,0,6,6,6,1,seventh,10,33,female,R,IMT,2021-07-14_09h34.18.336,ImageRatingTask_S3,2021.1.4,Win32,60.04563468,,,,,,,,,
,,,,,,,,,,,,0,7,7,7,1,last,10,33,female,R,IMT,2021-07-14_09h34.18.336,ImageRatingTask_S3,2021.1.4,Win32,60.04563468,,,,,,,,,
,,,,,,,,,,,,,,,,,,10,33,female,R,IMT,2021-07-14_09h34.18.336,ImageRatingTask_S3,2021.1.4,Win32,60.04563468,0,42,42,77,1,DreamStudyImages_rs1000x750g/Food/Objects_095_h.jpg,,,
,,num_6,5.2841,num_2,2.171,num_9,1.7572,num_1,0.6858,num_2,0.3084,0,0,0,0,1,main,10,33,female,R,IMT,2021-07-14_09h34.18.336,ImageRatingTask_S3,2021.1.4,Win32,60.04563468,,,,,,,,,
,,,,,,,,,,,,0,1,1,1,1,second,10,33,female,R,IMT,2021-07-14_09h34.18.336,ImageRatingTask_S3,2021.1.4,Win32,60.04563468,,,,,,,,,
,,,,,,,,,,,,0,2,2,2,1,third,10,33,female,R,IMT,2021-07-14_09h34.18.336,ImageRatingTask_S3,2021.1.4,Win32,60.04563468,,,,,,,,,
,,,,,,,,,,,,0,3,3,3,1,fourth,10,33,female,R,IMT,2021-07-14_09h34.18.336,ImageRatingTask_S3,2021.1.4,Win32,60.04563468,,,,,,,,,
,,,,,,,,,,,,0,4,4,4,1,fifth,10,33,female,R,IMT,2021-07-14_09h34.18.336,ImageRatingTask_S3,2021.1.4,Win32,60.04563468,,,,,,,,,
,,,,,,,,,,,,0,5,5,5,1,sixth,10,33,female,R,IMT,2021-07-14_09h34.18.336,ImageRatingTask_S3,2021.1.4,Win32,60.04563468,,,,,,,,,
,,,,,,,,,,,,0,6,6,6,1,seventh,10,33,female,R,IMT,2021-07-14_09h34.18.336,ImageRatingTask_S3,2021.1.4,Win32,60.04563468,,,,,,,,,
,,,,,,,,,,,,0,7,7,7,1,last,10,33,female,R,IMT,2021-07-14_09h34.18.336,ImageRatingTask_S3,2021.1.4,Win32,60.04563468,,,,,,,,,
,,,,,,,,,,,,,,,,,,10,33,female,R,IMT,2021-07-14_09h34.18.336,ImageRatingTask_S3,2021.1.4,Win32,60.04563468,0,43,43,65,1,DreamStudyImages_rs1000x750g/Children/IAPS2301_boy5.jpg,,,
,,num_5,2.5988,num_4,1.8879,num_6,5.4657,num_1,1.173,num_7,0.7908,0,0,0,0,1,main,10,33,female,R,IMT,2021-07-14_09h34.18.336,ImageRatingTask_S3,2021.1.4,Win32,60.04563468,,,,,,,,,
,,,,,,,,,,,,0,1,1,1,1,second,10,33,female,R,IMT,2021-07-14_09h34.18.336,ImageRatingTask_S3,2021.1.4,Win32,60.04563468,,,,,,,,,
,,,,,,,,,,,,0,2,2,2,1,third,10,33,female,R,IMT,2021-07-14_09h34.18.336,ImageRatingTask_S3,2021.1.4,Win32,60.04563468,,,,,,,,,
,,,,,,,,,,,,0,3,3,3,1,fourth,10,33,female,R,IMT,2021-07-14_09h34.18.336,ImageRatingTask_S3,2021.1.4,Win32,60.04563468,,,,,,,,,
,,,,,,,,,,,,0,4,4,4,1,fifth,10,33,female,R,IMT,2021-07-14_09h34.18.336,ImageRatingTask_S3,2021.1.4,Win32,60.04563468,,,,,,,,,
,,,,,,,,,,,,0,5,5,5,1,sixth,10,33,female,R,IMT,2021-07-14_09h34.18.336,ImageRatingTask_S3,2021.1.4,Win32,60.04563468,,,,,,,,,
,,,,,,,,,,,,0,6,6,6,1,seventh,10,33,female,R,IMT,2021-07-14_09h34.18.336,ImageRatingTask_S3,2021.1.4,Win32,60.04563468,,,,,,,,,
,,,,,,,,,,,,0,7,7,7,1,last,10,33,female,R,IMT,2021-07-14_09h34.18.336,ImageRatingTask_S3,2021.1.4,Win32,60.04563468,,,,,,,,,
,,,,,,,,,,,,,,,,,,10,33,female,R,IMT,2021-07-14_09h34.18.336,ImageRatingTask_S3,2021.1.4,Win32,60.04563468,0,44,44,61,1,DreamStudyImages_rs1000x750g/Vehicles/IAPS9090_car3.jpg,,,
,,num_5,5.6698,num_2,0.8981,num_9,1.4007,num_1,0.7764,num_3,1.6313,0,0,0,0,1,main,10,33,female,R,IMT,2021-07-14_09h34.18.336,ImageRatingTask_S3,2021.1.4,Win32,60.04563468,,,,,,,,,
,,,,,,,,,,,,0,1,1,1,1,second,10,33,female,R,IMT,2021-07-14_09h34.18.336,ImageRatingTask_S3,2021.1.4,Win32,60.04563468,,,,,,,,,
,,,,,,,,,,,,0,2,2,2,1,third,10,33,female,R,IMT,2021-07-14_09h34.18.336,ImageRatingTask_S3,2021.1.4,Win32,60.04563468,,,,,,,,,
,,,,,,,,,,,,0,3,3,3,1,fourth,10,33,female,R,IMT,2021-07-14_09h34.18.336,ImageRatingTask_S3,2021.1.4,Win32,60.04563468,,,,,,,,,
,,,,,,,,,,,,0,4,4,4,1,fifth,10,33,female,R,IMT,2021-07-14_09h34.18.336,ImageRatingTask_S3,2021.1.4,Win32,60.04563468,,,,,,,,,
,,,,,,,,,,,,0,5,5,5,1,sixth,10,33,female,R,IMT,2021-07-14_09h34.18.336,ImageRatingTask_S3,2021.1.4,Win32,60.04563468,,,,,,,,,
,,,,,,,,,,,,0,6,6,6,1,seventh,10,33,female,R,IMT,2021-07-14_09h34.18.336,ImageRatingTask_S3,2021.1.4,Win32,60.04563468,,,,,,,,,
,,,,,,,,,,,,0,7,7,7,1,last,10,33,female,R,IMT,2021-07-14_09h34.18.336,ImageRatingTask_S3,2021.1.4,Win32,60.04563468,,,,,,,,,
,,,,,,,,,,,,,,,,,,10,33,female,R,IMT,2021-07-14_09h34.18.336,ImageRatingTask_S3,2021.1.4,Win32,60.04563468,0,45,45,55,1,DreamStudyImages_rs1000x750g/Mammals/Animals_199_h.jpg,,,
,,num_6,3.1048,num_3,1.9014,num_8,8.2873,num_1,2.9102,num_2,0.4143,0,0,0,0,1,main,10,33,female,R,IMT,2021-07-14_09h34.18.336,ImageRatingTask_S3,2021.1.4,Win32,60.04563468,,,,,,,,,
,,,,,,,,,,,,0,1,1,1,1,second,10,33,female,R,IMT,2021-07-14_09h34.18.336,ImageRatingTask_S3,2021.1.4,Win32,60.04563468,,,,,,,,,
,,,,,,,,,,,,0,2,2,2,1,third,10,33,female,R,IMT,2021-07-14_09h34.18.336,ImageRatingTask_S3,2021.1.4,Win32,60.04563468,,,,,,,,,
,,,,,,,,,,,,0,3,3,3,1,fourth,10,33,female,R,IMT,2021-07-14_09h34.18.336,ImageRatingTask_S3,2021.1.4,Win32,60.04563468,,,,,,,,,
,,,,,,,,,,,,0,4,4,4,1,fifth,10,33,female,R,IMT,2021-07-14_09h34.18.336,ImageRatingTask_S3,2021.1.4,Win32,60.04563468,,,,,,,,,
,,,,,,,,,,,,0,5,5,5,1,sixth,10,33,female,R,IMT,2021-07-14_09h34.18.336,ImageRatingTask_S3,2021.1.4,Win32,60.04563468,,,,,,,,,
,,,,,,,,,,,,0,6,6,6,1,seventh,10,33,female,R,IMT,2021-07-14_09h34.18.336,ImageRatingTask_S3,2021.1.4,Win32,60.04563468,,,,,,,,,
,,,,,,,,,,,,0,7,7,7,1,last,10,33,female,R,IMT,2021-07-14_09h34.18.336,ImageRatingTask_S3,2021.1.4,Win32,60.04563468,,,,,,,,,
,,,,,,,,,,,,,,,,,,10,33,female,R,IMT,2021-07-14_09h34.18.336,ImageRatingTask_S3,2021.1.4,Win32,60.04563468,0,46,46,118,1,DreamStudyImages_rs1000x750g/Children/IAPS2442_child3.jpg,,,
,,num_5,1.8801,num_1,0.3563,num_9,0.8924,num_1,0.6918,num_7,0.7582,0,0,0,0,1,main,10,33,female,R,IMT,2021-07-14_09h34.18.336,ImageRatingTask_S3,2021.1.4,Win32,60.04563468,,,,,,,,,
,,,,,,,,,,,,0,1,1,1,1,second,10,33,female,R,IMT,2021-07-14_09h34.18.336,ImageRatingTask_S3,2021.1.4,Win32,60.04563468,,,,,,,,,
,,,,,,,,,,,,0,2,2,2,1,third,10,33,female,R,IMT,2021-07-14_09h34.18.336,ImageRatingTask_S3,2021.1.4,Win32,60.04563468,,,,,,,,,
,,,,,,,,,,,,0,3,3,3,1,fourth,10,33,female,R,IMT,2021-07-14_09h34.18.336,ImageRatingTask_S3,2021.1.4,Win32,60.04563468,,,,,,,,,
,,,,,,,,,,,,0,4,4,4,1,fifth,10,33,female,R,IMT,2021-07-14_09h34.18.336,ImageRatingTask_S3,2021.1.4,Win32,60.04563468,,,,,,,,,
,,,,,,,,,,,,0,5,5,5,1,sixth,10,33,female,R,IMT,2021-07-14_09h34.18.336,ImageRatingTask_S3,2021.1.4,Win32,60.04563468,,,,,,,,,
,,,,,,,,,,,,0,6,6,6,1,seventh,10,33,female,R,IMT,2021-07-14_09h34.18.336,ImageRatingTask_S3,2021.1.4,Win32,60.04563468,,,,,,,,,
,,,,,,,,,,,,0,7,7,7,1,last,10,33,female,R,IMT,2021-07-14_09h34.18.336,ImageRatingTask_S3,2021.1.4,Win32,60.04563468,,,,,,,,,
,,,,,,,,,,,,,,,,,,10,33,female,R,IMT,2021-07-14_09h34.18.336,ImageRatingTask_S3,2021.1.4,Win32,60.04563468,0,47,47,1,1,DreamStudyImages_rs1000x750g/Vehicles/Objects_312_h.jpg,,,
,,num_3,1.5663,num_4,1.0678,num_9,1.6429,num_1,0.8295,num_7,0.6749,0,0,0,0,1,main,10,33,female,R,IMT,2021-07-14_09h34.18.336,ImageRatingTask_S3,2021.1.4,Win32,60.04563468,,,,,,,,,
,,,,,,,,,,,,0,1,1,1,1,second,10,33,female,R,IMT,2021-07-14_09h34.18.336,ImageRatingTask_S3,2021.1.4,Win32,60.04563468,,,,,,,,,
,,,,,,,,,,,,0,2,2,2,1,third,10,33,female,R,IMT,2021-07-14_09h34.18.336,ImageRatingTask_S3,2021.1.4,Win32,60.04563468,,,,,,,,,
,,,,,,,,,,,,0,3,3,3,1,fourth,10,33,female,R,IMT,2021-07-14_09h34.18.336,ImageRatingTask_S3,2021.1.4,Win32,60.04563468,,,,,,,,,
,,,,,,,,,,,,0,4,4,4,1,fifth,10,33,female,R,IMT,2021-07-14_09h34.18.336,ImageRatingTask_S3,2021.1.4,Win32,60.04563468,,,,,,,,,
,,,,,,,,,,,,0,5,5,5,1,sixth,10,33,female,R,IMT,2021-07-14_09h34.18.336,ImageRatingTask_S3,2021.1.4,Win32,60.04563468,,,,,,,,,
,,,,,,,,,,,,0,6,6,6,1,seventh,10,33,female,R,IMT,2021-07-14_09h34.18.336,ImageRatingTask_S3,2021.1.4,Win32,60.04563468,,,,,,,,,
,,,,,,,,,,,,0,7,7,7,1,last,10,33,female,R,IMT,2021-07-14_09h34.18.336,ImageRatingTask_S3,2021.1.4,Win32,60.04563468,,,,,,,,,
,,,,,,,,,,,,,,,,,,10,33,female,R,IMT,2021-07-14_09h34.18.336,ImageRatingTask_S3,2021.1.4,Win32,60.04563468,0,48,48,58,1,DreamStudyImages_rs1000x750g/Vehicles/NDPS40_carindust.jpg,,,
,,num_3,2.5953,num_4,2.1948,num_9,1.0825,num_1,2.4353,num_6,1.4021,0,0,0,0,1,main,10,33,female,R,IMT,2021-07-14_09h34.18.336,ImageRatingTask_S3,2021.1.4,Win32,60.04563468,,,,,,,,,
,,,,,,,,,,,,0,1,1,1,1,second,10,33,female,R,IMT,2021-07-14_09h34.18.336,ImageRatingTask_S3,2021.1.4,Win32,60.04563468,,,,,,,,,
,,,,,,,,,,,,0,2,2,2,1,third,10,33,female,R,IMT,2021-07-14_09h34.18.336,ImageRatingTask_S3,2021.1.4,Win32,60.04563468,,,,,,,,,
,,,,,,,,,,,,0,3,3,3,1,fourth,10,33,female,R,IMT,2021-07-14_09h34.18.336,ImageRatingTask_S3,2021.1.4,Win32,60.04563468,,,,,,,,,
,,,,,,,,,,,,0,4,4,4,1,fifth,10,33,female,R,IMT,2021-07-14_09h34.18.336,ImageRatingTask_S3,2021.1.4,Win32,60.04563468,,,,,,,,,
,,,,,,,,,,,,0,5,5,5,1,sixth,10,33,female,R,IMT,2021-07-14_09h34.18.336,ImageRatingTask_S3,2021.1.4,Win32,60.04563468,,,,,,,,,
,,,,,,,,,,,,0,6,6,6,1,seventh,10,33,female,R,IMT,2021-07-14_09h34.18.336,ImageRatingTask_S3,2021.1.4,Win32,60.04563468,,,,,,,,,
,,,,,,,,,,,,0,7,7,7,1,last,10,33,female,R,IMT,2021-07-14_09h34.18.336,ImageRatingTask_S3,2021.1.4,Win32,60.04563468,,,,,,,,,
,,,,,,,,,,,,,,,,,,10,33,female,R,IMT,2021-07-14_09h34.18.336,ImageRatingTask_S3,2021.1.4,Win32,60.04563468,0,49,49,52,1,DreamStudyImages_rs1000x750g/Houses/9470.jpg,,,
,,num_6,2.7819,num_4,1.7669,num_9,1.0559,num_1,1.6578,num_6,0.8073,0,0,0,0,1,main,10,33,female,R,IMT,2021-07-14_09h34.18.336,ImageRatingTask_S3,2021.1.4,Win32,60.04563468,,,,,,,,,
,,,,,,,,,,,,0,1,1,1,1,second,10,33,female,R,IMT,2021-07-14_09h34.18.336,ImageRatingTask_S3,2021.1.4,Win32,60.04563468,,,,,,,,,
,,,,,,,,,,,,0,2,2,2,1,third,10,33,female,R,IMT,2021-07-14_09h34.18.336,ImageRatingTask_S3,2021.1.4,Win32,60.04563468,,,,,,,,,
,,,,,,,,,,,,0,3,3,3,1,fourth,10,33,female,R,IMT,2021-07-14_09h34.18.336,ImageRatingTask_S3,2021.1.4,Win32,60.04563468,,,,,,,,,
,,,,,,,,,,,,0,4,4,4,1,fifth,10,33,female,R,IMT,2021-07-14_09h34.18.336,ImageRatingTask_S3,2021.1.4,Win32,60.04563468,,,,,,,,,
,,,,,,,,,,,,0,5,5,5,1,sixth,10,33,female,R,IMT,2021-07-14_09h34.18.336,ImageRatingTask_S3,2021.1.4,Win32,60.04563468,,,,,,,,,
,,,,,,,,,,,,0,6,6,6,1,seventh,10,33,female,R,IMT,2021-07-14_09h34.18.336,ImageRatingTask_S3,2021.1.4,Win32,60.04563468,,,,,,,,,
,,,,,,,,,,,,0,7,7,7,1,last,10,33,female,R,IMT,2021-07-14_09h34.18.336,ImageRatingTask_S3,2021.1.4,Win32,60.04563468,,,,,,,,,
,,,,,,,,,,,,,,,,,,10,33,female,R,IMT,2021-07-14_09h34.18.336,ImageRatingTask_S3,2021.1.4,Win32,60.04563468,0,50,50,57,1,DreamStudyImages_rs1000x750g/Houses/7530.jpg,,,
,,num_6,15.8458,num_3,1.1152,num_9,2.4094,num_1,1.2405,num_5,0.8131,0,0,0,0,1,main,10,33,female,R,IMT,2021-07-14_09h34.18.336,ImageRatingTask_S3,2021.1.4,Win32,60.04563468,,,,,,,,,
,,,,,,,,,,,,0,1,1,1,1,second,10,33,female,R,IMT,2021-07-14_09h34.18.336,ImageRatingTask_S3,2021.1.4,Win32,60.04563468,,,,,,,,,
,,,,,,,,,,,,0,2,2,2,1,third,10,33,female,R,IMT,2021-07-14_09h34.18.336,ImageRatingTask_S3,2021.1.4,Win32,60.04563468,,,,,,,,,
,,,,,,,,,,,,0,3,3,3,1,fourth,10,33,female,R,IMT,2021-07-14_09h34.18.336,ImageRatingTask_S3,2021.1.4,Win32,60.04563468,,,,,,,,,
,,,,,,,,,,,,0,4,4,4,1,fifth,10,33,female,R,IMT,2021-07-14_09h34.18.336,ImageRatingTask_S3,2021.1.4,Win32,60.04563468,,,,,,,,,
,,,,,,,,,,,,0,5,5,5,1,sixth,10,33,female,R,IMT,2021-07-14_09h34.18.336,ImageRatingTask_S3,2021.1.4,Win32,60.04563468,,,,,,,,,
,,,,,,,,,,,,0,6,6,6,1,seventh,10,33,female,R,IMT,2021-07-14_09h34.18.336,ImageRatingTask_S3,2021.1.4,Win32,60.04563468,,,,,,,,,
,,,,,,,,,,,,0,7,7,7,1,last,10,33,female,R,IMT,2021-07-14_09h34.18.336,ImageRatingTask_S3,2021.1.4,Win32,60.04563468,,,,,,,,,
,,,,,,,,,,,,,,,,,,10,33,female,R,IMT,2021-07-14_09h34.18.336,ImageRatingTask_S3,2021.1.4,Win32,60.04563468,0,51,51,26,1,DreamStudyImages_rs1000x750g/Food/Objects_091_h.jpg,,,
,,num_6,2.0492,num_3,1.226,num_9,2.4887,num_1,18.7869,num_7,0.7931,0,0,0,0,1,main,10,33,female,R,IMT,2021-07-14_09h34.18.336,ImageRatingTask_S3,2021.1.4,Win32,60.04563468,,,,,,,,,
,,,,,,,,,,,,0,1,1,1,1,second,10,33,female,R,IMT,2021-07-14_09h34.18.336,ImageRatingTask_S3,2021.1.4,Win32,60.04563468,,,,,,,,,
,,,,,,,,,,,,0,2,2,2,1,third,10,33,female,R,IMT,2021-07-14_09h34.18.336,ImageRatingTask_S3,2021.1.4,Win32,60.04563468,,,,,,,,,
,,,,,,,,,,,,0,3,3,3,1,fourth,10,33,female,R,IMT,2021-07-14_09h34.18.336,ImageRatingTask_S3,2021.1.4,Win32,60.04563468,,,,,,,,,
,,,,,,,,,,,,0,4,4,4,1,fifth,10,33,female,R,IMT,2021-07-14_09h34.18.336,ImageRatingTask_S3,2021.1.4,Win32,60.04563468,,,,,,,,,
,,,,,,,,,,,,0,5,5,5,1,sixth,10,33,female,R,IMT,2021-07-14_09h34.18.336,ImageRatingTask_S3,2021.1.4,Win32,60.04563468,,,,,,,,,
,,,,,,,,,,,,0,6,6,6,1,seventh,10,33,female,R,IMT,2021-07-14_09h34.18.336,ImageRatingTask_S3,2021.1.4,Win32,60.04563468,,,,,,,,,
,,,,,,,,,,,,0,7,7,7,1,last,10,33,female,R,IMT,2021-07-14_09h34.18.336,ImageRatingTask_S3,2021.1.4,Win32,60.04563468,,,,,,,,,
,,,,,,,,,,,,,,,,,,10,33,female,R,IMT,2021-07-14_09h34.18.336,ImageRatingTask_S3,2021.1.4,Win32,60.04563468,0,52,52,131,1,DreamStudyImages_rs1000x750g/Vehicles/Explosion 3.jpg,,,
,,num_8,3.0751,num_3,2.998,num_9,0.7798,num_1,0.4583,num_3,1.5821,0,0,0,0,1,main,10,33,female,R,IMT,2021-07-14_09h34.18.336,ImageRatingTask_S3,2021.1.4,Win32,60.04563468,,,,,,,,,
,,,,,,,,,,,,0,1,1,1,1,second,10,33,female,R,IMT,2021-07-14_09h34.18.336,ImageRatingTask_S3,2021.1.4,Win32,60.04563468,,,,,,,,,
,,,,,,,,,,,,0,2,2,2,1,third,10,33,female,R,IMT,2021-07-14_09h34.18.336,ImageRatingTask_S3,2021.1.4,Win32,60.04563468,,,,,,,,,
,,,,,,,,,,,,0,3,3,3,1,fourth,10,33,female,R,IMT,2021-07-14_09h34.18.336,ImageRatingTask_S3,2021.1.4,Win32,60.04563468,,,,,,,,,
,,,,,,,,,,,,0,4,4,4,1,fifth,10,33,female,R,IMT,2021-07-14_09h34.18.336,ImageRatingTask_S3,2021.1.4,Win32,60.04563468,,,,,,,,,
,,,,,,,,,,,,0,5,5,5,1,sixth,10,33,female,R,IMT,2021-07-14_09h34.18.336,ImageRatingTask_S3,2021.1.4,Win32,60.04563468,,,,,,,,,
,,,,,,,,,,,,0,6,6,6,1,seventh,10,33,female,R,IMT,2021-07-14_09h34.18.336,ImageRatingTask_S3,2021.1.4,Win32,60.04563468,,,,,,,,,
,,,,,,,,,,,,0,7,7,7,1,last,10,33,female,R,IMT,2021-07-14_09h34.18.336,ImageRatingTask_S3,2021.1.4,Win32,60.04563468,,,,,,,,,
,,,,,,,,,,,,,,,,,,10,33,female,R,IMT,2021-07-14_09h34.18.336,ImageRatingTask_S3,2021.1.4,Win32,60.04563468,0,53,53,142,1,DreamStudyImages_rs1000x750g/Mammals/Animals_117_h.jpg,,,
,,num_3,2.3069,num_4,1.3607,num_9,1.7118,num_1,2.5633,num_8,11.5317,0,0,0,0,1,main,10,33,female,R,IMT,2021-07-14_09h34.18.336,ImageRatingTask_S3,2021.1.4,Win32,60.04563468,,,,,,,,,
,,,,,,,,,,,,0,1,1,1,1,second,10,33,female,R,IMT,2021-07-14_09h34.18.336,ImageRatingTask_S3,2021.1.4,Win32,60.04563468,,,,,,,,,
,,,,,,,,,,,,0,2,2,2,1,third,10,33,female,R,IMT,2021-07-14_09h34.18.336,ImageRatingTask_S3,2021.1.4,Win32,60.04563468,,,,,,,,,
,,,,,,,,,,,,0,3,3,3,1,fourth,10,33,female,R,IMT,2021-07-14_09h34.18.336,ImageRatingTask_S3,2021.1.4,Win32,60.04563468,,,,,,,,,
,,,,,,,,,,,,0,4,4,4,1,fifth,10,33,female,R,IMT,2021-07-14_09h34.18.336,ImageRatingTask_S3,2021.1.4,Win32,60.04563468,,,,,,,,,
,,,,,,,,,,,,0,5,5,5,1,sixth,10,33,female,R,IMT,2021-07-14_09h34.18.336,ImageRatingTask_S3,2021.1.4,Win32,60.04563468,,,,,,,,,
,,,,,,,,,,,,0,6,6,6,1,seventh,10,33,female,R,IMT,2021-07-14_09h34.18.336,ImageRatingTask_S3,2021.1.4,Win32,60.04563468,,,,,,,,,
,,,,,,,,,,,,0,7,7,7,1,last,10,33,female,R,IMT,2021-07-14_09h34.18.336,ImageRatingTask_S3,2021.1.4,Win32,60.04563468,,,,,,,,,
,,,,,,,,,,,,,,,,,,10,33,female,R,IMT,2021-07-14_09h34.18.336,ImageRatingTask_S3,2021.1.4,Win32,60.04563468,0,54,54,79,1,DreamStudyImages_rs1000x750g/Water/Objects_233_h.jpg,,,
,,num_6,2.2039,num_1,0.8385,num_9,1.4006,num_1,6.8022,num_2,0.2777,0,0,0,0,1,main,10,33,female,R,IMT,2021-07-14_09h34.18.336,ImageRatingTask_S3,2021.1.4,Win32,60.04563468,,,,,,,,,
,,,,,,,,,,,,0,1,1,1,1,second,10,33,female,R,IMT,2021-07-14_09h34.18.336,ImageRatingTask_S3,2021.1.4,Win32,60.04563468,,,,,,,,,
,,,,,,,,,,,,0,2,2,2,1,third,10,33,female,R,IMT,2021-07-14_09h34.18.336,ImageRatingTask_S3,2021.1.4,Win32,60.04563468,,,,,,,,,
,,,,,,,,,,,,0,3,3,3,1,fourth,10,33,female,R,IMT,2021-07-14_09h34.18.336,ImageRatingTask_S3,2021.1.4,Win32,60.04563468,,,,,,,,,
,,,,,,,,,,,,0,4,4,4,1,fifth,10,33,female,R,IMT,2021-07-14_09h34.18.336,ImageRatingTask_S3,2021.1.4,Win32,60.04563468,,,,,,,,,
,,,,,,,,,,,,0,5,5,5,1,sixth,10,33,female,R,IMT,2021-07-14_09h34.18.336,ImageRatingTask_S3,2021.1.4,Win32,60.04563468,,,,,,,,,
,,,,,,,,,,,,0,6,6,6,1,seventh,10,33,female,R,IMT,2021-07-14_09h34.18.336,ImageRatingTask_S3,2021.1.4,Win32,60.04563468,,,,,,,,,
,,,,,,,,,,,,0,7,7,7,1,last,10,33,female,R,IMT,2021-07-14_09h34.18.336,ImageRatingTask_S3,2021.1.4,Win32,60.04563468,,,,,,,,,
,,,,,,,,,,,,,,,,,,10,33,female,R,IMT,2021-07-14_09h34.18.336,ImageRatingTask_S3,2021.1.4,Win32,60.04563468,0,55,55,122,1,DreamStudyImages_rs1000x750g/Children/Sleepy pose 1.jpg,,,
,,num_6,3.5089,num_2,1.4189,num_9,0.8293,num_1,4.3938,num_4,0.8113,0,0,0,0,1,main,10,33,female,R,IMT,2021-07-14_09h34.18.336,ImageRatingTask_S3,2021.1.4,Win32,60.04563468,,,,,,,,,
,,,,,,,,,,,,0,1,1,1,1,second,10,33,female,R,IMT,2021-07-14_09h34.18.336,ImageRatingTask_S3,2021.1.4,Win32,60.04563468,,,,,,,,,
,,,,,,,,,,,,0,2,2,2,1,third,10,33,female,R,IMT,2021-07-14_09h34.18.336,ImageRatingTask_S3,2021.1.4,Win32,60.04563468,,,,,,,,,
,,,,,,,,,,,,0,3,3,3,1,fourth,10,33,female,R,IMT,2021-07-14_09h34.18.336,ImageRatingTask_S3,2021.1.4,Win32,60.04563468,,,,,,,,,
,,,,,,,,,,,,0,4,4,4,1,fifth,10,33,female,R,IMT,2021-07-14_09h34.18.336,ImageRatingTask_S3,2021.1.4,Win32,60.04563468,,,,,,,,,
,,,,,,,,,,,,0,5,5,5,1,sixth,10,33,female,R,IMT,2021-07-14_09h34.18.336,ImageRatingTask_S3,2021.1.4,Win32,60.04563468,,,,,,,,,
,,,,,,,,,,,,0,6,6,6,1,seventh,10,33,female,R,IMT,2021-07-14_09h34.18.336,ImageRatingTask_S3,2021.1.4,Win32,60.04563468,,,,,,,,,
,,,,,,,,,,,,0,7,7,7,1,last,10,33,female,R,IMT,2021-07-14_09h34.18.336,ImageRatingTask_S3,2021.1.4,Win32,60.04563468,,,,,,,,,
,,,,,,,,,,,,,,,,,,10,33,female,R,IMT,2021-07-14_09h34.18.336,ImageRatingTask_S3,2021.1.4,Win32,60.04563468,0,56,56,70,1,DreamStudyImages_rs1000x750g/Mammals/Animals_005_h.jpg,,,
,,num_5,9.8485,num_2,2.1035,num_9,1.1601,num_1,8.5748,num_8,0.8425,0,0,0,0,1,main,10,33,female,R,IMT,2021-07-14_09h34.18.336,ImageRatingTask_S3,2021.1.4,Win32,60.04563468,,,,,,,,,
,,,,,,,,,,,,0,1,1,1,1,second,10,33,female,R,IMT,2021-07-14_09h34.18.336,ImageRatingTask_S3,2021.1.4,Win32,60.04563468,,,,,,,,,
,,,,,,,,,,,,0,2,2,2,1,third,10,33,female,R,IMT,2021-07-14_09h34.18.336,ImageRatingTask_S3,2021.1.4,Win32,60.04563468,,,,,,,,,
,,,,,,,,,,,,0,3,3,3,1,fourth,10,33,female,R,IMT,2021-07-14_09h34.18.336,ImageRatingTask_S3,2021.1.4,Win32,60.04563468,,,,,,,,,
,,,,,,,,,,,,0,4,4,4,1,fifth,10,33,female,R,IMT,2021-07-14_09h34.18.336,ImageRatingTask_S3,2021.1.4,Win32,60.04563468,,,,,,,,,
,,,,,,,,,,,,0,5,5,5,1,sixth,10,33,female,R,IMT,2021-07-14_09h34.18.336,ImageRatingTask_S3,2021.1.4,Win32,60.04563468,,,,,,,,,
,,,,,,,,,,,,0,6,6,6,1,seventh,10,33,female,R,IMT,2021-07-14_09h34.18.336,ImageRatingTask_S3,2021.1.4,Win32,60.04563468,,,,,,,,,
,,,,,,,,,,,,0,7,7,7,1,last,10,33,female,R,IMT,2021-07-14_09h34.18.336,ImageRatingTask_S3,2021.1.4,Win32,60.04563468,,,,,,,,,
,,,,,,,,,,,,,,,,,,10,33,female,R,IMT,2021-07-14_09h34.18.336,ImageRatingTask_S3,2021.1.4,Win32,60.04563468,0,57,57,45,1,DreamStudyImages_rs1000x750g/Water/Lake 4.jpg,,,
,,num_1,2.4508,num_9,0.5515,num_9,1.3624,num_0,1.7056,,,0,0,0,0,1,main,10,33,female,R,IMT,2021-07-14_09h34.18.336,ImageRatingTask_S3,2021.1.4,Win32,60.04563468,,,,,,,,,
,,,,,,,,,,,,0,1,1,1,1,second,10,33,female,R,IMT,2021-07-14_09h34.18.336,ImageRatingTask_S3,2021.1.4,Win32,60.04563468,,,,,,,,,
,,,,,,,,,,,,0,2,2,2,1,third,10,33,female,R,IMT,2021-07-14_09h34.18.336,ImageRatingTask_S3,2021.1.4,Win32,60.04563468,,,,,,,,,
,,,,,,,,,,,,0,3,3,3,1,fourth,10,33,female,R,IMT,2021-07-14_09h34.18.336,ImageRatingTask_S3,2021.1.4,Win32,60.04563468,,,,,,,,,
,,,,,,,,,,,,0,4,4,4,1,fifth,10,33,female,R,IMT,2021-07-14_09h34.18.336,ImageRatingTask_S3,2021.1.4,Win32,60.04563468,,,,,,,,,
,,,,,,,,,,,,0,5,5,5,1,sixth,10,33,female,R,IMT,2021-07-14_09h34.18.336,ImageRatingTask_S3,2021.1.4,Win32,60.04563468,,,,,,,,,
,,,,,,,,,,,,0,6,6,6,1,seventh,10,33,female,R,IMT,2021-07-14_09h34.18.336,ImageRatingTask_S3,2021.1.4,Win32,60.04563468,,,,,,,,,
,,,,,,,,,,,,0,7,7,7,1,last,10,33,female,R,IMT,2021-07-14_09h34.18.336,ImageRatingTask_S3,2021.1.4,Win32,60.04563468,,,,,,,,,
,,,,,,,,,,,,,,,,,,10,33,female,R,IMT,2021-07-14_09h34.18.336,ImageRatingTask_S3,2021.1.4,Win32,60.04563468,0,58,58,95,1,DreamStudyImages_rs1000x750g/Food/Objects_006_h.jpg,,,
,,num_5,3.8397,num_1,0.818,num_9,2.8539,num_1,14.4423,num_3,0.84,0,0,0,0,1,main,10,33,female,R,IMT,2021-07-14_09h34.18.336,ImageRatingTask_S3,2021.1.4,Win32,60.04563468,,,,,,,,,
,,,,,,,,,,,,0,1,1,1,1,second,10,33,female,R,IMT,2021-07-14_09h34.18.336,ImageRatingTask_S3,2021.1.4,Win32,60.04563468,,,,,,,,,
,,,,,,,,,,,,0,2,2,2,1,third,10,33,female,R,IMT,2021-07-14_09h34.18.336,ImageRatingTask_S3,2021.1.4,Win32,60.04563468,,,,,,,,,
,,,,,,,,,,,,0,3,3,3,1,fourth,10,33,female,R,IMT,2021-07-14_09h34.18.336,ImageRatingTask_S3,2021.1.4,Win32,60.04563468,,,,,,,,,
,,,,,,,,,,,,0,4,4,4,1,fifth,10,33,female,R,IMT,2021-07-14_09h34.18.336,ImageRatingTask_S3,2021.1.4,Win32,60.04563468,,,,,,,,,
,,,,,,,,,,,,0,5,5,5,1,sixth,10,33,female,R,IMT,2021-07-14_09h34.18.336,ImageRatingTask_S3,2021.1.4,Win32,60.04563468,,,,,,,,,
,,,,,,,,,,,,0,6,6,6,1,seventh,10,33,female,R,IMT,2021-07-14_09h34.18.336,ImageRatingTask_S3,2021.1.4,Win32,60.04563468,,,,,,,,,
,,,,,,,,,,,,0,7,7,7,1,last,10,33,female,R,IMT,2021-07-14_09h34.18.336,ImageRatingTask_S3,2021.1.4,Win32,60.04563468,,,,,,,,,
,,,,,,,,,,,,,,,,,,10,33,female,R,IMT,2021-07-14_09h34.18.336,ImageRatingTask_S3,2021.1.4,Win32,60.04563468,0,59,59,90,1,DreamStudyImages_rs1000x750g/Mammals/Zebra 1.jpg,,,
,,num_6,2.6277,num_2,0.9045,num_9,0.904,num_1,3.9393,num_3,1.8264,0,0,0,0,1,main,10,33,female,R,IMT,2021-07-14_09h34.18.336,ImageRatingTask_S3,2021.1.4,Win32,60.04563468,,,,,,,,,
,,,,,,,,,,,,0,1,1,1,1,second,10,33,female,R,IMT,2021-07-14_09h34.18.336,ImageRatingTask_S3,2021.1.4,Win32,60.04563468,,,,,,,,,
,,,,,,,,,,,,0,2,2,2,1,third,10,33,female,R,IMT,2021-07-14_09h34.18.336,ImageRatingTask_S3,2021.1.4,Win32,60.04563468,,,,,,,,,
,,,,,,,,,,,,0,3,3,3,1,fourth,10,33,female,R,IMT,2021-07-14_09h34.18.336,ImageRatingTask_S3,2021.1.4,Win32,60.04563468,,,,,,,,,
,,,,,,,,,,,,0,4,4,4,1,fifth,10,33,female,R,IMT,2021-07-14_09h34.18.336,ImageRatingTask_S3,2021.1.4,Win32,60.04563468,,,,,,,,,
,,,,,,,,,,,,0,5,5,5,1,sixth,10,33,female,R,IMT,2021-07-14_09h34.18.336,ImageRatingTask_S3,2021.1.4,Win32,60.04563468,,,,,,,,,
,,,,,,,,,,,,0,6,6,6,1,seventh,10,33,female,R,IMT,2021-07-14_09h34.18.336,ImageRatingTask_S3,2021.1.4,Win32,60.04563468,,,,,,,,,
,,,,,,,,,,,,0,7,7,7,1,last,10,33,female,R,IMT,2021-07-14_09h34.18.336,ImageRatingTask_S3,2021.1.4,Win32,60.04563468,,,,,,,,,
,,,,,,,,,,,,,,,,,,10,33,female,R,IMT,2021-07-14_09h34.18.336,ImageRatingTask_S3,2021.1.4,Win32,60.04563468,0,60,60,21,1,DreamStudyImages_rs1000x750g/Mammals/Animals_206_h_CHECK.jpg,,,
,,num_5,1.7167,num_1,0.2418,num_9,0.825,num_1,1.6343,num_6,1.1507,0,0,0,0,1,main,10,33,female,R,IMT,2021-07-14_09h34.18.336,ImageRatingTask_S3,2021.1.4,Win32,60.04563468,,,,,,,,,
,,,,,,,,,,,,0,1,1,1,1,second,10,33,female,R,IMT,2021-07-14_09h34.18.336,ImageRatingTask_S3,2021.1.4,Win32,60.04563468,,,,,,,,,
,,,,,,,,,,,,0,2,2,2,1,third,10,33,female,R,IMT,2021-07-14_09h34.18.336,ImageRatingTask_S3,2021.1.4,Win32,60.04563468,,,,,,,,,
,,,,,,,,,,,,0,3,3,3,1,fourth,10,33,female,R,IMT,2021-07-14_09h34.18.336,ImageRatingTask_S3,2021.1.4,Win32,60.04563468,,,,,,,,,
,,,,,,,,,,,,0,4,4,4,1,fifth,10,33,female,R,IMT,2021-07-14_09h34.18.336,ImageRatingTask_S3,2021.1.4,Win32,60.04563468,,,,,,,,,
,,,,,,,,,,,,0,5,5,5,1,sixth,10,33,female,R,IMT,2021-07-14_09h34.18.336,ImageRatingTask_S3,2021.1.4,Win32,60.04563468,,,,,,,,,
,,,,,,,,,,,,0,6,6,6,1,seventh,10,33,female,R,IMT,2021-07-14_09h34.18.336,ImageRatingTask_S3,2021.1.4,Win32,60.04563468,,,,,,,,,
,,,,,,,,,,,,0,7,7,7,1,last,10,33,female,R,IMT,2021-07-14_09h34.18.336,ImageRatingTask_S3,2021.1.4,Win32,60.04563468,,,,,,,,,
,,,,,,,,,,,,,,,,,,10,33,female,R,IMT,2021-07-14_09h34.18.336,ImageRatingTask_S3,2021.1.4,Win32,60.04563468,0,61,61,124,1,DreamStudyImages_rs1000x750g/Houses/IAPS7491_bunker.jpg,,,
,,num_3,9.1706,num_6,1.3245,num_9,1.4108,num_1,0.9918,num_3,0.3681,0,0,0,0,1,main,10,33,female,R,IMT,2021-07-14_09h34.18.336,ImageRatingTask_S3,2021.1.4,Win32,60.04563468,,,,,,,,,
,,,,,,,,,,,,0,1,1,1,1,second,10,33,female,R,IMT,2021-07-14_09h34.18.336,ImageRatingTask_S3,2021.1.4,Win32,60.04563468,,,,,,,,,
,,,,,,,,,,,,0,2,2,2,1,third,10,33,female,R,IMT,2021-07-14_09h34.18.336,ImageRatingTask_S3,2021.1.4,Win32,60.04563468,,,,,,,,,
,,,,,,,,,,,,0,3,3,3,1,fourth,10,33,female,R,IMT,2021-07-14_09h34.18.336,ImageRatingTask_S3,2021.1.4,Win32,60.04563468,,,,,,,,,
,,,,,,,,,,,,0,4,4,4,1,fifth,10,33,female,R,IMT,2021-07-14_09h34.18.336,ImageRatingTask_S3,2021.1.4,Win32,60.04563468,,,,,,,,,
,,,,,,,,,,,,0,5,5,5,1,sixth,10,33,female,R,IMT,2021-07-14_09h34.18.336,ImageRatingTask_S3,2021.1.4,Win32,60.04563468,,,,,,,,,
,,,,,,,,,,,,0,6,6,6,1,seventh,10,33,female,R,IMT,2021-07-14_09h34.18.336,ImageRatingTask_S3,2021.1.4,Win32,60.04563468,,,,,,,,,
,,,,,,,,,,,,0,7,7,7,1,last,10,33,female,R,IMT,2021-07-14_09h34.18.336,ImageRatingTask_S3,2021.1.4,Win32,60.04563468,,,,,,,,,
,,,,,,,,,,,,,,,,,,10,33,female,R,IMT,2021-07-14_09h34.18.336,ImageRatingTask_S3,2021.1.4,Win32,60.04563468,0,62,62,154,1,DreamStudyImages_rs1000x750g/Mammals/Animals_053_h.jpg,,,
,,num_6,2.6541,num_3,1.2204,num_9,0.912,num_1,5.6708,num_8,0.8432,0,0,0,0,1,main,10,33,female,R,IMT,2021-07-14_09h34.18.336,ImageRatingTask_S3,2021.1.4,Win32,60.04563468,,,,,,,,,
,,,,,,,,,,,,0,1,1,1,1,second,10,33,female,R,IMT,2021-07-14_09h34.18.336,ImageRatingTask_S3,2021.1.4,Win32,60.04563468,,,,,,,,,
,,,,,,,,,,,,0,2,2,2,1,third,10,33,female,R,IMT,2021-07-14_09h34.18.336,ImageRatingTask_S3,2021.1.4,Win32,60.04563468,,,,,,,,,
,,,,,,,,,,,,0,3,3,3,1,fourth,10,33,female,R,IMT,2021-07-14_09h34.18.336,ImageRatingTask_S3,2021.1.4,Win32,60.04563468,,,,,,,,,
,,,,,,,,,,,,0,4,4,4,1,fifth,10,33,female,R,IMT,2021-07-14_09h34.18.336,ImageRatingTask_S3,2021.1.4,Win32,60.04563468,,,,,,,,,
,,,,,,,,,,,,0,5,5,5,1,sixth,10,33,female,R,IMT,2021-07-14_09h34.18.336,ImageRatingTask_S3,2021.1.4,Win32,60.04563468,,,,,,,,,
,,,,,,,,,,,,0,6,6,6,1,seventh,10,33,female,R,IMT,2021-07-14_09h34.18.336,ImageRatingTask_S3,2021.1.4,Win32,60.04563468,,,,,,,,,
,,,,,,,,,,,,0,7,7,7,1,last,10,33,female,R,IMT,2021-07-14_09h34.18.336,ImageRatingTask_S3,2021.1.4,Win32,60.04563468,,,,,,,,,
,,,,,,,,,,,,,,,,,,10,33,female,R,IMT,2021-07-14_09h34.18.336,ImageRatingTask_S3,2021.1.4,Win32,60.04563468,0,63,63,19,1,DreamStudyImages_rs1000x750g/Water/Landscapes_164_h.jpg,,,
,,num_5,2.8397,num_1,0.3097,num_8,5.1266,num_1,0.7809,num_2,0.7237,0,0,0,0,1,main,10,33,female,R,IMT,2021-07-14_09h34.18.336,ImageRatingTask_S3,2021.1.4,Win32,60.04563468,,,,,,,,,
,,,,,,,,,,,,0,1,1,1,1,second,10,33,female,R,IMT,2021-07-14_09h34.18.336,ImageRatingTask_S3,2021.1.4,Win32,60.04563468,,,,,,,,,
,,,,,,,,,,,,0,2,2,2,1,third,10,33,female,R,IMT,2021-07-14_09h34.18.336,ImageRatingTask_S3,2021.1.4,Win32,60.04563468,,,,,,,,,
,,,,,,,,,,,,0,3,3,3,1,fourth,10,33,female,R,IMT,2021-07-14_09h34.18.336,ImageRatingTask_S3,2021.1.4,Win32,60.04563468,,,,,,,,,
,,,,,,,,,,,,0,4,4,4,1,fifth,10,33,female,R,IMT,2021-07-14_09h34.18.336,ImageRatingTask_S3,2021.1.4,Win32,60.04563468,,,,,,,,,
,,,,,,,,,,,,0,5,5,5,1,sixth,10,33,female,R,IMT,2021-07-14_09h34.18.336,ImageRatingTask_S3,2021.1.4,Win32,60.04563468,,,,,,,,,
,,,,,,,,,,,,0,6,6,6,1,seventh,10,33,female,R,IMT,2021-07-14_09h34.18.336,ImageRatingTask_S3,2021.1.4,Win32,60.04563468,,,,,,,,,
,,,,,,,,,,,,0,7,7,7,1,last,10,33,female,R,IMT,2021-07-14_09h34.18.336,ImageRatingTask_S3,2021.1.4,Win32,60.04563468,,,,,,,,,
,,,,,,,,,,,,,,,,,,10,33,female,R,IMT,2021-07-14_09h34.18.336,ImageRatingTask_S3,2021.1.4,Win32,60.04563468,0,64,64,18,1,DreamStudyImages_rs1000x750g/Children/IAPS2410_boy8.jpg,,,
,,num_8,2.1612,num_3,1.8638,num_9,1.1809,num_1,11.4735,num_3,5.0606,0,0,0,0,1,main,10,33,female,R,IMT,2021-07-14_09h34.18.336,ImageRatingTask_S3,2021.1.4,Win32,60.04563468,,,,,,,,,
,,,,,,,,,,,,0,1,1,1,1,second,10,33,female,R,IMT,2021-07-14_09h34.18.336,ImageRatingTask_S3,2021.1.4,Win32,60.04563468,,,,,,,,,
,,,,,,,,,,,,0,2,2,2,1,third,10,33,female,R,IMT,2021-07-14_09h34.18.336,ImageRatingTask_S3,2021.1.4,Win32,60.04563468,,,,,,,,,
,,,,,,,,,,,,0,3,3,3,1,fourth,10,33,female,R,IMT,2021-07-14_09h34.18.336,ImageRatingTask_S3,2021.1.4,Win32,60.04563468,,,,,,,,,
,,,,,,,,,,,,0,4,4,4,1,fifth,10,33,female,R,IMT,2021-07-14_09h34.18.336,ImageRatingTask_S3,2021.1.4,Win32,60.04563468,,,,,,,,,
,,,,,,,,,,,,0,5,5,5,1,sixth,10,33,female,R,IMT,2021-07-14_09h34.18.336,ImageRatingTask_S3,2021.1.4,Win32,60.04563468,,,,,,,,,
,,,,,,,,,,,,0,6,6,6,1,seventh,10,33,female,R,IMT,2021-07-14_09h34.18.336,ImageRatingTask_S3,2021.1.4,Win32,60.04563468,,,,,,,,,
,,,,,,,,,,,,0,7,7,7,1,last,10,33,female,R,IMT,2021-07-14_09h34.18.336,ImageRatingTask_S3,2021.1.4,Win32,60.04563468,,,,,,,,,
,,,,,,,,,,,,,,,,,,10,33,female,R,IMT,2021-07-14_09h34.18.336,ImageRatingTask_S3,2021.1.4,Win32,60.04563468,0,65,65,114,1,DreamStudyImages_rs1000x750g/Mammals/Animals_134_h.jpg,,,
,,num_3,1.8721,num_5,2,num_9,0.9404,num_1,0.8003,num_2,0.3416,0,0,0,0,1,main,10,33,female,R,IMT,2021-07-14_09h34.18.336,ImageRatingTask_S3,2021.1.4,Win32,60.04563468,,,,,,,,,
,,,,,,,,,,,,0,1,1,1,1,second,10,33,female,R,IMT,2021-07-14_09h34.18.336,ImageRatingTask_S3,2021.1.4,Win32,60.04563468,,,,,,,,,
,,,,,,,,,,,,0,2,2,2,1,third,10,33,female,R,IMT,2021-07-14_09h34.18.336,ImageRatingTask_S3,2021.1.4,Win32,60.04563468,,,,,,,,,
,,,,,,,,,,,,0,3,3,3,1,fourth,10,33,female,R,IMT,2021-07-14_09h34.18.336,ImageRatingTask_S3,2021.1.4,Win32,60.04563468,,,,,,,,,
,,,,,,,,,,,,0,4,4,4,1,fifth,10,33,female,R,IMT,2021-07-14_09h34.18.336,ImageRatingTask_S3,2021.1.4,Win32,60.04563468,,,,,,,,,
,,,,,,,,,,,,0,5,5,5,1,sixth,10,33,female,R,IMT,2021-07-14_09h34.18.336,ImageRatingTask_S3,2021.1.4,Win32,60.04563468,,,,,,,,,
,,,,,,,,,,,,0,6,6,6,1,seventh,10,33,female,R,IMT,2021-07-14_09h34.18.336,ImageRatingTask_S3,2021.1.4,Win32,60.04563468,,,,,,,,,
,,,,,,,,,,,,0,7,7,7,1,last,10,33,female,R,IMT,2021-07-14_09h34.18.336,ImageRatingTask_S3,2021.1.4,Win32,60.04563468,,,,,,,,,
,,,,,,,,,,,,,,,,,,10,33,female,R,IMT,2021-07-14_09h34.18.336,ImageRatingTask_S3,2021.1.4,Win32,60.04563468,0,66,66,135,1,DreamStudyImages_rs1000x750g/Children/Sad face 9.jpg,,,
,,num_3,1.6876,num_8,6.2718,num_9,2.9201,num_0,7.0727,,,0,0,0,0,1,main,10,33,female,R,IMT,2021-07-14_09h34.18.336,ImageRatingTask_S3,2021.1.4,Win32,60.04563468,,,,,,,,,
,,,,,,,,,,,,0,1,1,1,1,second,10,33,female,R,IMT,2021-07-14_09h34.18.336,ImageRatingTask_S3,2021.1.4,Win32,60.04563468,,,,,,,,,
,,,,,,,,,,,,0,2,2,2,1,third,10,33,female,R,IMT,2021-07-14_09h34.18.336,ImageRatingTask_S3,2021.1.4,Win32,60.04563468,,,,,,,,,
,,,,,,,,,,,,0,3,3,3,1,fourth,10,33,female,R,IMT,2021-07-14_09h34.18.336,ImageRatingTask_S3,2021.1.4,Win32,60.04563468,,,,,,,,,
,,,,,,,,,,,,0,4,4,4,1,fifth,10,33,female,R,IMT,2021-07-14_09h34.18.336,ImageRatingTask_S3,2021.1.4,Win32,60.04563468,,,,,,,,,
,,,,,,,,,,,,0,5,5,5,1,sixth,10,33,female,R,IMT,2021-07-14_09h34.18.336,ImageRatingTask_S3,2021.1.4,Win32,60.04563468,,,,,,,,,
,,,,,,,,,,,,0,6,6,6,1,seventh,10,33,female,R,IMT,2021-07-14_09h34.18.336,ImageRatingTask_S3,2021.1.4,Win32,60.04563468,,,,,,,,,
,,,,,,,,,,,,0,7,7,7,1,last,10,33,female,R,IMT,2021-07-14_09h34.18.336,ImageRatingTask_S3,2021.1.4,Win32,60.04563468,,,,,,,,,
,,,,,,,,,,,,,,,,,,10,33,female,R,IMT,2021-07-14_09h34.18.336,ImageRatingTask_S3,2021.1.4,Win32,60.04563468,0,67,67,108,1,DreamStudyImages_rs1000x750g/Vehicles/NDPS87_backtruck.jpg,,,
,,num_5,1.3842,num_1,0.2293,num_9,1.0583,num_1,3.6945,num_5,0.7192,0,0,0,0,1,main,10,33,female,R,IMT,2021-07-14_09h34.18.336,ImageRatingTask_S3,2021.1.4,Win32,60.04563468,,,,,,,,,
,,,,,,,,,,,,0,1,1,1,1,second,10,33,female,R,IMT,2021-07-14_09h34.18.336,ImageRatingTask_S3,2021.1.4,Win32,60.04563468,,,,,,,,,
,,,,,,,,,,,,0,2,2,2,1,third,10,33,female,R,IMT,2021-07-14_09h34.18.336,ImageRatingTask_S3,2021.1.4,Win32,60.04563468,,,,,,,,,
,,,,,,,,,,,,0,3,3,3,1,fourth,10,33,female,R,IMT,2021-07-14_09h34.18.336,ImageRatingTask_S3,2021.1.4,Win32,60.04563468,,,,,,,,,
,,,,,,,,,,,,0,4,4,4,1,fifth,10,33,female,R,IMT,2021-07-14_09h34.18.336,ImageRatingTask_S3,2021.1.4,Win32,60.04563468,,,,,,,,,
,,,,,,,,,,,,0,5,5,5,1,sixth,10,33,female,R,IMT,2021-07-14_09h34.18.336,ImageRatingTask_S3,2021.1.4,Win32,60.04563468,,,,,,,,,
,,,,,,,,,,,,0,6,6,6,1,seventh,10,33,female,R,IMT,2021-07-14_09h34.18.336,ImageRatingTask_S3,2021.1.4,Win32,60.04563468,,,,,,,,,
,,,,,,,,,,,,0,7,7,7,1,last,10,33,female,R,IMT,2021-07-14_09h34.18.336,ImageRatingTask_S3,2021.1.4,Win32,60.04563468,,,,,,,,,
,,,,,,,,,,,,,,,,,,10,33,female,R,IMT,2021-07-14_09h34.18.336,ImageRatingTask_S3,2021.1.4,Win32,60.04563468,0,68,68,30,1,DreamStudyImages_rs1000x750g/Food/Dessert 1.jpg,,,
,,num_3,3.2783,num_5,1.6601,num_9,0.9559,num_1,13.5535,num_2,0.7468,0,0,0,0,1,main,10,33,female,R,IMT,2021-07-14_09h34.18.336,ImageRatingTask_S3,2021.1.4,Win32,60.04563468,,,,,,,,,
,,,,,,,,,,,,0,1,1,1,1,second,10,33,female,R,IMT,2021-07-14_09h34.18.336,ImageRatingTask_S3,2021.1.4,Win32,60.04563468,,,,,,,,,
,,,,,,,,,,,,0,2,2,2,1,third,10,33,female,R,IMT,2021-07-14_09h34.18.336,ImageRatingTask_S3,2021.1.4,Win32,60.04563468,,,,,,,,,
,,,,,,,,,,,,0,3,3,3,1,fourth,10,33,female,R,IMT,2021-07-14_09h34.18.336,ImageRatingTask_S3,2021.1.4,Win32,60.04563468,,,,,,,,,
,,,,,,,,,,,,0,4,4,4,1,fifth,10,33,female,R,IMT,2021-07-14_09h34.18.336,ImageRatingTask_S3,2021.1.4,Win32,60.04563468,,,,,,,,,
,,,,,,,,,,,,0,5,5,5,1,sixth,10,33,female,R,IMT,2021-07-14_09h34.18.336,ImageRatingTask_S3,2021.1.4,Win32,60.04563468,,,,,,,,,
,,,,,,,,,,,,0,6,6,6,1,seventh,10,33,female,R,IMT,2021-07-14_09h34.18.336,ImageRatingTask_S3,2021.1.4,Win32,60.04563468,,,,,,,,,
,,,,,,,,,,,,0,7,7,7,1,last,10,33,female,R,IMT,2021-07-14_09h34.18.336,ImageRatingTask_S3,2021.1.4,Win32,60.04563468,,,,,,,,,
,,,,,,,,,,,,,,,,,,10,33,female,R,IMT,2021-07-14_09h34.18.336,ImageRatingTask_S3,2021.1.4,Win32,60.04563468,0,69,69,85,1,DreamStudyImages_rs1000x750g/Children/Faces_003_h.jpg,,,
,,num_5,1.8304,num_3,1.6696,num_9,1.776,num_1,9.2237,num_7,0.7321,0,0,0,0,1,main,10,33,female,R,IMT,2021-07-14_09h34.18.336,ImageRatingTask_S3,2021.1.4,Win32,60.04563468,,,,,,,,,
,,,,,,,,,,,,0,1,1,1,1,second,10,33,female,R,IMT,2021-07-14_09h34.18.336,ImageRatingTask_S3,2021.1.4,Win32,60.04563468,,,,,,,,,
,,,,,,,,,,,,0,2,2,2,1,third,10,33,female,R,IMT,2021-07-14_09h34.18.336,ImageRatingTask_S3,2021.1.4,Win32,60.04563468,,,,,,,,,
,,,,,,,,,,,,0,3,3,3,1,fourth,10,33,female,R,IMT,2021-07-14_09h34.18.336,ImageRatingTask_S3,2021.1.4,Win32,60.04563468,,,,,,,,,
,,,,,,,,,,,,0,4,4,4,1,fifth,10,33,female,R,IMT,2021-07-14_09h34.18.336,ImageRatingTask_S3,2021.1.4,Win32,60.04563468,,,,,,,,,
,,,,,,,,,,,,0,5,5,5,1,sixth,10,33,female,R,IMT,2021-07-14_09h34.18.336,ImageRatingTask_S3,2021.1.4,Win32,60.04563468,,,,,,,,,
,,,,,,,,,,,,0,6,6,6,1,seventh,10,33,female,R,IMT,2021-07-14_09h34.18.336,ImageRatingTask_S3,2021.1.4,Win32,60.04563468,,,,,,,,,
,,,,,,,,,,,,0,7,7,7,1,last,10,33,female,R,IMT,2021-07-14_09h34.18.336,ImageRatingTask_S3,2021.1.4,Win32,60.04563468,,,,,,,,,
,,,,,,,,,,,,,,,,,,10,33,female,R,IMT,2021-07-14_09h34.18.336,ImageRatingTask_S3,2021.1.4,Win32,60.04563468,0,70,70,121,1,DreamStudyImages_rs1000x750g/Houses/Landscapes_044_h.jpg,,,
,,num_8,1.8417,num_1,1.6902,num_9,2.5508,num_1,4.1188,num_3,0.5753,0,0,0,0,1,main,10,33,female,R,IMT,2021-07-14_09h34.18.336,ImageRatingTask_S3,2021.1.4,Win32,60.04563468,,,,,,,,,
,,,,,,,,,,,,0,1,1,1,1,second,10,33,female,R,IMT,2021-07-14_09h34.18.336,ImageRatingTask_S3,2021.1.4,Win32,60.04563468,,,,,,,,,
,,,,,,,,,,,,0,2,2,2,1,third,10,33,female,R,IMT,2021-07-14_09h34.18.336,ImageRatingTask_S3,2021.1.4,Win32,60.04563468,,,,,,,,,
,,,,,,,,,,,,0,3,3,3,1,fourth,10,33,female,R,IMT,2021-07-14_09h34.18.336,ImageRatingTask_S3,2021.1.4,Win32,60.04563468,,,,,,,,,
,,,,,,,,,,,,0,4,4,4,1,fifth,10,33,female,R,IMT,2021-07-14_09h34.18.336,ImageRatingTask_S3,2021.1.4,Win32,60.04563468,,,,,,,,,
,,,,,,,,,,,,0,5,5,5,1,sixth,10,33,female,R,IMT,2021-07-14_09h34.18.336,ImageRatingTask_S3,2021.1.4,Win32,60.04563468,,,,,,,,,
,,,,,,,,,,,,0,6,6,6,1,seventh,10,33,female,R,IMT,2021-07-14_09h34.18.336,ImageRatingTask_S3,2021.1.4,Win32,60.04563468,,,,,,,,,
,,,,,,,,,,,,0,7,7,7,1,last,10,33,female,R,IMT,2021-07-14_09h34.18.336,ImageRatingTask_S3,2021.1.4,Win32,60.04563468,,,,,,,,,
,,,,,,,,,,,,,,,,,,10,33,female,R,IMT,2021-07-14_09h34.18.336,ImageRatingTask_S3,2021.1.4,Win32,60.04563468,0,71,71,129,1,DreamStudyImages_rs1000x750g/Mammals/Cat 10.jpg,,,
,,num_7,5.3898,num_2,1.1248,num_9,4.3908,num_1,0.9166,num_3,1.5987,0,0,0,0,1,main,10,33,female,R,IMT,2021-07-14_09h34.18.336,ImageRatingTask_S3,2021.1.4,Win32,60.04563468,,,,,,,,,
,,,,,,,,,,,,0,1,1,1,1,second,10,33,female,R,IMT,2021-07-14_09h34.18.336,ImageRatingTask_S3,2021.1.4,Win32,60.04563468,,,,,,,,,
,,,,,,,,,,,,0,2,2,2,1,third,10,33,female,R,IMT,2021-07-14_09h34.18.336,ImageRatingTask_S3,2021.1.4,Win32,60.04563468,,,,,,,,,
,,,,,,,,,,,,0,3,3,3,1,fourth,10,33,female,R,IMT,2021-07-14_09h34.18.336,ImageRatingTask_S3,2021.1.4,Win32,60.04563468,,,,,,,,,
,,,,,,,,,,,,0,4,4,4,1,fifth,10,33,female,R,IMT,2021-07-14_09h34.18.336,ImageRatingTask_S3,2021.1.4,Win32,60.04563468,,,,,,,,,
,,,,,,,,,,,,0,5,5,5,1,sixth,10,33,female,R,IMT,2021-07-14_09h34.18.336,ImageRatingTask_S3,2021.1.4,Win32,60.04563468,,,,,,,,,
,,,,,,,,,,,,0,6,6,6,1,seventh,10,33,female,R,IMT,2021-07-14_09h34.18.336,ImageRatingTask_S3,2021.1.4,Win32,60.04563468,,,,,,,,,
,,,,,,,,,,,,0,7,7,7,1,last,10,33,female,R,IMT,2021-07-14_09h34.18.336,ImageRatingTask_S3,2021.1.4,Win32,60.04563468,,,,,,,,,
,,,,,,,,,,,,,,,,,,10,33,female,R,IMT,2021-07-14_09h34.18.336,ImageRatingTask_S3,2021.1.4,Win32,60.04563468,0,72,72,94,1,DreamStudyImages_rs1000x750g/Mammals/Animals_203_h.jpg,,,
,,num_3,4.2393,num_4,2.0215,num_9,1.144,num_1,0.9034,num_3,1.2769,0,0,0,0,1,main,10,33,female,R,IMT,2021-07-14_09h34.18.336,ImageRatingTask_S3,2021.1.4,Win32,60.04563468,,,,,,,,,
,,,,,,,,,,,,0,1,1,1,1,second,10,33,female,R,IMT,2021-07-14_09h34.18.336,ImageRatingTask_S3,2021.1.4,Win32,60.04563468,,,,,,,,,
,,,,,,,,,,,,0,2,2,2,1,third,10,33,female,R,IMT,2021-07-14_09h34.18.336,ImageRatingTask_S3,2021.1.4,Win32,60.04563468,,,,,,,,,
,,,,,,,,,,,,0,3,3,3,1,fourth,10,33,female,R,IMT,2021-07-14_09h34.18.336,ImageRatingTask_S3,2021.1.4,Win32,60.04563468,,,,,,,,,
,,,,,,,,,,,,0,4,4,4,1,fifth,10,33,female,R,IMT,2021-07-14_09h34.18.336,ImageRatingTask_S3,2021.1.4,Win32,60.04563468,,,,,,,,,
,,,,,,,,,,,,0,5,5,5,1,sixth,10,33,female,R,IMT,2021-07-14_09h34.18.336,ImageRatingTask_S3,2021.1.4,Win32,60.04563468,,,,,,,,,
,,,,,,,,,,,,0,6,6,6,1,seventh,10,33,female,R,IMT,2021-07-14_09h34.18.336,ImageRatingTask_S3,2021.1.4,Win32,60.04563468,,,,,,,,,
,,,,,,,,,,,,0,7,7,7,1,last,10,33,female,R,IMT,2021-07-14_09h34.18.336,ImageRatingTask_S3,2021.1.4,Win32,60.04563468,,,,,,,,,
,,,,,,,,,,,,,,,,,,10,33,female,R,IMT,2021-07-14_09h34.18.336,ImageRatingTask_S3,2021.1.4,Win32,60.04563468,0,73,73,115,1,DreamStudyImages_rs1000x750g/Mammals/Tiger 1.jpg,,,
,,num_5,1.407,num_1,1.1771,num_9,1.1113,num_1,0.718,num_7,0.664,0,0,0,0,1,main,10,33,female,R,IMT,2021-07-14_09h34.18.336,ImageRatingTask_S3,2021.1.4,Win32,60.04563468,,,,,,,,,
,,,,,,,,,,,,0,1,1,1,1,second,10,33,female,R,IMT,2021-07-14_09h34.18.336,ImageRatingTask_S3,2021.1.4,Win32,60.04563468,,,,,,,,,
,,,,,,,,,,,,0,2,2,2,1,third,10,33,female,R,IMT,2021-07-14_09h34.18.336,ImageRatingTask_S3,2021.1.4,Win32,60.04563468,,,,,,,,,
,,,,,,,,,,,,0,3,3,3,1,fourth,10,33,female,R,IMT,2021-07-14_09h34.18.336,ImageRatingTask_S3,2021.1.4,Win32,60.04563468,,,,,,,,,
,,,,,,,,,,,,0,4,4,4,1,fifth,10,33,female,R,IMT,2021-07-14_09h34.18.336,ImageRatingTask_S3,2021.1.4,Win32,60.04563468,,,,,,,,,
,,,,,,,,,,,,0,5,5,5,1,sixth,10,33,female,R,IMT,2021-07-14_09h34.18.336,ImageRatingTask_S3,2021.1.4,Win32,60.04563468,,,,,,,,,
,,,,,,,,,,,,0,6,6,6,1,seventh,10,33,female,R,IMT,2021-07-14_09h34.18.336,ImageRatingTask_S3,2021.1.4,Win32,60.04563468,,,,,,,,,
,,,,,,,,,,,,0,7,7,7,1,last,10,33,female,R,IMT,2021-07-14_09h34.18.336,ImageRatingTask_S3,2021.1.4,Win32,60.04563468,,,,,,,,,
,,,,,,,,,,,,,,,,,,10,33,female,R,IMT,2021-07-14_09h34.18.336,ImageRatingTask_S3,2021.1.4,Win32,60.04563468,0,74,74,50,1,DreamStudyImages_rs1000x750g/Vehicles/IAPS7039_train3.jpg,,,
,,num_5,2.9911,num_1,1.6906,num_8,3.1601,num_1,2.6752,num_5,0.7904,0,0,0,0,1,main,10,33,female,R,IMT,2021-07-14_09h34.18.336,ImageRatingTask_S3,2021.1.4,Win32,60.04563468,,,,,,,,,
,,,,,,,,,,,,0,1,1,1,1,second,10,33,female,R,IMT,2021-07-14_09h34.18.336,ImageRatingTask_S3,2021.1.4,Win32,60.04563468,,,,,,,,,
,,,,,,,,,,,,0,2,2,2,1,third,10,33,female,R,IMT,2021-07-14_09h34.18.336,ImageRatingTask_S3,2021.1.4,Win32,60.04563468,,,,,,,,,
,,,,,,,,,,,,0,3,3,3,1,fourth,10,33,female,R,IMT,2021-07-14_09h34.18.336,ImageRatingTask_S3,2021.1.4,Win32,60.04563468,,,,,,,,,
,,,,,,,,,,,,0,4,4,4,1,fifth,10,33,female,R,IMT,2021-07-14_09h34.18.336,ImageRatingTask_S3,2021.1.4,Win32,60.04563468,,,,,,,,,
,,,,,,,,,,,,0,5,5,5,1,sixth,10,33,female,R,IMT,2021-07-14_09h34.18.336,ImageRatingTask_S3,2021.1.4,Win32,60.04563468,,,,,,,,,
,,,,,,,,,,,,0,6,6,6,1,seventh,10,33,female,R,IMT,2021-07-14_09h34.18.336,ImageRatingTask_S3,2021.1.4,Win32,60.04563468,,,,,,,,,
,,,,,,,,,,,,0,7,7,7,1,last,10,33,female,R,IMT,2021-07-14_09h34.18.336,ImageRatingTask_S3,2021.1.4,Win32,60.04563468,,,,,,,,,
,,,,,,,,,,,,,,,,,,10,33,female,R,IMT,2021-07-14_09h34.18.336,ImageRatingTask_S3,2021.1.4,Win32,60.04563468,0,75,75,42,1,DreamStudyImages_rs1000x750g/Food/Objects_072_v.jpg,,,
,,num_5,21.7743,num_2,0.9596,num_8,2.4967,num_1,0.925,num_3,0.7152,0,0,0,0,1,main,10,33,female,R,IMT,2021-07-14_09h34.18.336,ImageRatingTask_S3,2021.1.4,Win32,60.04563468,,,,,,,,,
,,,,,,,,,,,,0,1,1,1,1,second,10,33,female,R,IMT,2021-07-14_09h34.18.336,ImageRatingTask_S3,2021.1.4,Win32,60.04563468,,,,,,,,,
,,,,,,,,,,,,0,2,2,2,1,third,10,33,female,R,IMT,2021-07-14_09h34.18.336,ImageRatingTask_S3,2021.1.4,Win32,60.04563468,,,,,,,,,
,,,,,,,,,,,,0,3,3,3,1,fourth,10,33,female,R,IMT,2021-07-14_09h34.18.336,ImageRatingTask_S3,2021.1.4,Win32,60.04563468,,,,,,,,,
,,,,,,,,,,,,0,4,4,4,1,fifth,10,33,female,R,IMT,2021-07-14_09h34.18.336,ImageRatingTask_S3,2021.1.4,Win32,60.04563468,,,,,,,,,
,,,,,,,,,,,,0,5,5,5,1,sixth,10,33,female,R,IMT,2021-07-14_09h34.18.336,ImageRatingTask_S3,2021.1.4,Win32,60.04563468,,,,,,,,,
,,,,,,,,,,,,0,6,6,6,1,seventh,10,33,female,R,IMT,2021-07-14_09h34.18.336,ImageRatingTask_S3,2021.1.4,Win32,60.04563468,,,,,,,,,
,,,,,,,,,,,,0,7,7,7,1,last,10,33,female,R,IMT,2021-07-14_09h34.18.336,ImageRatingTask_S3,2021.1.4,Win32,60.04563468,,,,,,,,,
,,,,,,,,,,,,,,,,,,10,33,female,R,IMT,2021-07-14_09h34.18.336,ImageRatingTask_S3,2021.1.4,Win32,60.04563468,0,76,76,20,1,DreamStudyImages_rs1000x750g/Mammals/IAPS1726_tiger2.jpg,,,
,,num_6,2.2186,num_2,3.5233,num_8,4.0595,num_1,0.7758,num_3,0.7071,0,0,0,0,1,main,10,33,female,R,IMT,2021-07-14_09h34.18.336,ImageRatingTask_S3,2021.1.4,Win32,60.04563468,,,,,,,,,
,,,,,,,,,,,,0,1,1,1,1,second,10,33,female,R,IMT,2021-07-14_09h34.18.336,ImageRatingTask_S3,2021.1.4,Win32,60.04563468,,,,,,,,,
,,,,,,,,,,,,0,2,2,2,1,third,10,33,female,R,IMT,2021-07-14_09h34.18.336,ImageRatingTask_S3,2021.1.4,Win32,60.04563468,,,,,,,,,
,,,,,,,,,,,,0,3,3,3,1,fourth,10,33,female,R,IMT,2021-07-14_09h34.18.336,ImageRatingTask_S3,2021.1.4,Win32,60.04563468,,,,,,,,,
,,,,,,,,,,,,0,4,4,4,1,fifth,10,33,female,R,IMT,2021-07-14_09h34.18.336,ImageRatingTask_S3,2021.1.4,Win32,60.04563468,,,,,,,,,
,,,,,,,,,,,,0,5,5,5,1,sixth,10,33,female,R,IMT,2021-07-14_09h34.18.336,ImageRatingTask_S3,2021.1.4,Win32,60.04563468,,,,,,,,,
,,,,,,,,,,,,0,6,6,6,1,seventh,10,33,female,R,IMT,2021-07-14_09h34.18.336,ImageRatingTask_S3,2021.1.4,Win32,60.04563468,,,,,,,,,
,,,,,,,,,,,,0,7,7,7,1,last,10,33,female,R,IMT,2021-07-14_09h34.18.336,ImageRatingTask_S3,2021.1.4,Win32,60.04563468,,,,,,,,,
,,,,,,,,,,,,,,,,,,10,33,female,R,IMT,2021-07-14_09h34.18.336,ImageRatingTask_S3,2021.1.4,Win32,60.04563468,0,77,77,141,1,DreamStudyImages_rs1000x750g/Mammals/Cat 7.jpg,,,
,,num_5,15.9111,num_1,0.7397,num_9,0.7429,num_1,3.6887,num_7,1.3769,0,0,0,0,1,main,10,33,female,R,IMT,2021-07-14_09h34.18.336,ImageRatingTask_S3,2021.1.4,Win32,60.04563468,,,,,,,,,
,,,,,,,,,,,,0,1,1,1,1,second,10,33,female,R,IMT,2021-07-14_09h34.18.336,ImageRatingTask_S3,2021.1.4,Win32,60.04563468,,,,,,,,,
,,,,,,,,,,,,0,2,2,2,1,third,10,33,female,R,IMT,2021-07-14_09h34.18.336,ImageRatingTask_S3,2021.1.4,Win32,60.04563468,,,,,,,,,
,,,,,,,,,,,,0,3,3,3,1,fourth,10,33,female,R,IMT,2021-07-14_09h34.18.336,ImageRatingTask_S3,2021.1.4,Win32,60.04563468,,,,,,,,,
,,,,,,,,,,,,0,4,4,4,1,fifth,10,33,female,R,IMT,2021-07-14_09h34.18.336,ImageRatingTask_S3,2021.1.4,Win32,60.04563468,,,,,,,,,
,,,,,,,,,,,,0,5,5,5,1,sixth,10,33,female,R,IMT,2021-07-14_09h34.18.336,ImageRatingTask_S3,2021.1.4,Win32,60.04563468,,,,,,,,,
,,,,,,,,,,,,0,6,6,6,1,seventh,10,33,female,R,IMT,2021-07-14_09h34.18.336,ImageRatingTask_S3,2021.1.4,Win32,60.04563468,,,,,,,,,
,,,,,,,,,,,,0,7,7,7,1,last,10,33,female,R,IMT,2021-07-14_09h34.18.336,ImageRatingTask_S3,2021.1.4,Win32,60.04563468,,,,,,,,,
,,,,,,,,,,,,,,,,,,10,33,female,R,IMT,2021-07-14_09h34.18.336,ImageRatingTask_S3,2021.1.4,Win32,60.04563468,0,78,78,146,1,DreamStudyImages_rs1000x750g/Vehicles/Objects_323_h.jpg,,,
,,num_8,2.9845,num_2,1.119,num_8,4.5164,num_1,3.3698,num_8,1.5865,0,0,0,0,1,main,10,33,female,R,IMT,2021-07-14_09h34.18.336,ImageRatingTask_S3,2021.1.4,Win32,60.04563468,,,,,,,,,
,,,,,,,,,,,,0,1,1,1,1,second,10,33,female,R,IMT,2021-07-14_09h34.18.336,ImageRatingTask_S3,2021.1.4,Win32,60.04563468,,,,,,,,,
,,,,,,,,,,,,0,2,2,2,1,third,10,33,female,R,IMT,2021-07-14_09h34.18.336,ImageRatingTask_S3,2021.1.4,Win32,60.04563468,,,,,,,,,
,,,,,,,,,,,,0,3,3,3,1,fourth,10,33,female,R,IMT,2021-07-14_09h34.18.336,ImageRatingTask_S3,2021.1.4,Win32,60.04563468,,,,,,,,,
,,,,,,,,,,,,0,4,4,4,1,fifth,10,33,female,R,IMT,2021-07-14_09h34.18.336,ImageRatingTask_S3,2021.1.4,Win32,60.04563468,,,,,,,,,
,,,,,,,,,,,,0,5,5,5,1,sixth,10,33,female,R,IMT,2021-07-14_09h34.18.336,ImageRatingTask_S3,2021.1.4,Win32,60.04563468,,,,,,,,,
,,,,,,,,,,,,0,6,6,6,1,seventh,10,33,female,R,IMT,2021-07-14_09h34.18.336,ImageRatingTask_S3,2021.1.4,Win32,60.04563468,,,,,,,,,
,,,,,,,,,,,,0,7,7,7,1,last,10,33,female,R,IMT,2021-07-14_09h34.18.336,ImageRatingTask_S3,2021.1.4,Win32,60.04563468,,,,,,,,,
,,,,,,,,,,,,,,,,,,10,33,female,R,IMT,2021-07-14_09h34.18.336,ImageRatingTask_S3,2021.1.4,Win32,60.04563468,0,79,79,80,1,DreamStudyImages_rs1000x750g/Water/Sunset 5.jpg,,,
