slider_pre.response,slider_pre.rt,key_val.keys,key_val.rt,key_aro.keys,key_aro.rt,key_qual.keys,key_qual.rt,key_ncat.keys,key_ncat.rt,key_cats.keys,key_cats.rt,ncat_order.thisRepN,ncat_order.thisTrialN,ncat_order.thisN,ncat_order.thisIndex,ncat_order.ran,cond_cat,participant,age,gender,handedness (L/R),site (IMT/Donders),date,expName,psychopyVersion,OS,frameRate,img_trials.thisRepN,img_trials.thisTrialN,img_trials.thisN,img_trials.thisIndex,img_trials.ran,filename,slider_post.response,slider_post.rt,key_fb.keys,key_fb.rt,fb.thisRepN,fb.thisTrialN,fb.thisN,fb.thisIndex,fb.ran,fb_qst,textbox_openfb.text
5,6.5885,num_5,2.7032,num_1,2.3583,num_9,1.1588,num_1,0.9293,num_5,1.3385,0,0,0,0,1,main,10,33,female,R,IMT,2021-07-16_23h30.26.299,ImageRatingTask_S5,2021.1.4,Win32,59.94125757,,,,,,,,,,,,,,,,,
,,,,,,,,,,,,0,1,1,1,1,second,10,33,female,R,IMT,2021-07-16_23h30.26.299,ImageRatingTask_S5,2021.1.4,Win32,59.94125757,,,,,,,,,,,,,,,,,
,,,,,,,,,,,,0,2,2,2,1,third,10,33,female,R,IMT,2021-07-16_23h30.26.299,ImageRatingTask_S5,2021.1.4,Win32,59.94125757,,,,,,,,,,,,,,,,,
,,,,,,,,,,,,0,3,3,3,1,fourth,10,33,female,R,IMT,2021-07-16_23h30.26.299,ImageRatingTask_S5,2021.1.4,Win32,59.94125757,,,,,,,,,,,,,,,,,
,,,,,,,,,,,,0,4,4,4,1,fifth,10,33,female,R,IMT,2021-07-16_23h30.26.299,ImageRatingTask_S5,2021.1.4,Win32,59.94125757,,,,,,,,,,,,,,,,,
,,,,,,,,,,,,0,5,5,5,1,sixth,10,33,female,R,IMT,2021-07-16_23h30.26.299,ImageRatingTask_S5,2021.1.4,Win32,59.94125757,,,,,,,,,,,,,,,,,
,,,,,,,,,,,,0,6,6,6,1,seventh,10,33,female,R,IMT,2021-07-16_23h30.26.299,ImageRatingTask_S5,2021.1.4,Win32,59.94125757,,,,,,,,,,,,,,,,,
,,,,,,,,,,,,0,7,7,7,1,last,10,33,female,R,IMT,2021-07-16_23h30.26.299,ImageRatingTask_S5,2021.1.4,Win32,59.94125757,,,,,,,,,,,,,,,,,
,,,,,,,,,,,,,,,,,,10,33,female,R,IMT,2021-07-16_23h30.26.299,ImageRatingTask_S5,2021.1.4,Win32,59.94125757,0,0,0,85,1,DreamStudyImages_rs1000x750g/Food/Objects_020_h.jpg,,,,,,,,,,,
,,num_5,6.9685,num_1,0.4324,num_9,0.8188,num_0,2.2454,,,0,0,0,0,1,main,10,33,female,R,IMT,2021-07-16_23h30.26.299,ImageRatingTask_S5,2021.1.4,Win32,59.94125757,,,,,,,,,,,,,,,,,
,,,,,,,,,,,,0,1,1,1,1,second,10,33,female,R,IMT,2021-07-16_23h30.26.299,ImageRatingTask_S5,2021.1.4,Win32,59.94125757,,,,,,,,,,,,,,,,,
,,,,,,,,,,,,0,2,2,2,1,third,10,33,female,R,IMT,2021-07-16_23h30.26.299,ImageRatingTask_S5,2021.1.4,Win32,59.94125757,,,,,,,,,,,,,,,,,
,,,,,,,,,,,,0,3,3,3,1,fourth,10,33,female,R,IMT,2021-07-16_23h30.26.299,ImageRatingTask_S5,2021.1.4,Win32,59.94125757,,,,,,,,,,,,,,,,,
,,,,,,,,,,,,0,4,4,4,1,fifth,10,33,female,R,IMT,2021-07-16_23h30.26.299,ImageRatingTask_S5,2021.1.4,Win32,59.94125757,,,,,,,,,,,,,,,,,
,,,,,,,,,,,,0,5,5,5,1,sixth,10,33,female,R,IMT,2021-07-16_23h30.26.299,ImageRatingTask_S5,2021.1.4,Win32,59.94125757,,,,,,,,,,,,,,,,,
,,,,,,,,,,,,0,6,6,6,1,seventh,10,33,female,R,IMT,2021-07-16_23h30.26.299,ImageRatingTask_S5,2021.1.4,Win32,59.94125757,,,,,,,,,,,,,,,,,
,,,,,,,,,,,,0,7,7,7,1,last,10,33,female,R,IMT,2021-07-16_23h30.26.299,ImageRatingTask_S5,2021.1.4,Win32,59.94125757,,,,,,,,,,,,,,,,,
,,,,,,,,,,,,,,,,,,10,33,female,R,IMT,2021-07-16_23h30.26.299,ImageRatingTask_S5,2021.1.4,Win32,59.94125757,0,1,1,140,1,DreamStudyImages_rs1000x750g/Water/Objects_140_h.jpg,,,,,,,,,,,
,,num_2,4.0663,num_8,0.4085,num_9,1.615,num_1,1.0663,num_2,0.8315,0,0,0,0,1,main,10,33,female,R,IMT,2021-07-16_23h30.26.299,ImageRatingTask_S5,2021.1.4,Win32,59.94125757,,,,,,,,,,,,,,,,,
,,,,,,,,,,,,0,1,1,1,1,second,10,33,female,R,IMT,2021-07-16_23h30.26.299,ImageRatingTask_S5,2021.1.4,Win32,59.94125757,,,,,,,,,,,,,,,,,
,,,,,,,,,,,,0,2,2,2,1,third,10,33,female,R,IMT,2021-07-16_23h30.26.299,ImageRatingTask_S5,2021.1.4,Win32,59.94125757,,,,,,,,,,,,,,,,,
,,,,,,,,,,,,0,3,3,3,1,fourth,10,33,female,R,IMT,2021-07-16_23h30.26.299,ImageRatingTask_S5,2021.1.4,Win32,59.94125757,,,,,,,,,,,,,,,,,
,,,,,,,,,,,,0,4,4,4,1,fifth,10,33,female,R,IMT,2021-07-16_23h30.26.299,ImageRatingTask_S5,2021.1.4,Win32,59.94125757,,,,,,,,,,,,,,,,,
,,,,,,,,,,,,0,5,5,5,1,sixth,10,33,female,R,IMT,2021-07-16_23h30.26.299,ImageRatingTask_S5,2021.1.4,Win32,59.94125757,,,,,,,,,,,,,,,,,
,,,,,,,,,,,,0,6,6,6,1,seventh,10,33,female,R,IMT,2021-07-16_23h30.26.299,ImageRatingTask_S5,2021.1.4,Win32,59.94125757,,,,,,,,,,,,,,,,,
,,,,,,,,,,,,0,7,7,7,1,last,10,33,female,R,IMT,2021-07-16_23h30.26.299,ImageRatingTask_S5,2021.1.4,Win32,59.94125757,,,,,,,,,,,,,,,,,
,,,,,,,,,,,,,,,,,,10,33,female,R,IMT,2021-07-16_23h30.26.299,ImageRatingTask_S5,2021.1.4,Win32,59.94125757,0,2,2,60,1,DreamStudyImages_rs1000x750g/Children/People_037_h_CROPPED.jpg,,,,,,,,,,,
,,num_6,3.5479,num_1,0.473,num_9,1.9271,num_1,0.8477,num_3,0.4718,0,0,0,0,1,main,10,33,female,R,IMT,2021-07-16_23h30.26.299,ImageRatingTask_S5,2021.1.4,Win32,59.94125757,,,,,,,,,,,,,,,,,
,,,,,,,,,,,,0,1,1,1,1,second,10,33,female,R,IMT,2021-07-16_23h30.26.299,ImageRatingTask_S5,2021.1.4,Win32,59.94125757,,,,,,,,,,,,,,,,,
,,,,,,,,,,,,0,2,2,2,1,third,10,33,female,R,IMT,2021-07-16_23h30.26.299,ImageRatingTask_S5,2021.1.4,Win32,59.94125757,,,,,,,,,,,,,,,,,
,,,,,,,,,,,,0,3,3,3,1,fourth,10,33,female,R,IMT,2021-07-16_23h30.26.299,ImageRatingTask_S5,2021.1.4,Win32,59.94125757,,,,,,,,,,,,,,,,,
,,,,,,,,,,,,0,4,4,4,1,fifth,10,33,female,R,IMT,2021-07-16_23h30.26.299,ImageRatingTask_S5,2021.1.4,Win32,59.94125757,,,,,,,,,,,,,,,,,
,,,,,,,,,,,,0,5,5,5,1,sixth,10,33,female,R,IMT,2021-07-16_23h30.26.299,ImageRatingTask_S5,2021.1.4,Win32,59.94125757,,,,,,,,,,,,,,,,,
,,,,,,,,,,,,0,6,6,6,1,seventh,10,33,female,R,IMT,2021-07-16_23h30.26.299,ImageRatingTask_S5,2021.1.4,Win32,59.94125757,,,,,,,,,,,,,,,,,
,,,,,,,,,,,,0,7,7,7,1,last,10,33,female,R,IMT,2021-07-16_23h30.26.299,ImageRatingTask_S5,2021.1.4,Win32,59.94125757,,,,,,,,,,,,,,,,,
,,,,,,,,,,,,,,,,,,10,33,female,R,IMT,2021-07-16_23h30.26.299,ImageRatingTask_S5,2021.1.4,Win32,59.94125757,0,3,3,139,1,DreamStudyImages_rs1000x750g/Mammals/Animals_009_v.jpg,,,,,,,,,,,
,,num_5,2.161,num_1,0.2156,num_9,0.7533,num_1,0.9074,num_8,0.6302,0,0,0,0,1,main,10,33,female,R,IMT,2021-07-16_23h30.26.299,ImageRatingTask_S5,2021.1.4,Win32,59.94125757,,,,,,,,,,,,,,,,,
,,,,,,,,,,,,0,1,1,1,1,second,10,33,female,R,IMT,2021-07-16_23h30.26.299,ImageRatingTask_S5,2021.1.4,Win32,59.94125757,,,,,,,,,,,,,,,,,
,,,,,,,,,,,,0,2,2,2,1,third,10,33,female,R,IMT,2021-07-16_23h30.26.299,ImageRatingTask_S5,2021.1.4,Win32,59.94125757,,,,,,,,,,,,,,,,,
,,,,,,,,,,,,0,3,3,3,1,fourth,10,33,female,R,IMT,2021-07-16_23h30.26.299,ImageRatingTask_S5,2021.1.4,Win32,59.94125757,,,,,,,,,,,,,,,,,
,,,,,,,,,,,,0,4,4,4,1,fifth,10,33,female,R,IMT,2021-07-16_23h30.26.299,ImageRatingTask_S5,2021.1.4,Win32,59.94125757,,,,,,,,,,,,,,,,,
,,,,,,,,,,,,0,5,5,5,1,sixth,10,33,female,R,IMT,2021-07-16_23h30.26.299,ImageRatingTask_S5,2021.1.4,Win32,59.94125757,,,,,,,,,,,,,,,,,
,,,,,,,,,,,,0,6,6,6,1,seventh,10,33,female,R,IMT,2021-07-16_23h30.26.299,ImageRatingTask_S5,2021.1.4,Win32,59.94125757,,,,,,,,,,,,,,,,,
,,,,,,,,,,,,0,7,7,7,1,last,10,33,female,R,IMT,2021-07-16_23h30.26.299,ImageRatingTask_S5,2021.1.4,Win32,59.94125757,,,,,,,,,,,,,,,,,
,,,,,,,,,,,,,,,,,,10,33,female,R,IMT,2021-07-16_23h30.26.299,ImageRatingTask_S5,2021.1.4,Win32,59.94125757,0,4,4,30,1,DreamStudyImages_rs1000x750g/Water/NDPS125_volcanicwater.jpg,,,,,,,,,,,
,,num_4,4.622,num_3,2.1575,num_9,0.6526,num_1,2.4315,num_6,0.8566,0,0,0,0,1,main,10,33,female,R,IMT,2021-07-16_23h30.26.299,ImageRatingTask_S5,2021.1.4,Win32,59.94125757,,,,,,,,,,,,,,,,,
,,,,,,,,,,,,0,1,1,1,1,second,10,33,female,R,IMT,2021-07-16_23h30.26.299,ImageRatingTask_S5,2021.1.4,Win32,59.94125757,,,,,,,,,,,,,,,,,
,,,,,,,,,,,,0,2,2,2,1,third,10,33,female,R,IMT,2021-07-16_23h30.26.299,ImageRatingTask_S5,2021.1.4,Win32,59.94125757,,,,,,,,,,,,,,,,,
,,,,,,,,,,,,0,3,3,3,1,fourth,10,33,female,R,IMT,2021-07-16_23h30.26.299,ImageRatingTask_S5,2021.1.4,Win32,59.94125757,,,,,,,,,,,,,,,,,
,,,,,,,,,,,,0,4,4,4,1,fifth,10,33,female,R,IMT,2021-07-16_23h30.26.299,ImageRatingTask_S5,2021.1.4,Win32,59.94125757,,,,,,,,,,,,,,,,,
,,,,,,,,,,,,0,5,5,5,1,sixth,10,33,female,R,IMT,2021-07-16_23h30.26.299,ImageRatingTask_S5,2021.1.4,Win32,59.94125757,,,,,,,,,,,,,,,,,
,,,,,,,,,,,,0,6,6,6,1,seventh,10,33,female,R,IMT,2021-07-16_23h30.26.299,ImageRatingTask_S5,2021.1.4,Win32,59.94125757,,,,,,,,,,,,,,,,,
,,,,,,,,,,,,0,7,7,7,1,last,10,33,female,R,IMT,2021-07-16_23h30.26.299,ImageRatingTask_S5,2021.1.4,Win32,59.94125757,,,,,,,,,,,,,,,,,
,,,,,,,,,,,,,,,,,,10,33,female,R,IMT,2021-07-16_23h30.26.299,ImageRatingTask_S5,2021.1.4,Win32,59.94125757,0,5,5,143,1,DreamStudyImages_rs1000x750g/Houses/NDPS25_houses3.jpg,,,,,,,,,,,
,,num_5,1.8032,num_1,0.2764,num_8,1.3155,num_1,0.6747,num_5,1.7872,0,0,0,0,1,main,10,33,female,R,IMT,2021-07-16_23h30.26.299,ImageRatingTask_S5,2021.1.4,Win32,59.94125757,,,,,,,,,,,,,,,,,
,,,,,,,,,,,,0,1,1,1,1,second,10,33,female,R,IMT,2021-07-16_23h30.26.299,ImageRatingTask_S5,2021.1.4,Win32,59.94125757,,,,,,,,,,,,,,,,,
,,,,,,,,,,,,0,2,2,2,1,third,10,33,female,R,IMT,2021-07-16_23h30.26.299,ImageRatingTask_S5,2021.1.4,Win32,59.94125757,,,,,,,,,,,,,,,,,
,,,,,,,,,,,,0,3,3,3,1,fourth,10,33,female,R,IMT,2021-07-16_23h30.26.299,ImageRatingTask_S5,2021.1.4,Win32,59.94125757,,,,,,,,,,,,,,,,,
,,,,,,,,,,,,0,4,4,4,1,fifth,10,33,female,R,IMT,2021-07-16_23h30.26.299,ImageRatingTask_S5,2021.1.4,Win32,59.94125757,,,,,,,,,,,,,,,,,
,,,,,,,,,,,,0,5,5,5,1,sixth,10,33,female,R,IMT,2021-07-16_23h30.26.299,ImageRatingTask_S5,2021.1.4,Win32,59.94125757,,,,,,,,,,,,,,,,,
,,,,,,,,,,,,0,6,6,6,1,seventh,10,33,female,R,IMT,2021-07-16_23h30.26.299,ImageRatingTask_S5,2021.1.4,Win32,59.94125757,,,,,,,,,,,,,,,,,
,,,,,,,,,,,,0,7,7,7,1,last,10,33,female,R,IMT,2021-07-16_23h30.26.299,ImageRatingTask_S5,2021.1.4,Win32,59.94125757,,,,,,,,,,,,,,,,,
,,,,,,,,,,,,,,,,,,10,33,female,R,IMT,2021-07-16_23h30.26.299,ImageRatingTask_S5,2021.1.4,Win32,59.94125757,0,6,6,12,1,DreamStudyImages_rs1000x750g/Food/IAPS7410_chocolate2.jpg,,,,,,,,,,,
,,num_2,2.6372,num_7,0.3952,num_9,1.1595,num_1,0.6805,num_5,1.285,0,0,0,0,1,main,10,33,female,R,IMT,2021-07-16_23h30.26.299,ImageRatingTask_S5,2021.1.4,Win32,59.94125757,,,,,,,,,,,,,,,,,
,,,,,,,,,,,,0,1,1,1,1,second,10,33,female,R,IMT,2021-07-16_23h30.26.299,ImageRatingTask_S5,2021.1.4,Win32,59.94125757,,,,,,,,,,,,,,,,,
,,,,,,,,,,,,0,2,2,2,1,third,10,33,female,R,IMT,2021-07-16_23h30.26.299,ImageRatingTask_S5,2021.1.4,Win32,59.94125757,,,,,,,,,,,,,,,,,
,,,,,,,,,,,,0,3,3,3,1,fourth,10,33,female,R,IMT,2021-07-16_23h30.26.299,ImageRatingTask_S5,2021.1.4,Win32,59.94125757,,,,,,,,,,,,,,,,,
,,,,,,,,,,,,0,4,4,4,1,fifth,10,33,female,R,IMT,2021-07-16_23h30.26.299,ImageRatingTask_S5,2021.1.4,Win32,59.94125757,,,,,,,,,,,,,,,,,
,,,,,,,,,,,,0,5,5,5,1,sixth,10,33,female,R,IMT,2021-07-16_23h30.26.299,ImageRatingTask_S5,2021.1.4,Win32,59.94125757,,,,,,,,,,,,,,,,,
,,,,,,,,,,,,0,6,6,6,1,seventh,10,33,female,R,IMT,2021-07-16_23h30.26.299,ImageRatingTask_S5,2021.1.4,Win32,59.94125757,,,,,,,,,,,,,,,,,
,,,,,,,,,,,,0,7,7,7,1,last,10,33,female,R,IMT,2021-07-16_23h30.26.299,ImageRatingTask_S5,2021.1.4,Win32,59.94125757,,,,,,,,,,,,,,,,,
,,,,,,,,,,,,,,,,,,10,33,female,R,IMT,2021-07-16_23h30.26.299,ImageRatingTask_S5,2021.1.4,Win32,59.94125757,0,7,7,15,1,DreamStudyImages_rs1000x750g/Mammals/Animals_066_h.jpg,,,,,,,,,,,
,,num_7,2.2552,num_2,1.1423,num_9,0.6522,num_1,1.4915,num_5,0.6862,0,0,0,0,1,main,10,33,female,R,IMT,2021-07-16_23h30.26.299,ImageRatingTask_S5,2021.1.4,Win32,59.94125757,,,,,,,,,,,,,,,,,
,,,,,,,,,,,,0,1,1,1,1,second,10,33,female,R,IMT,2021-07-16_23h30.26.299,ImageRatingTask_S5,2021.1.4,Win32,59.94125757,,,,,,,,,,,,,,,,,
,,,,,,,,,,,,0,2,2,2,1,third,10,33,female,R,IMT,2021-07-16_23h30.26.299,ImageRatingTask_S5,2021.1.4,Win32,59.94125757,,,,,,,,,,,,,,,,,
,,,,,,,,,,,,0,3,3,3,1,fourth,10,33,female,R,IMT,2021-07-16_23h30.26.299,ImageRatingTask_S5,2021.1.4,Win32,59.94125757,,,,,,,,,,,,,,,,,
,,,,,,,,,,,,0,4,4,4,1,fifth,10,33,female,R,IMT,2021-07-16_23h30.26.299,ImageRatingTask_S5,2021.1.4,Win32,59.94125757,,,,,,,,,,,,,,,,,
,,,,,,,,,,,,0,5,5,5,1,sixth,10,33,female,R,IMT,2021-07-16_23h30.26.299,ImageRatingTask_S5,2021.1.4,Win32,59.94125757,,,,,,,,,,,,,,,,,
,,,,,,,,,,,,0,6,6,6,1,seventh,10,33,female,R,IMT,2021-07-16_23h30.26.299,ImageRatingTask_S5,2021.1.4,Win32,59.94125757,,,,,,,,,,,,,,,,,
,,,,,,,,,,,,0,7,7,7,1,last,10,33,female,R,IMT,2021-07-16_23h30.26.299,ImageRatingTask_S5,2021.1.4,Win32,59.94125757,,,,,,,,,,,,,,,,,
,,,,,,,,,,,,,,,,,,10,33,female,R,IMT,2021-07-16_23h30.26.299,ImageRatingTask_S5,2021.1.4,Win32,59.94125757,0,8,8,28,1,DreamStudyImages_rs1000x750g/Food/IAPS7472_fruitbasket3.jpg,,,,,,,,,,,
,,num_2,1.8597,num_4,1.6296,num_9,0.9275,num_1,1.0358,num_6,2.5614,0,0,0,0,1,main,10,33,female,R,IMT,2021-07-16_23h30.26.299,ImageRatingTask_S5,2021.1.4,Win32,59.94125757,,,,,,,,,,,,,,,,,
,,,,,,,,,,,,0,1,1,1,1,second,10,33,female,R,IMT,2021-07-16_23h30.26.299,ImageRatingTask_S5,2021.1.4,Win32,59.94125757,,,,,,,,,,,,,,,,,
,,,,,,,,,,,,0,2,2,2,1,third,10,33,female,R,IMT,2021-07-16_23h30.26.299,ImageRatingTask_S5,2021.1.4,Win32,59.94125757,,,,,,,,,,,,,,,,,
,,,,,,,,,,,,0,3,3,3,1,fourth,10,33,female,R,IMT,2021-07-16_23h30.26.299,ImageRatingTask_S5,2021.1.4,Win32,59.94125757,,,,,,,,,,,,,,,,,
,,,,,,,,,,,,0,4,4,4,1,fifth,10,33,female,R,IMT,2021-07-16_23h30.26.299,ImageRatingTask_S5,2021.1.4,Win32,59.94125757,,,,,,,,,,,,,,,,,
,,,,,,,,,,,,0,5,5,5,1,sixth,10,33,female,R,IMT,2021-07-16_23h30.26.299,ImageRatingTask_S5,2021.1.4,Win32,59.94125757,,,,,,,,,,,,,,,,,
,,,,,,,,,,,,0,6,6,6,1,seventh,10,33,female,R,IMT,2021-07-16_23h30.26.299,ImageRatingTask_S5,2021.1.4,Win32,59.94125757,,,,,,,,,,,,,,,,,
,,,,,,,,,,,,0,7,7,7,1,last,10,33,female,R,IMT,2021-07-16_23h30.26.299,ImageRatingTask_S5,2021.1.4,Win32,59.94125757,,,,,,,,,,,,,,,,,
,,,,,,,,,,,,,,,,,,10,33,female,R,IMT,2021-07-16_23h30.26.299,ImageRatingTask_S5,2021.1.4,Win32,59.94125757,0,9,9,11,1,DreamStudyImages_rs1000x750g/Houses/Fire 5.jpg,,,,,,,,,,,
,,num_5,2.4342,num_1,0.4339,num_9,0.4934,num_1,1.585,num_7,0.9484,0,0,0,0,1,main,10,33,female,R,IMT,2021-07-16_23h30.26.299,ImageRatingTask_S5,2021.1.4,Win32,59.94125757,,,,,,,,,,,,,,,,,
,,,,,,,,,,,,0,1,1,1,1,second,10,33,female,R,IMT,2021-07-16_23h30.26.299,ImageRatingTask_S5,2021.1.4,Win32,59.94125757,,,,,,,,,,,,,,,,,
,,,,,,,,,,,,0,2,2,2,1,third,10,33,female,R,IMT,2021-07-16_23h30.26.299,ImageRatingTask_S5,2021.1.4,Win32,59.94125757,,,,,,,,,,,,,,,,,
,,,,,,,,,,,,0,3,3,3,1,fourth,10,33,female,R,IMT,2021-07-16_23h30.26.299,ImageRatingTask_S5,2021.1.4,Win32,59.94125757,,,,,,,,,,,,,,,,,
,,,,,,,,,,,,0,4,4,4,1,fifth,10,33,female,R,IMT,2021-07-16_23h30.26.299,ImageRatingTask_S5,2021.1.4,Win32,59.94125757,,,,,,,,,,,,,,,,,
,,,,,,,,,,,,0,5,5,5,1,sixth,10,33,female,R,IMT,2021-07-16_23h30.26.299,ImageRatingTask_S5,2021.1.4,Win32,59.94125757,,,,,,,,,,,,,,,,,
,,,,,,,,,,,,0,6,6,6,1,seventh,10,33,female,R,IMT,2021-07-16_23h30.26.299,ImageRatingTask_S5,2021.1.4,Win32,59.94125757,,,,,,,,,,,,,,,,,
,,,,,,,,,,,,0,7,7,7,1,last,10,33,female,R,IMT,2021-07-16_23h30.26.299,ImageRatingTask_S5,2021.1.4,Win32,59.94125757,,,,,,,,,,,,,,,,,
,,,,,,,,,,,,,,,,,,10,33,female,R,IMT,2021-07-16_23h30.26.299,ImageRatingTask_S5,2021.1.4,Win32,59.94125757,0,10,10,84,1,DreamStudyImages_rs1000x750g/Vehicles/Objects_309_h.jpg,,,,,,,,,,,
,,num_5,1.7534,num_1,0.2878,num_9,0.5865,num_1,1.5936,num_5,0.5187,0,0,0,0,1,main,10,33,female,R,IMT,2021-07-16_23h30.26.299,ImageRatingTask_S5,2021.1.4,Win32,59.94125757,,,,,,,,,,,,,,,,,
,,,,,,,,,,,,0,1,1,1,1,second,10,33,female,R,IMT,2021-07-16_23h30.26.299,ImageRatingTask_S5,2021.1.4,Win32,59.94125757,,,,,,,,,,,,,,,,,
,,,,,,,,,,,,0,2,2,2,1,third,10,33,female,R,IMT,2021-07-16_23h30.26.299,ImageRatingTask_S5,2021.1.4,Win32,59.94125757,,,,,,,,,,,,,,,,,
,,,,,,,,,,,,0,3,3,3,1,fourth,10,33,female,R,IMT,2021-07-16_23h30.26.299,ImageRatingTask_S5,2021.1.4,Win32,59.94125757,,,,,,,,,,,,,,,,,
,,,,,,,,,,,,0,4,4,4,1,fifth,10,33,female,R,IMT,2021-07-16_23h30.26.299,ImageRatingTask_S5,2021.1.4,Win32,59.94125757,,,,,,,,,,,,,,,,,
,,,,,,,,,,,,0,5,5,5,1,sixth,10,33,female,R,IMT,2021-07-16_23h30.26.299,ImageRatingTask_S5,2021.1.4,Win32,59.94125757,,,,,,,,,,,,,,,,,
,,,,,,,,,,,,0,6,6,6,1,seventh,10,33,female,R,IMT,2021-07-16_23h30.26.299,ImageRatingTask_S5,2021.1.4,Win32,59.94125757,,,,,,,,,,,,,,,,,
,,,,,,,,,,,,0,7,7,7,1,last,10,33,female,R,IMT,2021-07-16_23h30.26.299,ImageRatingTask_S5,2021.1.4,Win32,59.94125757,,,,,,,,,,,,,,,,,
,,,,,,,,,,,,,,,,,,10,33,female,R,IMT,2021-07-16_23h30.26.299,ImageRatingTask_S5,2021.1.4,Win32,59.94125757,0,11,11,22,1,DreamStudyImages_rs1000x750g/Food/Objects_104_v.jpg,,,,,,,,,,,
,,num_5,3.5619,num_1,0.1911,num_9,0.5931,num_1,4.6593,num_2,0.5215,0,0,0,0,1,main,10,33,female,R,IMT,2021-07-16_23h30.26.299,ImageRatingTask_S5,2021.1.4,Win32,59.94125757,,,,,,,,,,,,,,,,,
,,,,,,,,,,,,0,1,1,1,1,second,10,33,female,R,IMT,2021-07-16_23h30.26.299,ImageRatingTask_S5,2021.1.4,Win32,59.94125757,,,,,,,,,,,,,,,,,
,,,,,,,,,,,,0,2,2,2,1,third,10,33,female,R,IMT,2021-07-16_23h30.26.299,ImageRatingTask_S5,2021.1.4,Win32,59.94125757,,,,,,,,,,,,,,,,,
,,,,,,,,,,,,0,3,3,3,1,fourth,10,33,female,R,IMT,2021-07-16_23h30.26.299,ImageRatingTask_S5,2021.1.4,Win32,59.94125757,,,,,,,,,,,,,,,,,
,,,,,,,,,,,,0,4,4,4,1,fifth,10,33,female,R,IMT,2021-07-16_23h30.26.299,ImageRatingTask_S5,2021.1.4,Win32,59.94125757,,,,,,,,,,,,,,,,,
,,,,,,,,,,,,0,5,5,5,1,sixth,10,33,female,R,IMT,2021-07-16_23h30.26.299,ImageRatingTask_S5,2021.1.4,Win32,59.94125757,,,,,,,,,,,,,,,,,
,,,,,,,,,,,,0,6,6,6,1,seventh,10,33,female,R,IMT,2021-07-16_23h30.26.299,ImageRatingTask_S5,2021.1.4,Win32,59.94125757,,,,,,,,,,,,,,,,,
,,,,,,,,,,,,0,7,7,7,1,last,10,33,female,R,IMT,2021-07-16_23h30.26.299,ImageRatingTask_S5,2021.1.4,Win32,59.94125757,,,,,,,,,,,,,,,,,
,,,,,,,,,,,,,,,,,,10,33,female,R,IMT,2021-07-16_23h30.26.299,ImageRatingTask_S5,2021.1.4,Win32,59.94125757,0,12,12,155,1,DreamStudyImages_rs1000x750g/Children/Faces_040_h.jpg,,,,,,,,,,,
,,num_5,1.8634,num_1,0.2827,num_9,0.3914,num_1,5.6307,num_2,0.5274,0,0,0,0,1,main,10,33,female,R,IMT,2021-07-16_23h30.26.299,ImageRatingTask_S5,2021.1.4,Win32,59.94125757,,,,,,,,,,,,,,,,,
,,,,,,,,,,,,0,1,1,1,1,second,10,33,female,R,IMT,2021-07-16_23h30.26.299,ImageRatingTask_S5,2021.1.4,Win32,59.94125757,,,,,,,,,,,,,,,,,
,,,,,,,,,,,,0,2,2,2,1,third,10,33,female,R,IMT,2021-07-16_23h30.26.299,ImageRatingTask_S5,2021.1.4,Win32,59.94125757,,,,,,,,,,,,,,,,,
,,,,,,,,,,,,0,3,3,3,1,fourth,10,33,female,R,IMT,2021-07-16_23h30.26.299,ImageRatingTask_S5,2021.1.4,Win32,59.94125757,,,,,,,,,,,,,,,,,
,,,,,,,,,,,,0,4,4,4,1,fifth,10,33,female,R,IMT,2021-07-16_23h30.26.299,ImageRatingTask_S5,2021.1.4,Win32,59.94125757,,,,,,,,,,,,,,,,,
,,,,,,,,,,,,0,5,5,5,1,sixth,10,33,female,R,IMT,2021-07-16_23h30.26.299,ImageRatingTask_S5,2021.1.4,Win32,59.94125757,,,,,,,,,,,,,,,,,
,,,,,,,,,,,,0,6,6,6,1,seventh,10,33,female,R,IMT,2021-07-16_23h30.26.299,ImageRatingTask_S5,2021.1.4,Win32,59.94125757,,,,,,,,,,,,,,,,,
,,,,,,,,,,,,0,7,7,7,1,last,10,33,female,R,IMT,2021-07-16_23h30.26.299,ImageRatingTask_S5,2021.1.4,Win32,59.94125757,,,,,,,,,,,,,,,,,
,,,,,,,,,,,,,,,,,,10,33,female,R,IMT,2021-07-16_23h30.26.299,ImageRatingTask_S5,2021.1.4,Win32,59.94125757,0,13,13,6,1,DreamStudyImages_rs1000x750g/Children/Faces_077_v.jpg,,,,,,,,,,,
,,num_6,3.3565,num_2,2.3873,num_9,0.5601,num_1,1.2127,num_3,1.9161,0,0,0,0,1,main,10,33,female,R,IMT,2021-07-16_23h30.26.299,ImageRatingTask_S5,2021.1.4,Win32,59.94125757,,,,,,,,,,,,,,,,,
,,,,,,,,,,,,0,1,1,1,1,second,10,33,female,R,IMT,2021-07-16_23h30.26.299,ImageRatingTask_S5,2021.1.4,Win32,59.94125757,,,,,,,,,,,,,,,,,
,,,,,,,,,,,,0,2,2,2,1,third,10,33,female,R,IMT,2021-07-16_23h30.26.299,ImageRatingTask_S5,2021.1.4,Win32,59.94125757,,,,,,,,,,,,,,,,,
,,,,,,,,,,,,0,3,3,3,1,fourth,10,33,female,R,IMT,2021-07-16_23h30.26.299,ImageRatingTask_S5,2021.1.4,Win32,59.94125757,,,,,,,,,,,,,,,,,
,,,,,,,,,,,,0,4,4,4,1,fifth,10,33,female,R,IMT,2021-07-16_23h30.26.299,ImageRatingTask_S5,2021.1.4,Win32,59.94125757,,,,,,,,,,,,,,,,,
,,,,,,,,,,,,0,5,5,5,1,sixth,10,33,female,R,IMT,2021-07-16_23h30.26.299,ImageRatingTask_S5,2021.1.4,Win32,59.94125757,,,,,,,,,,,,,,,,,
,,,,,,,,,,,,0,6,6,6,1,seventh,10,33,female,R,IMT,2021-07-16_23h30.26.299,ImageRatingTask_S5,2021.1.4,Win32,59.94125757,,,,,,,,,,,,,,,,,
,,,,,,,,,,,,0,7,7,7,1,last,10,33,female,R,IMT,2021-07-16_23h30.26.299,ImageRatingTask_S5,2021.1.4,Win32,59.94125757,,,,,,,,,,,,,,,,,
,,,,,,,,,,,,,,,,,,10,33,female,R,IMT,2021-07-16_23h30.26.299,ImageRatingTask_S5,2021.1.4,Win32,59.94125757,0,14,14,69,1,DreamStudyImages_rs1000x750g/Mammals/Animals_171_h.jpg,,,,,,,,,,,
,,num_5,2.175,num_1,0.3172,num_8,7.8149,num_1,1.0744,num_6,0.7035,0,0,0,0,1,main,10,33,female,R,IMT,2021-07-16_23h30.26.299,ImageRatingTask_S5,2021.1.4,Win32,59.94125757,,,,,,,,,,,,,,,,,
,,,,,,,,,,,,0,1,1,1,1,second,10,33,female,R,IMT,2021-07-16_23h30.26.299,ImageRatingTask_S5,2021.1.4,Win32,59.94125757,,,,,,,,,,,,,,,,,
,,,,,,,,,,,,0,2,2,2,1,third,10,33,female,R,IMT,2021-07-16_23h30.26.299,ImageRatingTask_S5,2021.1.4,Win32,59.94125757,,,,,,,,,,,,,,,,,
,,,,,,,,,,,,0,3,3,3,1,fourth,10,33,female,R,IMT,2021-07-16_23h30.26.299,ImageRatingTask_S5,2021.1.4,Win32,59.94125757,,,,,,,,,,,,,,,,,
,,,,,,,,,,,,0,4,4,4,1,fifth,10,33,female,R,IMT,2021-07-16_23h30.26.299,ImageRatingTask_S5,2021.1.4,Win32,59.94125757,,,,,,,,,,,,,,,,,
,,,,,,,,,,,,0,5,5,5,1,sixth,10,33,female,R,IMT,2021-07-16_23h30.26.299,ImageRatingTask_S5,2021.1.4,Win32,59.94125757,,,,,,,,,,,,,,,,,
,,,,,,,,,,,,0,6,6,6,1,seventh,10,33,female,R,IMT,2021-07-16_23h30.26.299,ImageRatingTask_S5,2021.1.4,Win32,59.94125757,,,,,,,,,,,,,,,,,
,,,,,,,,,,,,0,7,7,7,1,last,10,33,female,R,IMT,2021-07-16_23h30.26.299,ImageRatingTask_S5,2021.1.4,Win32,59.94125757,,,,,,,,,,,,,,,,,
,,,,,,,,,,,,,,,,,,10,33,female,R,IMT,2021-07-16_23h30.26.299,ImageRatingTask_S5,2021.1.4,Win32,59.94125757,0,15,15,130,1,DreamStudyImages_rs1000x750g/Houses/IAPS7510_building2.jpg,,,,,,,,,,,
,,num_6,1.8823,num_2,1.0105,num_9,1.1083,num_1,0.7883,num_3,0.7752,0,0,0,0,1,main,10,33,female,R,IMT,2021-07-16_23h30.26.299,ImageRatingTask_S5,2021.1.4,Win32,59.94125757,,,,,,,,,,,,,,,,,
,,,,,,,,,,,,0,1,1,1,1,second,10,33,female,R,IMT,2021-07-16_23h30.26.299,ImageRatingTask_S5,2021.1.4,Win32,59.94125757,,,,,,,,,,,,,,,,,
,,,,,,,,,,,,0,2,2,2,1,third,10,33,female,R,IMT,2021-07-16_23h30.26.299,ImageRatingTask_S5,2021.1.4,Win32,59.94125757,,,,,,,,,,,,,,,,,
,,,,,,,,,,,,0,3,3,3,1,fourth,10,33,female,R,IMT,2021-07-16_23h30.26.299,ImageRatingTask_S5,2021.1.4,Win32,59.94125757,,,,,,,,,,,,,,,,,
,,,,,,,,,,,,0,4,4,4,1,fifth,10,33,female,R,IMT,2021-07-16_23h30.26.299,ImageRatingTask_S5,2021.1.4,Win32,59.94125757,,,,,,,,,,,,,,,,,
,,,,,,,,,,,,0,5,5,5,1,sixth,10,33,female,R,IMT,2021-07-16_23h30.26.299,ImageRatingTask_S5,2021.1.4,Win32,59.94125757,,,,,,,,,,,,,,,,,
,,,,,,,,,,,,0,6,6,6,1,seventh,10,33,female,R,IMT,2021-07-16_23h30.26.299,ImageRatingTask_S5,2021.1.4,Win32,59.94125757,,,,,,,,,,,,,,,,,
,,,,,,,,,,,,0,7,7,7,1,last,10,33,female,R,IMT,2021-07-16_23h30.26.299,ImageRatingTask_S5,2021.1.4,Win32,59.94125757,,,,,,,,,,,,,,,,,
,,,,,,,,,,,,,,,,,,10,33,female,R,IMT,2021-07-16_23h30.26.299,ImageRatingTask_S5,2021.1.4,Win32,59.94125757,0,16,16,103,1,DreamStudyImages_rs1000x750g/Mammals/Animals_191_h.jpg,,,,,,,,,,,
,,num_6,3.369,num_2,0.4571,num_9,0.3598,num_1,0.4796,num_2,0.6278,0,0,0,0,1,main,10,33,female,R,IMT,2021-07-16_23h30.26.299,ImageRatingTask_S5,2021.1.4,Win32,59.94125757,,,,,,,,,,,,,,,,,
,,,,,,,,,,,,0,1,1,1,1,second,10,33,female,R,IMT,2021-07-16_23h30.26.299,ImageRatingTask_S5,2021.1.4,Win32,59.94125757,,,,,,,,,,,,,,,,,
,,,,,,,,,,,,0,2,2,2,1,third,10,33,female,R,IMT,2021-07-16_23h30.26.299,ImageRatingTask_S5,2021.1.4,Win32,59.94125757,,,,,,,,,,,,,,,,,
,,,,,,,,,,,,0,3,3,3,1,fourth,10,33,female,R,IMT,2021-07-16_23h30.26.299,ImageRatingTask_S5,2021.1.4,Win32,59.94125757,,,,,,,,,,,,,,,,,
,,,,,,,,,,,,0,4,4,4,1,fifth,10,33,female,R,IMT,2021-07-16_23h30.26.299,ImageRatingTask_S5,2021.1.4,Win32,59.94125757,,,,,,,,,,,,,,,,,
,,,,,,,,,,,,0,5,5,5,1,sixth,10,33,female,R,IMT,2021-07-16_23h30.26.299,ImageRatingTask_S5,2021.1.4,Win32,59.94125757,,,,,,,,,,,,,,,,,
,,,,,,,,,,,,0,6,6,6,1,seventh,10,33,female,R,IMT,2021-07-16_23h30.26.299,ImageRatingTask_S5,2021.1.4,Win32,59.94125757,,,,,,,,,,,,,,,,,
,,,,,,,,,,,,0,7,7,7,1,last,10,33,female,R,IMT,2021-07-16_23h30.26.299,ImageRatingTask_S5,2021.1.4,Win32,59.94125757,,,,,,,,,,,,,,,,,
,,,,,,,,,,,,,,,,,,10,33,female,R,IMT,2021-07-16_23h30.26.299,ImageRatingTask_S5,2021.1.4,Win32,59.94125757,0,17,17,31,1,DreamStudyImages_rs1000x750g/Children/Excited face 3.jpg,,,,,,,,,,,
,,num_6,2.4347,num_2,1.5433,num_9,2.7575,num_1,1.3018,num_2,0.1732,0,0,0,0,1,main,10,33,female,R,IMT,2021-07-16_23h30.26.299,ImageRatingTask_S5,2021.1.4,Win32,59.94125757,,,,,,,,,,,,,,,,,
,,,,,,,,,,,,0,1,1,1,1,second,10,33,female,R,IMT,2021-07-16_23h30.26.299,ImageRatingTask_S5,2021.1.4,Win32,59.94125757,,,,,,,,,,,,,,,,,
,,,,,,,,,,,,0,2,2,2,1,third,10,33,female,R,IMT,2021-07-16_23h30.26.299,ImageRatingTask_S5,2021.1.4,Win32,59.94125757,,,,,,,,,,,,,,,,,
,,,,,,,,,,,,0,3,3,3,1,fourth,10,33,female,R,IMT,2021-07-16_23h30.26.299,ImageRatingTask_S5,2021.1.4,Win32,59.94125757,,,,,,,,,,,,,,,,,
,,,,,,,,,,,,0,4,4,4,1,fifth,10,33,female,R,IMT,2021-07-16_23h30.26.299,ImageRatingTask_S5,2021.1.4,Win32,59.94125757,,,,,,,,,,,,,,,,,
,,,,,,,,,,,,0,5,5,5,1,sixth,10,33,female,R,IMT,2021-07-16_23h30.26.299,ImageRatingTask_S5,2021.1.4,Win32,59.94125757,,,,,,,,,,,,,,,,,
,,,,,,,,,,,,0,6,6,6,1,seventh,10,33,female,R,IMT,2021-07-16_23h30.26.299,ImageRatingTask_S5,2021.1.4,Win32,59.94125757,,,,,,,,,,,,,,,,,
,,,,,,,,,,,,0,7,7,7,1,last,10,33,female,R,IMT,2021-07-16_23h30.26.299,ImageRatingTask_S5,2021.1.4,Win32,59.94125757,,,,,,,,,,,,,,,,,
,,,,,,,,,,,,,,,,,,10,33,female,R,IMT,2021-07-16_23h30.26.299,ImageRatingTask_S5,2021.1.4,Win32,59.94125757,0,18,18,133,1,DreamStudyImages_rs1000x750g/Children/IAPS2222_children4.jpg,,,,,,,,,,,
,,num_5,1.2415,num_1,0.2013,num_9,0.2557,num_1,1.1954,num_7,0.727,0,0,0,0,1,main,10,33,female,R,IMT,2021-07-16_23h30.26.299,ImageRatingTask_S5,2021.1.4,Win32,59.94125757,,,,,,,,,,,,,,,,,
,,,,,,,,,,,,0,1,1,1,1,second,10,33,female,R,IMT,2021-07-16_23h30.26.299,ImageRatingTask_S5,2021.1.4,Win32,59.94125757,,,,,,,,,,,,,,,,,
,,,,,,,,,,,,0,2,2,2,1,third,10,33,female,R,IMT,2021-07-16_23h30.26.299,ImageRatingTask_S5,2021.1.4,Win32,59.94125757,,,,,,,,,,,,,,,,,
,,,,,,,,,,,,0,3,3,3,1,fourth,10,33,female,R,IMT,2021-07-16_23h30.26.299,ImageRatingTask_S5,2021.1.4,Win32,59.94125757,,,,,,,,,,,,,,,,,
,,,,,,,,,,,,0,4,4,4,1,fifth,10,33,female,R,IMT,2021-07-16_23h30.26.299,ImageRatingTask_S5,2021.1.4,Win32,59.94125757,,,,,,,,,,,,,,,,,
,,,,,,,,,,,,0,5,5,5,1,sixth,10,33,female,R,IMT,2021-07-16_23h30.26.299,ImageRatingTask_S5,2021.1.4,Win32,59.94125757,,,,,,,,,,,,,,,,,
,,,,,,,,,,,,0,6,6,6,1,seventh,10,33,female,R,IMT,2021-07-16_23h30.26.299,ImageRatingTask_S5,2021.1.4,Win32,59.94125757,,,,,,,,,,,,,,,,,
,,,,,,,,,,,,0,7,7,7,1,last,10,33,female,R,IMT,2021-07-16_23h30.26.299,ImageRatingTask_S5,2021.1.4,Win32,59.94125757,,,,,,,,,,,,,,,,,
,,,,,,,,,,,,,,,,,,10,33,female,R,IMT,2021-07-16_23h30.26.299,ImageRatingTask_S5,2021.1.4,Win32,59.94125757,0,19,19,14,1,DreamStudyImages_rs1000x750g/Vehicles/Objects_281_h.jpg,,,,,,,,,,,
,,num_5,1.8005,num_1,0.2143,num_9,0.5011,num_1,0.3959,num_7,1.2083,0,0,0,0,1,main,10,33,female,R,IMT,2021-07-16_23h30.26.299,ImageRatingTask_S5,2021.1.4,Win32,59.94125757,,,,,,,,,,,,,,,,,
,,,,,,,,,,,,0,1,1,1,1,second,10,33,female,R,IMT,2021-07-16_23h30.26.299,ImageRatingTask_S5,2021.1.4,Win32,59.94125757,,,,,,,,,,,,,,,,,
,,,,,,,,,,,,0,2,2,2,1,third,10,33,female,R,IMT,2021-07-16_23h30.26.299,ImageRatingTask_S5,2021.1.4,Win32,59.94125757,,,,,,,,,,,,,,,,,
,,,,,,,,,,,,0,3,3,3,1,fourth,10,33,female,R,IMT,2021-07-16_23h30.26.299,ImageRatingTask_S5,2021.1.4,Win32,59.94125757,,,,,,,,,,,,,,,,,
,,,,,,,,,,,,0,4,4,4,1,fifth,10,33,female,R,IMT,2021-07-16_23h30.26.299,ImageRatingTask_S5,2021.1.4,Win32,59.94125757,,,,,,,,,,,,,,,,,
,,,,,,,,,,,,0,5,5,5,1,sixth,10,33,female,R,IMT,2021-07-16_23h30.26.299,ImageRatingTask_S5,2021.1.4,Win32,59.94125757,,,,,,,,,,,,,,,,,
,,,,,,,,,,,,0,6,6,6,1,seventh,10,33,female,R,IMT,2021-07-16_23h30.26.299,ImageRatingTask_S5,2021.1.4,Win32,59.94125757,,,,,,,,,,,,,,,,,
,,,,,,,,,,,,0,7,7,7,1,last,10,33,female,R,IMT,2021-07-16_23h30.26.299,ImageRatingTask_S5,2021.1.4,Win32,59.94125757,,,,,,,,,,,,,,,,,
,,,,,,,,,,,,,,,,,,10,33,female,R,IMT,2021-07-16_23h30.26.299,ImageRatingTask_S5,2021.1.4,Win32,59.94125757,0,20,20,122,1,DreamStudyImages_rs1000x750g/Vehicles/Car 2.jpg,,,,,,,,,,,
,,num_6,4.0566,num_1,0.3677,num_9,0.9506,num_1,0.9832,num_3,0.2817,0,0,0,0,1,main,10,33,female,R,IMT,2021-07-16_23h30.26.299,ImageRatingTask_S5,2021.1.4,Win32,59.94125757,,,,,,,,,,,,,,,,,
,,,,,,,,,,,,0,1,1,1,1,second,10,33,female,R,IMT,2021-07-16_23h30.26.299,ImageRatingTask_S5,2021.1.4,Win32,59.94125757,,,,,,,,,,,,,,,,,
,,,,,,,,,,,,0,2,2,2,1,third,10,33,female,R,IMT,2021-07-16_23h30.26.299,ImageRatingTask_S5,2021.1.4,Win32,59.94125757,,,,,,,,,,,,,,,,,
,,,,,,,,,,,,0,3,3,3,1,fourth,10,33,female,R,IMT,2021-07-16_23h30.26.299,ImageRatingTask_S5,2021.1.4,Win32,59.94125757,,,,,,,,,,,,,,,,,
,,,,,,,,,,,,0,4,4,4,1,fifth,10,33,female,R,IMT,2021-07-16_23h30.26.299,ImageRatingTask_S5,2021.1.4,Win32,59.94125757,,,,,,,,,,,,,,,,,
,,,,,,,,,,,,0,5,5,5,1,sixth,10,33,female,R,IMT,2021-07-16_23h30.26.299,ImageRatingTask_S5,2021.1.4,Win32,59.94125757,,,,,,,,,,,,,,,,,
,,,,,,,,,,,,0,6,6,6,1,seventh,10,33,female,R,IMT,2021-07-16_23h30.26.299,ImageRatingTask_S5,2021.1.4,Win32,59.94125757,,,,,,,,,,,,,,,,,
,,,,,,,,,,,,0,7,7,7,1,last,10,33,female,R,IMT,2021-07-16_23h30.26.299,ImageRatingTask_S5,2021.1.4,Win32,59.94125757,,,,,,,,,,,,,,,,,
,,,,,,,,,,,,,,,,,,10,33,female,R,IMT,2021-07-16_23h30.26.299,ImageRatingTask_S5,2021.1.4,Win32,59.94125757,0,21,21,124,1,DreamStudyImages_rs1000x750g/Mammals/Animals_165_h.jpg,,,,,,,,,,,
,,num_5,1.1558,num_1,0.2174,num_9,0.2734,num_1,1.3188,num_5,0.3875,0,0,0,0,1,main,10,33,female,R,IMT,2021-07-16_23h30.26.299,ImageRatingTask_S5,2021.1.4,Win32,59.94125757,,,,,,,,,,,,,,,,,
,,,,,,,,,,,,0,1,1,1,1,second,10,33,female,R,IMT,2021-07-16_23h30.26.299,ImageRatingTask_S5,2021.1.4,Win32,59.94125757,,,,,,,,,,,,,,,,,
,,,,,,,,,,,,0,2,2,2,1,third,10,33,female,R,IMT,2021-07-16_23h30.26.299,ImageRatingTask_S5,2021.1.4,Win32,59.94125757,,,,,,,,,,,,,,,,,
,,,,,,,,,,,,0,3,3,3,1,fourth,10,33,female,R,IMT,2021-07-16_23h30.26.299,ImageRatingTask_S5,2021.1.4,Win32,59.94125757,,,,,,,,,,,,,,,,,
,,,,,,,,,,,,0,4,4,4,1,fifth,10,33,female,R,IMT,2021-07-16_23h30.26.299,ImageRatingTask_S5,2021.1.4,Win32,59.94125757,,,,,,,,,,,,,,,,,
,,,,,,,,,,,,0,5,5,5,1,sixth,10,33,female,R,IMT,2021-07-16_23h30.26.299,ImageRatingTask_S5,2021.1.4,Win32,59.94125757,,,,,,,,,,,,,,,,,
,,,,,,,,,,,,0,6,6,6,1,seventh,10,33,female,R,IMT,2021-07-16_23h30.26.299,ImageRatingTask_S5,2021.1.4,Win32,59.94125757,,,,,,,,,,,,,,,,,
,,,,,,,,,,,,0,7,7,7,1,last,10,33,female,R,IMT,2021-07-16_23h30.26.299,ImageRatingTask_S5,2021.1.4,Win32,59.94125757,,,,,,,,,,,,,,,,,
,,,,,,,,,,,,,,,,,,10,33,female,R,IMT,2021-07-16_23h30.26.299,ImageRatingTask_S5,2021.1.4,Win32,59.94125757,0,22,22,99,1,DreamStudyImages_rs1000x750g/Food/Objects_098_v.jpg,,,,,,,,,,,
,,num_3,2.5694,num_5,2.2145,num_9,0.9916,num_1,1.85,num_6,0.905,0,0,0,0,1,main,10,33,female,R,IMT,2021-07-16_23h30.26.299,ImageRatingTask_S5,2021.1.4,Win32,59.94125757,,,,,,,,,,,,,,,,,
,,,,,,,,,,,,0,1,1,1,1,second,10,33,female,R,IMT,2021-07-16_23h30.26.299,ImageRatingTask_S5,2021.1.4,Win32,59.94125757,,,,,,,,,,,,,,,,,
,,,,,,,,,,,,0,2,2,2,1,third,10,33,female,R,IMT,2021-07-16_23h30.26.299,ImageRatingTask_S5,2021.1.4,Win32,59.94125757,,,,,,,,,,,,,,,,,
,,,,,,,,,,,,0,3,3,3,1,fourth,10,33,female,R,IMT,2021-07-16_23h30.26.299,ImageRatingTask_S5,2021.1.4,Win32,59.94125757,,,,,,,,,,,,,,,,,
,,,,,,,,,,,,0,4,4,4,1,fifth,10,33,female,R,IMT,2021-07-16_23h30.26.299,ImageRatingTask_S5,2021.1.4,Win32,59.94125757,,,,,,,,,,,,,,,,,
,,,,,,,,,,,,0,5,5,5,1,sixth,10,33,female,R,IMT,2021-07-16_23h30.26.299,ImageRatingTask_S5,2021.1.4,Win32,59.94125757,,,,,,,,,,,,,,,,,
,,,,,,,,,,,,0,6,6,6,1,seventh,10,33,female,R,IMT,2021-07-16_23h30.26.299,ImageRatingTask_S5,2021.1.4,Win32,59.94125757,,,,,,,,,,,,,,,,,
,,,,,,,,,,,,0,7,7,7,1,last,10,33,female,R,IMT,2021-07-16_23h30.26.299,ImageRatingTask_S5,2021.1.4,Win32,59.94125757,,,,,,,,,,,,,,,,,
,,,,,,,,,,,,,,,,,,10,33,female,R,IMT,2021-07-16_23h30.26.299,ImageRatingTask_S5,2021.1.4,Win32,59.94125757,0,23,23,73,1,DreamStudyImages_rs1000x750g/Houses/NDPS29_buildings7.jpg,,,,,,,,,,,
,,num_5,19.25,num_1,0.2558,num_9,0.7405,num_1,2.3125,num_7,0.7444,0,0,0,0,1,main,10,33,female,R,IMT,2021-07-16_23h30.26.299,ImageRatingTask_S5,2021.1.4,Win32,59.94125757,,,,,,,,,,,,,,,,,
,,,,,,,,,,,,0,1,1,1,1,second,10,33,female,R,IMT,2021-07-16_23h30.26.299,ImageRatingTask_S5,2021.1.4,Win32,59.94125757,,,,,,,,,,,,,,,,,
,,,,,,,,,,,,0,2,2,2,1,third,10,33,female,R,IMT,2021-07-16_23h30.26.299,ImageRatingTask_S5,2021.1.4,Win32,59.94125757,,,,,,,,,,,,,,,,,
,,,,,,,,,,,,0,3,3,3,1,fourth,10,33,female,R,IMT,2021-07-16_23h30.26.299,ImageRatingTask_S5,2021.1.4,Win32,59.94125757,,,,,,,,,,,,,,,,,
,,,,,,,,,,,,0,4,4,4,1,fifth,10,33,female,R,IMT,2021-07-16_23h30.26.299,ImageRatingTask_S5,2021.1.4,Win32,59.94125757,,,,,,,,,,,,,,,,,
,,,,,,,,,,,,0,5,5,5,1,sixth,10,33,female,R,IMT,2021-07-16_23h30.26.299,ImageRatingTask_S5,2021.1.4,Win32,59.94125757,,,,,,,,,,,,,,,,,
,,,,,,,,,,,,0,6,6,6,1,seventh,10,33,female,R,IMT,2021-07-16_23h30.26.299,ImageRatingTask_S5,2021.1.4,Win32,59.94125757,,,,,,,,,,,,,,,,,
,,,,,,,,,,,,0,7,7,7,1,last,10,33,female,R,IMT,2021-07-16_23h30.26.299,ImageRatingTask_S5,2021.1.4,Win32,59.94125757,,,,,,,,,,,,,,,,,
,,,,,,,,,,,,,,,,,,10,33,female,R,IMT,2021-07-16_23h30.26.299,ImageRatingTask_S5,2021.1.4,Win32,59.94125757,0,24,24,80,1,DreamStudyImages_rs1000x750g/Vehicles/IAPS7037_train2.jpg,,,,,,,,,,,
,,num_3,4.4621,num_4,2.7206,num_9,1.1471,num_1,0.8006,num_2,1.2644,0,0,0,0,1,main,10,33,female,R,IMT,2021-07-16_23h30.26.299,ImageRatingTask_S5,2021.1.4,Win32,59.94125757,,,,,,,,,,,,,,,,,
,,,,,,,,,,,,0,1,1,1,1,second,10,33,female,R,IMT,2021-07-16_23h30.26.299,ImageRatingTask_S5,2021.1.4,Win32,59.94125757,,,,,,,,,,,,,,,,,
,,,,,,,,,,,,0,2,2,2,1,third,10,33,female,R,IMT,2021-07-16_23h30.26.299,ImageRatingTask_S5,2021.1.4,Win32,59.94125757,,,,,,,,,,,,,,,,,
,,,,,,,,,,,,0,3,3,3,1,fourth,10,33,female,R,IMT,2021-07-16_23h30.26.299,ImageRatingTask_S5,2021.1.4,Win32,59.94125757,,,,,,,,,,,,,,,,,
,,,,,,,,,,,,0,4,4,4,1,fifth,10,33,female,R,IMT,2021-07-16_23h30.26.299,ImageRatingTask_S5,2021.1.4,Win32,59.94125757,,,,,,,,,,,,,,,,,
,,,,,,,,,,,,0,5,5,5,1,sixth,10,33,female,R,IMT,2021-07-16_23h30.26.299,ImageRatingTask_S5,2021.1.4,Win32,59.94125757,,,,,,,,,,,,,,,,,
,,,,,,,,,,,,0,6,6,6,1,seventh,10,33,female,R,IMT,2021-07-16_23h30.26.299,ImageRatingTask_S5,2021.1.4,Win32,59.94125757,,,,,,,,,,,,,,,,,
,,,,,,,,,,,,0,7,7,7,1,last,10,33,female,R,IMT,2021-07-16_23h30.26.299,ImageRatingTask_S5,2021.1.4,Win32,59.94125757,,,,,,,,,,,,,,,,,
,,,,,,,,,,,,,,,,,,10,33,female,R,IMT,2021-07-16_23h30.26.299,ImageRatingTask_S5,2021.1.4,Win32,59.94125757,0,25,25,68,1,DreamStudyImages_rs1000x750g/Children/Sad face 8.jpg,,,,,,,,,,,
,,num_7,6.4574,num_1,0.7195,num_9,0.4556,num_1,0.3691,num_6,1.4978,0,0,0,0,1,main,10,33,female,R,IMT,2021-07-16_23h30.26.299,ImageRatingTask_S5,2021.1.4,Win32,59.94125757,,,,,,,,,,,,,,,,,
,,,,,,,,,,,,0,1,1,1,1,second,10,33,female,R,IMT,2021-07-16_23h30.26.299,ImageRatingTask_S5,2021.1.4,Win32,59.94125757,,,,,,,,,,,,,,,,,
,,,,,,,,,,,,0,2,2,2,1,third,10,33,female,R,IMT,2021-07-16_23h30.26.299,ImageRatingTask_S5,2021.1.4,Win32,59.94125757,,,,,,,,,,,,,,,,,
,,,,,,,,,,,,0,3,3,3,1,fourth,10,33,female,R,IMT,2021-07-16_23h30.26.299,ImageRatingTask_S5,2021.1.4,Win32,59.94125757,,,,,,,,,,,,,,,,,
,,,,,,,,,,,,0,4,4,4,1,fifth,10,33,female,R,IMT,2021-07-16_23h30.26.299,ImageRatingTask_S5,2021.1.4,Win32,59.94125757,,,,,,,,,,,,,,,,,
,,,,,,,,,,,,0,5,5,5,1,sixth,10,33,female,R,IMT,2021-07-16_23h30.26.299,ImageRatingTask_S5,2021.1.4,Win32,59.94125757,,,,,,,,,,,,,,,,,
,,,,,,,,,,,,0,6,6,6,1,seventh,10,33,female,R,IMT,2021-07-16_23h30.26.299,ImageRatingTask_S5,2021.1.4,Win32,59.94125757,,,,,,,,,,,,,,,,,
,,,,,,,,,,,,0,7,7,7,1,last,10,33,female,R,IMT,2021-07-16_23h30.26.299,ImageRatingTask_S5,2021.1.4,Win32,59.94125757,,,,,,,,,,,,,,,,,
,,,,,,,,,,,,,,,,,,10,33,female,R,IMT,2021-07-16_23h30.26.299,ImageRatingTask_S5,2021.1.4,Win32,59.94125757,0,26,26,2,1,DreamStudyImages_rs1000x750g/Houses/IAPS5779_house3.jpg,,,,,,,,,,,
,,num_5,3.6746,num_1,0.2377,num_9,1.8347,num_0,0.4666,,,0,0,0,0,1,main,10,33,female,R,IMT,2021-07-16_23h30.26.299,ImageRatingTask_S5,2021.1.4,Win32,59.94125757,,,,,,,,,,,,,,,,,
,,,,,,,,,,,,0,1,1,1,1,second,10,33,female,R,IMT,2021-07-16_23h30.26.299,ImageRatingTask_S5,2021.1.4,Win32,59.94125757,,,,,,,,,,,,,,,,,
,,,,,,,,,,,,0,2,2,2,1,third,10,33,female,R,IMT,2021-07-16_23h30.26.299,ImageRatingTask_S5,2021.1.4,Win32,59.94125757,,,,,,,,,,,,,,,,,
,,,,,,,,,,,,0,3,3,3,1,fourth,10,33,female,R,IMT,2021-07-16_23h30.26.299,ImageRatingTask_S5,2021.1.4,Win32,59.94125757,,,,,,,,,,,,,,,,,
,,,,,,,,,,,,0,4,4,4,1,fifth,10,33,female,R,IMT,2021-07-16_23h30.26.299,ImageRatingTask_S5,2021.1.4,Win32,59.94125757,,,,,,,,,,,,,,,,,
,,,,,,,,,,,,0,5,5,5,1,sixth,10,33,female,R,IMT,2021-07-16_23h30.26.299,ImageRatingTask_S5,2021.1.4,Win32,59.94125757,,,,,,,,,,,,,,,,,
,,,,,,,,,,,,0,6,6,6,1,seventh,10,33,female,R,IMT,2021-07-16_23h30.26.299,ImageRatingTask_S5,2021.1.4,Win32,59.94125757,,,,,,,,,,,,,,,,,
,,,,,,,,,,,,0,7,7,7,1,last,10,33,female,R,IMT,2021-07-16_23h30.26.299,ImageRatingTask_S5,2021.1.4,Win32,59.94125757,,,,,,,,,,,,,,,,,
,,,,,,,,,,,,,,,,,,10,33,female,R,IMT,2021-07-16_23h30.26.299,ImageRatingTask_S5,2021.1.4,Win32,59.94125757,0,27,27,57,1,DreamStudyImages_rs1000x750g/Houses/Objects_130_h.jpg,,,,,,,,,,,
,,num_4,4.3106,num_2,0.9255,num_7,2.416,num_1,1.0269,num_7,0.8777,0,0,0,0,1,main,10,33,female,R,IMT,2021-07-16_23h30.26.299,ImageRatingTask_S5,2021.1.4,Win32,59.94125757,,,,,,,,,,,,,,,,,
,,,,,,,,,,,,0,1,1,1,1,second,10,33,female,R,IMT,2021-07-16_23h30.26.299,ImageRatingTask_S5,2021.1.4,Win32,59.94125757,,,,,,,,,,,,,,,,,
,,,,,,,,,,,,0,2,2,2,1,third,10,33,female,R,IMT,2021-07-16_23h30.26.299,ImageRatingTask_S5,2021.1.4,Win32,59.94125757,,,,,,,,,,,,,,,,,
,,,,,,,,,,,,0,3,3,3,1,fourth,10,33,female,R,IMT,2021-07-16_23h30.26.299,ImageRatingTask_S5,2021.1.4,Win32,59.94125757,,,,,,,,,,,,,,,,,
,,,,,,,,,,,,0,4,4,4,1,fifth,10,33,female,R,IMT,2021-07-16_23h30.26.299,ImageRatingTask_S5,2021.1.4,Win32,59.94125757,,,,,,,,,,,,,,,,,
,,,,,,,,,,,,0,5,5,5,1,sixth,10,33,female,R,IMT,2021-07-16_23h30.26.299,ImageRatingTask_S5,2021.1.4,Win32,59.94125757,,,,,,,,,,,,,,,,,
,,,,,,,,,,,,0,6,6,6,1,seventh,10,33,female,R,IMT,2021-07-16_23h30.26.299,ImageRatingTask_S5,2021.1.4,Win32,59.94125757,,,,,,,,,,,,,,,,,
,,,,,,,,,,,,0,7,7,7,1,last,10,33,female,R,IMT,2021-07-16_23h30.26.299,ImageRatingTask_S5,2021.1.4,Win32,59.94125757,,,,,,,,,,,,,,,,,
,,,,,,,,,,,,,,,,,,10,33,female,R,IMT,2021-07-16_23h30.26.299,ImageRatingTask_S5,2021.1.4,Win32,59.94125757,0,28,28,134,1,DreamStudyImages_rs1000x750g/Vehicles/IAPS6910_aircraft.jpg,,,,,,,,,,,
,,num_5,22.754,num_1,0.2754,num_9,0.6247,num_1,1.7686,num_2,0.6436,0,0,0,0,1,main,10,33,female,R,IMT,2021-07-16_23h30.26.299,ImageRatingTask_S5,2021.1.4,Win32,59.94125757,,,,,,,,,,,,,,,,,
,,,,,,,,,,,,0,1,1,1,1,second,10,33,female,R,IMT,2021-07-16_23h30.26.299,ImageRatingTask_S5,2021.1.4,Win32,59.94125757,,,,,,,,,,,,,,,,,
,,,,,,,,,,,,0,2,2,2,1,third,10,33,female,R,IMT,2021-07-16_23h30.26.299,ImageRatingTask_S5,2021.1.4,Win32,59.94125757,,,,,,,,,,,,,,,,,
,,,,,,,,,,,,0,3,3,3,1,fourth,10,33,female,R,IMT,2021-07-16_23h30.26.299,ImageRatingTask_S5,2021.1.4,Win32,59.94125757,,,,,,,,,,,,,,,,,
,,,,,,,,,,,,0,4,4,4,1,fifth,10,33,female,R,IMT,2021-07-16_23h30.26.299,ImageRatingTask_S5,2021.1.4,Win32,59.94125757,,,,,,,,,,,,,,,,,
,,,,,,,,,,,,0,5,5,5,1,sixth,10,33,female,R,IMT,2021-07-16_23h30.26.299,ImageRatingTask_S5,2021.1.4,Win32,59.94125757,,,,,,,,,,,,,,,,,
,,,,,,,,,,,,0,6,6,6,1,seventh,10,33,female,R,IMT,2021-07-16_23h30.26.299,ImageRatingTask_S5,2021.1.4,Win32,59.94125757,,,,,,,,,,,,,,,,,
,,,,,,,,,,,,0,7,7,7,1,last,10,33,female,R,IMT,2021-07-16_23h30.26.299,ImageRatingTask_S5,2021.1.4,Win32,59.94125757,,,,,,,,,,,,,,,,,
,,,,,,,,,,,,,,,,,,10,33,female,R,IMT,2021-07-16_23h30.26.299,ImageRatingTask_S5,2021.1.4,Win32,59.94125757,0,29,29,23,1,DreamStudyImages_rs1000x750g/Children/Faces_039_h.jpg,,,,,,,,,,,
,,num_2,12.4584,num_8,0.484,num_1,0.3945,num_1,0.8275,num_3,1.2977,0,0,0,0,1,main,10,33,female,R,IMT,2021-07-16_23h30.26.299,ImageRatingTask_S5,2021.1.4,Win32,59.94125757,,,,,,,,,,,,,,,,,
,,,,,,,,,,,,0,1,1,1,1,second,10,33,female,R,IMT,2021-07-16_23h30.26.299,ImageRatingTask_S5,2021.1.4,Win32,59.94125757,,,,,,,,,,,,,,,,,
,,,,,,,,,,,,0,2,2,2,1,third,10,33,female,R,IMT,2021-07-16_23h30.26.299,ImageRatingTask_S5,2021.1.4,Win32,59.94125757,,,,,,,,,,,,,,,,,
,,,,,,,,,,,,0,3,3,3,1,fourth,10,33,female,R,IMT,2021-07-16_23h30.26.299,ImageRatingTask_S5,2021.1.4,Win32,59.94125757,,,,,,,,,,,,,,,,,
,,,,,,,,,,,,0,4,4,4,1,fifth,10,33,female,R,IMT,2021-07-16_23h30.26.299,ImageRatingTask_S5,2021.1.4,Win32,59.94125757,,,,,,,,,,,,,,,,,
,,,,,,,,,,,,0,5,5,5,1,sixth,10,33,female,R,IMT,2021-07-16_23h30.26.299,ImageRatingTask_S5,2021.1.4,Win32,59.94125757,,,,,,,,,,,,,,,,,
,,,,,,,,,,,,0,6,6,6,1,seventh,10,33,female,R,IMT,2021-07-16_23h30.26.299,ImageRatingTask_S5,2021.1.4,Win32,59.94125757,,,,,,,,,,,,,,,,,
,,,,,,,,,,,,0,7,7,7,1,last,10,33,female,R,IMT,2021-07-16_23h30.26.299,ImageRatingTask_S5,2021.1.4,Win32,59.94125757,,,,,,,,,,,,,,,,,
,,,,,,,,,,,,,,,,,,10,33,female,R,IMT,2021-07-16_23h30.26.299,ImageRatingTask_S5,2021.1.4,Win32,59.94125757,0,30,30,37,1,DreamStudyImages_rs1000x750g/Mammals/Animals_013_h.jpg,,,,,,,,,,,
,,num_6,14.5565,num_2,0.5884,num_9,0.7049,num_1,0.8934,num_3,0.271,0,0,0,0,1,main,10,33,female,R,IMT,2021-07-16_23h30.26.299,ImageRatingTask_S5,2021.1.4,Win32,59.94125757,,,,,,,,,,,,,,,,,
,,,,,,,,,,,,0,1,1,1,1,second,10,33,female,R,IMT,2021-07-16_23h30.26.299,ImageRatingTask_S5,2021.1.4,Win32,59.94125757,,,,,,,,,,,,,,,,,
,,,,,,,,,,,,0,2,2,2,1,third,10,33,female,R,IMT,2021-07-16_23h30.26.299,ImageRatingTask_S5,2021.1.4,Win32,59.94125757,,,,,,,,,,,,,,,,,
,,,,,,,,,,,,0,3,3,3,1,fourth,10,33,female,R,IMT,2021-07-16_23h30.26.299,ImageRatingTask_S5,2021.1.4,Win32,59.94125757,,,,,,,,,,,,,,,,,
,,,,,,,,,,,,0,4,4,4,1,fifth,10,33,female,R,IMT,2021-07-16_23h30.26.299,ImageRatingTask_S5,2021.1.4,Win32,59.94125757,,,,,,,,,,,,,,,,,
,,,,,,,,,,,,0,5,5,5,1,sixth,10,33,female,R,IMT,2021-07-16_23h30.26.299,ImageRatingTask_S5,2021.1.4,Win32,59.94125757,,,,,,,,,,,,,,,,,
,,,,,,,,,,,,0,6,6,6,1,seventh,10,33,female,R,IMT,2021-07-16_23h30.26.299,ImageRatingTask_S5,2021.1.4,Win32,59.94125757,,,,,,,,,,,,,,,,,
,,,,,,,,,,,,0,7,7,7,1,last,10,33,female,R,IMT,2021-07-16_23h30.26.299,ImageRatingTask_S5,2021.1.4,Win32,59.94125757,,,,,,,,,,,,,,,,,
,,,,,,,,,,,,,,,,,,10,33,female,R,IMT,2021-07-16_23h30.26.299,ImageRatingTask_S5,2021.1.4,Win32,59.94125757,0,31,31,41,1,DreamStudyImages_rs1000x750g/Mammals/IAPS1600_horse3.jpg,,,,,,,,,,,
,,num_6,6.8832,num_2,0.3449,num_9,0.5591,num_1,0.3808,num_3,0.6201,0,0,0,0,1,main,10,33,female,R,IMT,2021-07-16_23h30.26.299,ImageRatingTask_S5,2021.1.4,Win32,59.94125757,,,,,,,,,,,,,,,,,
,,,,,,,,,,,,0,1,1,1,1,second,10,33,female,R,IMT,2021-07-16_23h30.26.299,ImageRatingTask_S5,2021.1.4,Win32,59.94125757,,,,,,,,,,,,,,,,,
,,,,,,,,,,,,0,2,2,2,1,third,10,33,female,R,IMT,2021-07-16_23h30.26.299,ImageRatingTask_S5,2021.1.4,Win32,59.94125757,,,,,,,,,,,,,,,,,
,,,,,,,,,,,,0,3,3,3,1,fourth,10,33,female,R,IMT,2021-07-16_23h30.26.299,ImageRatingTask_S5,2021.1.4,Win32,59.94125757,,,,,,,,,,,,,,,,,
,,,,,,,,,,,,0,4,4,4,1,fifth,10,33,female,R,IMT,2021-07-16_23h30.26.299,ImageRatingTask_S5,2021.1.4,Win32,59.94125757,,,,,,,,,,,,,,,,,
,,,,,,,,,,,,0,5,5,5,1,sixth,10,33,female,R,IMT,2021-07-16_23h30.26.299,ImageRatingTask_S5,2021.1.4,Win32,59.94125757,,,,,,,,,,,,,,,,,
,,,,,,,,,,,,0,6,6,6,1,seventh,10,33,female,R,IMT,2021-07-16_23h30.26.299,ImageRatingTask_S5,2021.1.4,Win32,59.94125757,,,,,,,,,,,,,,,,,
,,,,,,,,,,,,0,7,7,7,1,last,10,33,female,R,IMT,2021-07-16_23h30.26.299,ImageRatingTask_S5,2021.1.4,Win32,59.94125757,,,,,,,,,,,,,,,,,
,,,,,,,,,,,,,,,,,,10,33,female,R,IMT,2021-07-16_23h30.26.299,ImageRatingTask_S5,2021.1.4,Win32,59.94125757,0,32,32,32,1,DreamStudyImages_rs1000x750g/Mammals/Animals_124_v.jpg,,,,,,,,,,,
,,num_6,2.0592,num_2,1.3378,num_9,3.0399,num_1,0.9295,num_5,1.0098,0,0,0,0,1,main,10,33,female,R,IMT,2021-07-16_23h30.26.299,ImageRatingTask_S5,2021.1.4,Win32,59.94125757,,,,,,,,,,,,,,,,,
,,,,,,,,,,,,0,1,1,1,1,second,10,33,female,R,IMT,2021-07-16_23h30.26.299,ImageRatingTask_S5,2021.1.4,Win32,59.94125757,,,,,,,,,,,,,,,,,
,,,,,,,,,,,,0,2,2,2,1,third,10,33,female,R,IMT,2021-07-16_23h30.26.299,ImageRatingTask_S5,2021.1.4,Win32,59.94125757,,,,,,,,,,,,,,,,,
,,,,,,,,,,,,0,3,3,3,1,fourth,10,33,female,R,IMT,2021-07-16_23h30.26.299,ImageRatingTask_S5,2021.1.4,Win32,59.94125757,,,,,,,,,,,,,,,,,
,,,,,,,,,,,,0,4,4,4,1,fifth,10,33,female,R,IMT,2021-07-16_23h30.26.299,ImageRatingTask_S5,2021.1.4,Win32,59.94125757,,,,,,,,,,,,,,,,,
,,,,,,,,,,,,0,5,5,5,1,sixth,10,33,female,R,IMT,2021-07-16_23h30.26.299,ImageRatingTask_S5,2021.1.4,Win32,59.94125757,,,,,,,,,,,,,,,,,
,,,,,,,,,,,,0,6,6,6,1,seventh,10,33,female,R,IMT,2021-07-16_23h30.26.299,ImageRatingTask_S5,2021.1.4,Win32,59.94125757,,,,,,,,,,,,,,,,,
,,,,,,,,,,,,0,7,7,7,1,last,10,33,female,R,IMT,2021-07-16_23h30.26.299,ImageRatingTask_S5,2021.1.4,Win32,59.94125757,,,,,,,,,,,,,,,,,
,,,,,,,,,,,,,,,,,,10,33,female,R,IMT,2021-07-16_23h30.26.299,ImageRatingTask_S5,2021.1.4,Win32,59.94125757,0,33,33,102,1,DreamStudyImages_rs1000x750g/Food/Food 1.jpg,,,,,,,,,,,
,,num_7,1.9986,num_1,0.6206,num_9,0.3913,num_1,0.7694,num_8,0.9044,0,0,0,0,1,main,10,33,female,R,IMT,2021-07-16_23h30.26.299,ImageRatingTask_S5,2021.1.4,Win32,59.94125757,,,,,,,,,,,,,,,,,
,,,,,,,,,,,,0,1,1,1,1,second,10,33,female,R,IMT,2021-07-16_23h30.26.299,ImageRatingTask_S5,2021.1.4,Win32,59.94125757,,,,,,,,,,,,,,,,,
,,,,,,,,,,,,0,2,2,2,1,third,10,33,female,R,IMT,2021-07-16_23h30.26.299,ImageRatingTask_S5,2021.1.4,Win32,59.94125757,,,,,,,,,,,,,,,,,
,,,,,,,,,,,,0,3,3,3,1,fourth,10,33,female,R,IMT,2021-07-16_23h30.26.299,ImageRatingTask_S5,2021.1.4,Win32,59.94125757,,,,,,,,,,,,,,,,,
,,,,,,,,,,,,0,4,4,4,1,fifth,10,33,female,R,IMT,2021-07-16_23h30.26.299,ImageRatingTask_S5,2021.1.4,Win32,59.94125757,,,,,,,,,,,,,,,,,
,,,,,,,,,,,,0,5,5,5,1,sixth,10,33,female,R,IMT,2021-07-16_23h30.26.299,ImageRatingTask_S5,2021.1.4,Win32,59.94125757,,,,,,,,,,,,,,,,,
,,,,,,,,,,,,0,6,6,6,1,seventh,10,33,female,R,IMT,2021-07-16_23h30.26.299,ImageRatingTask_S5,2021.1.4,Win32,59.94125757,,,,,,,,,,,,,,,,,
,,,,,,,,,,,,0,7,7,7,1,last,10,33,female,R,IMT,2021-07-16_23h30.26.299,ImageRatingTask_S5,2021.1.4,Win32,59.94125757,,,,,,,,,,,,,,,,,
,,,,,,,,,,,,,,,,,,10,33,female,R,IMT,2021-07-16_23h30.26.299,ImageRatingTask_S5,2021.1.4,Win32,59.94125757,0,34,34,131,1,DreamStudyImages_rs1000x750g/Water/Sunset 3.jpg,,,,,,,,,,,
,,num_4,5.174,num_2,2,num_9,0.6067,num_1,1.1434,num_7,2.1431,0,0,0,0,1,main,10,33,female,R,IMT,2021-07-16_23h30.26.299,ImageRatingTask_S5,2021.1.4,Win32,59.94125757,,,,,,,,,,,,,,,,,
,,,,,,,,,,,,0,1,1,1,1,second,10,33,female,R,IMT,2021-07-16_23h30.26.299,ImageRatingTask_S5,2021.1.4,Win32,59.94125757,,,,,,,,,,,,,,,,,
,,,,,,,,,,,,0,2,2,2,1,third,10,33,female,R,IMT,2021-07-16_23h30.26.299,ImageRatingTask_S5,2021.1.4,Win32,59.94125757,,,,,,,,,,,,,,,,,
,,,,,,,,,,,,0,3,3,3,1,fourth,10,33,female,R,IMT,2021-07-16_23h30.26.299,ImageRatingTask_S5,2021.1.4,Win32,59.94125757,,,,,,,,,,,,,,,,,
,,,,,,,,,,,,0,4,4,4,1,fifth,10,33,female,R,IMT,2021-07-16_23h30.26.299,ImageRatingTask_S5,2021.1.4,Win32,59.94125757,,,,,,,,,,,,,,,,,
,,,,,,,,,,,,0,5,5,5,1,sixth,10,33,female,R,IMT,2021-07-16_23h30.26.299,ImageRatingTask_S5,2021.1.4,Win32,59.94125757,,,,,,,,,,,,,,,,,
,,,,,,,,,,,,0,6,6,6,1,seventh,10,33,female,R,IMT,2021-07-16_23h30.26.299,ImageRatingTask_S5,2021.1.4,Win32,59.94125757,,,,,,,,,,,,,,,,,
,,,,,,,,,,,,0,7,7,7,1,last,10,33,female,R,IMT,2021-07-16_23h30.26.299,ImageRatingTask_S5,2021.1.4,Win32,59.94125757,,,,,,,,,,,,,,,,,
,,,,,,,,,,,,,,,,,,10,33,female,R,IMT,2021-07-16_23h30.26.299,ImageRatingTask_S5,2021.1.4,Win32,59.94125757,0,35,35,66,1,DreamStudyImages_rs1000x750g/Vehicles/Destruction 10.jpg,,,,,,,,,,,
,,num_4,4.9197,num_4,2.5614,num_9,0.6459,num_1,1.0102,num_7,0.5732,0,0,0,0,1,main,10,33,female,R,IMT,2021-07-16_23h30.26.299,ImageRatingTask_S5,2021.1.4,Win32,59.94125757,,,,,,,,,,,,,,,,,
,,,,,,,,,,,,0,1,1,1,1,second,10,33,female,R,IMT,2021-07-16_23h30.26.299,ImageRatingTask_S5,2021.1.4,Win32,59.94125757,,,,,,,,,,,,,,,,,
,,,,,,,,,,,,0,2,2,2,1,third,10,33,female,R,IMT,2021-07-16_23h30.26.299,ImageRatingTask_S5,2021.1.4,Win32,59.94125757,,,,,,,,,,,,,,,,,
,,,,,,,,,,,,0,3,3,3,1,fourth,10,33,female,R,IMT,2021-07-16_23h30.26.299,ImageRatingTask_S5,2021.1.4,Win32,59.94125757,,,,,,,,,,,,,,,,,
,,,,,,,,,,,,0,4,4,4,1,fifth,10,33,female,R,IMT,2021-07-16_23h30.26.299,ImageRatingTask_S5,2021.1.4,Win32,59.94125757,,,,,,,,,,,,,,,,,
,,,,,,,,,,,,0,5,5,5,1,sixth,10,33,female,R,IMT,2021-07-16_23h30.26.299,ImageRatingTask_S5,2021.1.4,Win32,59.94125757,,,,,,,,,,,,,,,,,
,,,,,,,,,,,,0,6,6,6,1,seventh,10,33,female,R,IMT,2021-07-16_23h30.26.299,ImageRatingTask_S5,2021.1.4,Win32,59.94125757,,,,,,,,,,,,,,,,,
,,,,,,,,,,,,0,7,7,7,1,last,10,33,female,R,IMT,2021-07-16_23h30.26.299,ImageRatingTask_S5,2021.1.4,Win32,59.94125757,,,,,,,,,,,,,,,,,
,,,,,,,,,,,,,,,,,,10,33,female,R,IMT,2021-07-16_23h30.26.299,ImageRatingTask_S5,2021.1.4,Win32,59.94125757,0,36,36,148,1,DreamStudyImages_rs1000x750g/Vehicles/9904.jpg,,,,,,,,,,,
,,num_2,4.6061,num_7,1.8534,num_9,2.2928,num_1,1.6673,num_5,0.7545,0,0,0,0,1,main,10,33,female,R,IMT,2021-07-16_23h30.26.299,ImageRatingTask_S5,2021.1.4,Win32,59.94125757,,,,,,,,,,,,,,,,,
,,,,,,,,,,,,0,1,1,1,1,second,10,33,female,R,IMT,2021-07-16_23h30.26.299,ImageRatingTask_S5,2021.1.4,Win32,59.94125757,,,,,,,,,,,,,,,,,
,,,,,,,,,,,,0,2,2,2,1,third,10,33,female,R,IMT,2021-07-16_23h30.26.299,ImageRatingTask_S5,2021.1.4,Win32,59.94125757,,,,,,,,,,,,,,,,,
,,,,,,,,,,,,0,3,3,3,1,fourth,10,33,female,R,IMT,2021-07-16_23h30.26.299,ImageRatingTask_S5,2021.1.4,Win32,59.94125757,,,,,,,,,,,,,,,,,
,,,,,,,,,,,,0,4,4,4,1,fifth,10,33,female,R,IMT,2021-07-16_23h30.26.299,ImageRatingTask_S5,2021.1.4,Win32,59.94125757,,,,,,,,,,,,,,,,,
,,,,,,,,,,,,0,5,5,5,1,sixth,10,33,female,R,IMT,2021-07-16_23h30.26.299,ImageRatingTask_S5,2021.1.4,Win32,59.94125757,,,,,,,,,,,,,,,,,
,,,,,,,,,,,,0,6,6,6,1,seventh,10,33,female,R,IMT,2021-07-16_23h30.26.299,ImageRatingTask_S5,2021.1.4,Win32,59.94125757,,,,,,,,,,,,,,,,,
,,,,,,,,,,,,0,7,7,7,1,last,10,33,female,R,IMT,2021-07-16_23h30.26.299,ImageRatingTask_S5,2021.1.4,Win32,59.94125757,,,,,,,,,,,,,,,,,
,,,,,,,,,,,,,,,,,,10,33,female,R,IMT,2021-07-16_23h30.26.299,ImageRatingTask_S5,2021.1.4,Win32,59.94125757,0,37,37,132,1,DreamStudyImages_rs1000x750g/Food/food_neg_5.jpg,,,,,,,,,,,
,,num_5,4.6062,num_1,0.4596,num_9,0.6603,num_1,0.9078,num_3,0.3668,0,0,0,0,1,main,10,33,female,R,IMT,2021-07-16_23h30.26.299,ImageRatingTask_S5,2021.1.4,Win32,59.94125757,,,,,,,,,,,,,,,,,
,,,,,,,,,,,,0,1,1,1,1,second,10,33,female,R,IMT,2021-07-16_23h30.26.299,ImageRatingTask_S5,2021.1.4,Win32,59.94125757,,,,,,,,,,,,,,,,,
,,,,,,,,,,,,0,2,2,2,1,third,10,33,female,R,IMT,2021-07-16_23h30.26.299,ImageRatingTask_S5,2021.1.4,Win32,59.94125757,,,,,,,,,,,,,,,,,
,,,,,,,,,,,,0,3,3,3,1,fourth,10,33,female,R,IMT,2021-07-16_23h30.26.299,ImageRatingTask_S5,2021.1.4,Win32,59.94125757,,,,,,,,,,,,,,,,,
,,,,,,,,,,,,0,4,4,4,1,fifth,10,33,female,R,IMT,2021-07-16_23h30.26.299,ImageRatingTask_S5,2021.1.4,Win32,59.94125757,,,,,,,,,,,,,,,,,
,,,,,,,,,,,,0,5,5,5,1,sixth,10,33,female,R,IMT,2021-07-16_23h30.26.299,ImageRatingTask_S5,2021.1.4,Win32,59.94125757,,,,,,,,,,,,,,,,,
,,,,,,,,,,,,0,6,6,6,1,seventh,10,33,female,R,IMT,2021-07-16_23h30.26.299,ImageRatingTask_S5,2021.1.4,Win32,59.94125757,,,,,,,,,,,,,,,,,
,,,,,,,,,,,,0,7,7,7,1,last,10,33,female,R,IMT,2021-07-16_23h30.26.299,ImageRatingTask_S5,2021.1.4,Win32,59.94125757,,,,,,,,,,,,,,,,,
,,,,,,,,,,,,,,,,,,10,33,female,R,IMT,2021-07-16_23h30.26.299,ImageRatingTask_S5,2021.1.4,Win32,59.94125757,0,38,38,136,1,DreamStudyImages_rs1000x750g/Mammals/IAPS1302_dog3.jpg,,,,,,,,,,,
,,num_5,0.936,num_1,0.2042,num_9,0.2685,num_1,1.0231,num_7,0.7754,0,0,0,0,1,main,10,33,female,R,IMT,2021-07-16_23h30.26.299,ImageRatingTask_S5,2021.1.4,Win32,59.94125757,,,,,,,,,,,,,,,,,
,,,,,,,,,,,,0,1,1,1,1,second,10,33,female,R,IMT,2021-07-16_23h30.26.299,ImageRatingTask_S5,2021.1.4,Win32,59.94125757,,,,,,,,,,,,,,,,,
,,,,,,,,,,,,0,2,2,2,1,third,10,33,female,R,IMT,2021-07-16_23h30.26.299,ImageRatingTask_S5,2021.1.4,Win32,59.94125757,,,,,,,,,,,,,,,,,
,,,,,,,,,,,,0,3,3,3,1,fourth,10,33,female,R,IMT,2021-07-16_23h30.26.299,ImageRatingTask_S5,2021.1.4,Win32,59.94125757,,,,,,,,,,,,,,,,,
,,,,,,,,,,,,0,4,4,4,1,fifth,10,33,female,R,IMT,2021-07-16_23h30.26.299,ImageRatingTask_S5,2021.1.4,Win32,59.94125757,,,,,,,,,,,,,,,,,
,,,,,,,,,,,,0,5,5,5,1,sixth,10,33,female,R,IMT,2021-07-16_23h30.26.299,ImageRatingTask_S5,2021.1.4,Win32,59.94125757,,,,,,,,,,,,,,,,,
,,,,,,,,,,,,0,6,6,6,1,seventh,10,33,female,R,IMT,2021-07-16_23h30.26.299,ImageRatingTask_S5,2021.1.4,Win32,59.94125757,,,,,,,,,,,,,,,,,
,,,,,,,,,,,,0,7,7,7,1,last,10,33,female,R,IMT,2021-07-16_23h30.26.299,ImageRatingTask_S5,2021.1.4,Win32,59.94125757,,,,,,,,,,,,,,,,,
,,,,,,,,,,,,,,,,,,10,33,female,R,IMT,2021-07-16_23h30.26.299,ImageRatingTask_S5,2021.1.4,Win32,59.94125757,0,39,39,27,1,DreamStudyImages_rs1000x750g/Vehicles/Objects_304_h.jpg,,,,,,,,,,,
,,num_5,4.1477,num_1,0.1586,num_9,0.5279,num_1,1.6574,num_6,0.7449,0,0,0,0,1,main,10,33,female,R,IMT,2021-07-16_23h30.26.299,ImageRatingTask_S5,2021.1.4,Win32,59.94125757,,,,,,,,,,,,,,,,,
,,,,,,,,,,,,0,1,1,1,1,second,10,33,female,R,IMT,2021-07-16_23h30.26.299,ImageRatingTask_S5,2021.1.4,Win32,59.94125757,,,,,,,,,,,,,,,,,
,,,,,,,,,,,,0,2,2,2,1,third,10,33,female,R,IMT,2021-07-16_23h30.26.299,ImageRatingTask_S5,2021.1.4,Win32,59.94125757,,,,,,,,,,,,,,,,,
,,,,,,,,,,,,0,3,3,3,1,fourth,10,33,female,R,IMT,2021-07-16_23h30.26.299,ImageRatingTask_S5,2021.1.4,Win32,59.94125757,,,,,,,,,,,,,,,,,
,,,,,,,,,,,,0,4,4,4,1,fifth,10,33,female,R,IMT,2021-07-16_23h30.26.299,ImageRatingTask_S5,2021.1.4,Win32,59.94125757,,,,,,,,,,,,,,,,,
,,,,,,,,,,,,0,5,5,5,1,sixth,10,33,female,R,IMT,2021-07-16_23h30.26.299,ImageRatingTask_S5,2021.1.4,Win32,59.94125757,,,,,,,,,,,,,,,,,
,,,,,,,,,,,,0,6,6,6,1,seventh,10,33,female,R,IMT,2021-07-16_23h30.26.299,ImageRatingTask_S5,2021.1.4,Win32,59.94125757,,,,,,,,,,,,,,,,,
,,,,,,,,,,,,0,7,7,7,1,last,10,33,female,R,IMT,2021-07-16_23h30.26.299,ImageRatingTask_S5,2021.1.4,Win32,59.94125757,,,,,,,,,,,,,,,,,
,,,,,,,,,,,,,,,,,,10,33,female,R,IMT,2021-07-16_23h30.26.299,ImageRatingTask_S5,2021.1.4,Win32,59.94125757,0,40,40,65,1,DreamStudyImages_rs1000x750g/Houses/Landscapes_058_h_CROPPED.jpg,,,,,,,,,,,
,,num_5,5.1979,num_1,0.1963,num_9,0.5449,num_1,0.9264,num_7,1.1267,0,0,0,0,1,main,10,33,female,R,IMT,2021-07-16_23h30.26.299,ImageRatingTask_S5,2021.1.4,Win32,59.94125757,,,,,,,,,,,,,,,,,
,,,,,,,,,,,,0,1,1,1,1,second,10,33,female,R,IMT,2021-07-16_23h30.26.299,ImageRatingTask_S5,2021.1.4,Win32,59.94125757,,,,,,,,,,,,,,,,,
,,,,,,,,,,,,0,2,2,2,1,third,10,33,female,R,IMT,2021-07-16_23h30.26.299,ImageRatingTask_S5,2021.1.4,Win32,59.94125757,,,,,,,,,,,,,,,,,
,,,,,,,,,,,,0,3,3,3,1,fourth,10,33,female,R,IMT,2021-07-16_23h30.26.299,ImageRatingTask_S5,2021.1.4,Win32,59.94125757,,,,,,,,,,,,,,,,,
,,,,,,,,,,,,0,4,4,4,1,fifth,10,33,female,R,IMT,2021-07-16_23h30.26.299,ImageRatingTask_S5,2021.1.4,Win32,59.94125757,,,,,,,,,,,,,,,,,
,,,,,,,,,,,,0,5,5,5,1,sixth,10,33,female,R,IMT,2021-07-16_23h30.26.299,ImageRatingTask_S5,2021.1.4,Win32,59.94125757,,,,,,,,,,,,,,,,,
,,,,,,,,,,,,0,6,6,6,1,seventh,10,33,female,R,IMT,2021-07-16_23h30.26.299,ImageRatingTask_S5,2021.1.4,Win32,59.94125757,,,,,,,,,,,,,,,,,
,,,,,,,,,,,,0,7,7,7,1,last,10,33,female,R,IMT,2021-07-16_23h30.26.299,ImageRatingTask_S5,2021.1.4,Win32,59.94125757,,,,,,,,,,,,,,,,,
,,,,,,,,,,,,,,,,,,10,33,female,R,IMT,2021-07-16_23h30.26.299,ImageRatingTask_S5,2021.1.4,Win32,59.94125757,0,41,41,42,1,DreamStudyImages_rs1000x750g/Vehicles/Objects_002_h.jpg,,,,,,,,,,,
,,num_5,1.2321,num_1,0.2027,num_9,0.4598,num_1,1.6181,num_6,0.6932,0,0,0,0,1,main,10,33,female,R,IMT,2021-07-16_23h30.26.299,ImageRatingTask_S5,2021.1.4,Win32,59.94125757,,,,,,,,,,,,,,,,,
,,,,,,,,,,,,0,1,1,1,1,second,10,33,female,R,IMT,2021-07-16_23h30.26.299,ImageRatingTask_S5,2021.1.4,Win32,59.94125757,,,,,,,,,,,,,,,,,
,,,,,,,,,,,,0,2,2,2,1,third,10,33,female,R,IMT,2021-07-16_23h30.26.299,ImageRatingTask_S5,2021.1.4,Win32,59.94125757,,,,,,,,,,,,,,,,,
,,,,,,,,,,,,0,3,3,3,1,fourth,10,33,female,R,IMT,2021-07-16_23h30.26.299,ImageRatingTask_S5,2021.1.4,Win32,59.94125757,,,,,,,,,,,,,,,,,
,,,,,,,,,,,,0,4,4,4,1,fifth,10,33,female,R,IMT,2021-07-16_23h30.26.299,ImageRatingTask_S5,2021.1.4,Win32,59.94125757,,,,,,,,,,,,,,,,,
,,,,,,,,,,,,0,5,5,5,1,sixth,10,33,female,R,IMT,2021-07-16_23h30.26.299,ImageRatingTask_S5,2021.1.4,Win32,59.94125757,,,,,,,,,,,,,,,,,
,,,,,,,,,,,,0,6,6,6,1,seventh,10,33,female,R,IMT,2021-07-16_23h30.26.299,ImageRatingTask_S5,2021.1.4,Win32,59.94125757,,,,,,,,,,,,,,,,,
,,,,,,,,,,,,0,7,7,7,1,last,10,33,female,R,IMT,2021-07-16_23h30.26.299,ImageRatingTask_S5,2021.1.4,Win32,59.94125757,,,,,,,,,,,,,,,,,
,,,,,,,,,,,,,,,,,,10,33,female,R,IMT,2021-07-16_23h30.26.299,ImageRatingTask_S5,2021.1.4,Win32,59.94125757,0,42,42,106,1,DreamStudyImages_rs1000x750g/Houses/Landscapes_033_h_CROPPED.jpg,,,,,,,,,,,
,,num_6,2.4233,num_2,0.4348,num_9,0.818,num_1,0.5359,num_6,1.072,0,0,0,0,1,main,10,33,female,R,IMT,2021-07-16_23h30.26.299,ImageRatingTask_S5,2021.1.4,Win32,59.94125757,,,,,,,,,,,,,,,,,
,,,,,,,,,,,,0,1,1,1,1,second,10,33,female,R,IMT,2021-07-16_23h30.26.299,ImageRatingTask_S5,2021.1.4,Win32,59.94125757,,,,,,,,,,,,,,,,,
,,,,,,,,,,,,0,2,2,2,1,third,10,33,female,R,IMT,2021-07-16_23h30.26.299,ImageRatingTask_S5,2021.1.4,Win32,59.94125757,,,,,,,,,,,,,,,,,
,,,,,,,,,,,,0,3,3,3,1,fourth,10,33,female,R,IMT,2021-07-16_23h30.26.299,ImageRatingTask_S5,2021.1.4,Win32,59.94125757,,,,,,,,,,,,,,,,,
,,,,,,,,,,,,0,4,4,4,1,fifth,10,33,female,R,IMT,2021-07-16_23h30.26.299,ImageRatingTask_S5,2021.1.4,Win32,59.94125757,,,,,,,,,,,,,,,,,
,,,,,,,,,,,,0,5,5,5,1,sixth,10,33,female,R,IMT,2021-07-16_23h30.26.299,ImageRatingTask_S5,2021.1.4,Win32,59.94125757,,,,,,,,,,,,,,,,,
,,,,,,,,,,,,0,6,6,6,1,seventh,10,33,female,R,IMT,2021-07-16_23h30.26.299,ImageRatingTask_S5,2021.1.4,Win32,59.94125757,,,,,,,,,,,,,,,,,
,,,,,,,,,,,,0,7,7,7,1,last,10,33,female,R,IMT,2021-07-16_23h30.26.299,ImageRatingTask_S5,2021.1.4,Win32,59.94125757,,,,,,,,,,,,,,,,,
,,,,,,,,,,,,,,,,,,10,33,female,R,IMT,2021-07-16_23h30.26.299,ImageRatingTask_S5,2021.1.4,Win32,59.94125757,0,43,43,16,1,DreamStudyImages_rs1000x750g/Houses/Landscapes_086_v.jpg,,,,,,,,,,,
,,num_5,1.3133,num_1,0.2764,num_9,2.05,num_1,3.5844,num_3,1.2526,0,0,0,0,1,main,10,33,female,R,IMT,2021-07-16_23h30.26.299,ImageRatingTask_S5,2021.1.4,Win32,59.94125757,,,,,,,,,,,,,,,,,
,,,,,,,,,,,,0,1,1,1,1,second,10,33,female,R,IMT,2021-07-16_23h30.26.299,ImageRatingTask_S5,2021.1.4,Win32,59.94125757,,,,,,,,,,,,,,,,,
,,,,,,,,,,,,0,2,2,2,1,third,10,33,female,R,IMT,2021-07-16_23h30.26.299,ImageRatingTask_S5,2021.1.4,Win32,59.94125757,,,,,,,,,,,,,,,,,
,,,,,,,,,,,,0,3,3,3,1,fourth,10,33,female,R,IMT,2021-07-16_23h30.26.299,ImageRatingTask_S5,2021.1.4,Win32,59.94125757,,,,,,,,,,,,,,,,,
,,,,,,,,,,,,0,4,4,4,1,fifth,10,33,female,R,IMT,2021-07-16_23h30.26.299,ImageRatingTask_S5,2021.1.4,Win32,59.94125757,,,,,,,,,,,,,,,,,
,,,,,,,,,,,,0,5,5,5,1,sixth,10,33,female,R,IMT,2021-07-16_23h30.26.299,ImageRatingTask_S5,2021.1.4,Win32,59.94125757,,,,,,,,,,,,,,,,,
,,,,,,,,,,,,0,6,6,6,1,seventh,10,33,female,R,IMT,2021-07-16_23h30.26.299,ImageRatingTask_S5,2021.1.4,Win32,59.94125757,,,,,,,,,,,,,,,,,
,,,,,,,,,,,,0,7,7,7,1,last,10,33,female,R,IMT,2021-07-16_23h30.26.299,ImageRatingTask_S5,2021.1.4,Win32,59.94125757,,,,,,,,,,,,,,,,,
,,,,,,,,,,,,,,,,,,10,33,female,R,IMT,2021-07-16_23h30.26.299,ImageRatingTask_S5,2021.1.4,Win32,59.94125757,0,44,44,5,1,DreamStudyImages_rs1000x750g/Children/Faces_069_h.jpg,,,,,,,,,,,
,,num_4,2.6508,num_4,2.6317,num_9,0.9746,num_1,0.8173,num_2,0.3811,0,0,0,0,1,main,10,33,female,R,IMT,2021-07-16_23h30.26.299,ImageRatingTask_S5,2021.1.4,Win32,59.94125757,,,,,,,,,,,,,,,,,
,,,,,,,,,,,,0,1,1,1,1,second,10,33,female,R,IMT,2021-07-16_23h30.26.299,ImageRatingTask_S5,2021.1.4,Win32,59.94125757,,,,,,,,,,,,,,,,,
,,,,,,,,,,,,0,2,2,2,1,third,10,33,female,R,IMT,2021-07-16_23h30.26.299,ImageRatingTask_S5,2021.1.4,Win32,59.94125757,,,,,,,,,,,,,,,,,
,,,,,,,,,,,,0,3,3,3,1,fourth,10,33,female,R,IMT,2021-07-16_23h30.26.299,ImageRatingTask_S5,2021.1.4,Win32,59.94125757,,,,,,,,,,,,,,,,,
,,,,,,,,,,,,0,4,4,4,1,fifth,10,33,female,R,IMT,2021-07-16_23h30.26.299,ImageRatingTask_S5,2021.1.4,Win32,59.94125757,,,,,,,,,,,,,,,,,
,,,,,,,,,,,,0,5,5,5,1,sixth,10,33,female,R,IMT,2021-07-16_23h30.26.299,ImageRatingTask_S5,2021.1.4,Win32,59.94125757,,,,,,,,,,,,,,,,,
,,,,,,,,,,,,0,6,6,6,1,seventh,10,33,female,R,IMT,2021-07-16_23h30.26.299,ImageRatingTask_S5,2021.1.4,Win32,59.94125757,,,,,,,,,,,,,,,,,
,,,,,,,,,,,,0,7,7,7,1,last,10,33,female,R,IMT,2021-07-16_23h30.26.299,ImageRatingTask_S5,2021.1.4,Win32,59.94125757,,,,,,,,,,,,,,,,,
,,,,,,,,,,,,,,,,,,10,33,female,R,IMT,2021-07-16_23h30.26.299,ImageRatingTask_S5,2021.1.4,Win32,59.94125757,0,45,45,119,1,DreamStudyImages_rs1000x750g/Children/Faces_011_h.jpg,,,,,,,,,,,
,,num_5,4.6388,num_1,0.2564,num_9,0.6318,num_1,4.0085,num_2,0.4707,0,0,0,0,1,main,10,33,female,R,IMT,2021-07-16_23h30.26.299,ImageRatingTask_S5,2021.1.4,Win32,59.94125757,,,,,,,,,,,,,,,,,
,,,,,,,,,,,,0,1,1,1,1,second,10,33,female,R,IMT,2021-07-16_23h30.26.299,ImageRatingTask_S5,2021.1.4,Win32,59.94125757,,,,,,,,,,,,,,,,,
,,,,,,,,,,,,0,2,2,2,1,third,10,33,female,R,IMT,2021-07-16_23h30.26.299,ImageRatingTask_S5,2021.1.4,Win32,59.94125757,,,,,,,,,,,,,,,,,
,,,,,,,,,,,,0,3,3,3,1,fourth,10,33,female,R,IMT,2021-07-16_23h30.26.299,ImageRatingTask_S5,2021.1.4,Win32,59.94125757,,,,,,,,,,,,,,,,,
,,,,,,,,,,,,0,4,4,4,1,fifth,10,33,female,R,IMT,2021-07-16_23h30.26.299,ImageRatingTask_S5,2021.1.4,Win32,59.94125757,,,,,,,,,,,,,,,,,
,,,,,,,,,,,,0,5,5,5,1,sixth,10,33,female,R,IMT,2021-07-16_23h30.26.299,ImageRatingTask_S5,2021.1.4,Win32,59.94125757,,,,,,,,,,,,,,,,,
,,,,,,,,,,,,0,6,6,6,1,seventh,10,33,female,R,IMT,2021-07-16_23h30.26.299,ImageRatingTask_S5,2021.1.4,Win32,59.94125757,,,,,,,,,,,,,,,,,
,,,,,,,,,,,,0,7,7,7,1,last,10,33,female,R,IMT,2021-07-16_23h30.26.299,ImageRatingTask_S5,2021.1.4,Win32,59.94125757,,,,,,,,,,,,,,,,,
,,,,,,,,,,,,,,,,,,10,33,female,R,IMT,2021-07-16_23h30.26.299,ImageRatingTask_S5,2021.1.4,Win32,59.94125757,0,46,46,54,1,DreamStudyImages_rs1000x750g/Children/IAPS2458_child4.jpg,,,,,,,,,,,
,,num_2,8.3204,num_7,4.7415,num_9,2.1109,num_1,0.8278,num_3,0.4334,0,0,0,0,1,main,10,33,female,R,IMT,2021-07-16_23h30.26.299,ImageRatingTask_S5,2021.1.4,Win32,59.94125757,,,,,,,,,,,,,,,,,
,,,,,,,,,,,,0,1,1,1,1,second,10,33,female,R,IMT,2021-07-16_23h30.26.299,ImageRatingTask_S5,2021.1.4,Win32,59.94125757,,,,,,,,,,,,,,,,,
,,,,,,,,,,,,0,2,2,2,1,third,10,33,female,R,IMT,2021-07-16_23h30.26.299,ImageRatingTask_S5,2021.1.4,Win32,59.94125757,,,,,,,,,,,,,,,,,
,,,,,,,,,,,,0,3,3,3,1,fourth,10,33,female,R,IMT,2021-07-16_23h30.26.299,ImageRatingTask_S5,2021.1.4,Win32,59.94125757,,,,,,,,,,,,,,,,,
,,,,,,,,,,,,0,4,4,4,1,fifth,10,33,female,R,IMT,2021-07-16_23h30.26.299,ImageRatingTask_S5,2021.1.4,Win32,59.94125757,,,,,,,,,,,,,,,,,
,,,,,,,,,,,,0,5,5,5,1,sixth,10,33,female,R,IMT,2021-07-16_23h30.26.299,ImageRatingTask_S5,2021.1.4,Win32,59.94125757,,,,,,,,,,,,,,,,,
,,,,,,,,,,,,0,6,6,6,1,seventh,10,33,female,R,IMT,2021-07-16_23h30.26.299,ImageRatingTask_S5,2021.1.4,Win32,59.94125757,,,,,,,,,,,,,,,,,
,,,,,,,,,,,,0,7,7,7,1,last,10,33,female,R,IMT,2021-07-16_23h30.26.299,ImageRatingTask_S5,2021.1.4,Win32,59.94125757,,,,,,,,,,,,,,,,,
,,,,,,,,,,,,,,,,,,10,33,female,R,IMT,2021-07-16_23h30.26.299,ImageRatingTask_S5,2021.1.4,Win32,59.94125757,0,47,47,46,1,DreamStudyImages_rs1000x750g/Mammals/Animals_054_h_CHECK.jpg,,,,,,,,,,,
,,num_5,2.8037,num_1,0.3252,num_9,0.5661,num_1,0.8787,num_3,0.7484,0,0,0,0,1,main,10,33,female,R,IMT,2021-07-16_23h30.26.299,ImageRatingTask_S5,2021.1.4,Win32,59.94125757,,,,,,,,,,,,,,,,,
,,,,,,,,,,,,0,1,1,1,1,second,10,33,female,R,IMT,2021-07-16_23h30.26.299,ImageRatingTask_S5,2021.1.4,Win32,59.94125757,,,,,,,,,,,,,,,,,
,,,,,,,,,,,,0,2,2,2,1,third,10,33,female,R,IMT,2021-07-16_23h30.26.299,ImageRatingTask_S5,2021.1.4,Win32,59.94125757,,,,,,,,,,,,,,,,,
,,,,,,,,,,,,0,3,3,3,1,fourth,10,33,female,R,IMT,2021-07-16_23h30.26.299,ImageRatingTask_S5,2021.1.4,Win32,59.94125757,,,,,,,,,,,,,,,,,
,,,,,,,,,,,,0,4,4,4,1,fifth,10,33,female,R,IMT,2021-07-16_23h30.26.299,ImageRatingTask_S5,2021.1.4,Win32,59.94125757,,,,,,,,,,,,,,,,,
,,,,,,,,,,,,0,5,5,5,1,sixth,10,33,female,R,IMT,2021-07-16_23h30.26.299,ImageRatingTask_S5,2021.1.4,Win32,59.94125757,,,,,,,,,,,,,,,,,
,,,,,,,,,,,,0,6,6,6,1,seventh,10,33,female,R,IMT,2021-07-16_23h30.26.299,ImageRatingTask_S5,2021.1.4,Win32,59.94125757,,,,,,,,,,,,,,,,,
,,,,,,,,,,,,0,7,7,7,1,last,10,33,female,R,IMT,2021-07-16_23h30.26.299,ImageRatingTask_S5,2021.1.4,Win32,59.94125757,,,,,,,,,,,,,,,,,
,,,,,,,,,,,,,,,,,,10,33,female,R,IMT,2021-07-16_23h30.26.299,ImageRatingTask_S5,2021.1.4,Win32,59.94125757,0,48,48,129,1,DreamStudyImages_rs1000x750g/Mammals/Animals_180_h.jpg,,,,,,,,,,,
,,num_7,3.2392,num_1,0.7576,num_9,0.6068,num_1,0.7192,num_3,0.2915,0,0,0,0,1,main,10,33,female,R,IMT,2021-07-16_23h30.26.299,ImageRatingTask_S5,2021.1.4,Win32,59.94125757,,,,,,,,,,,,,,,,,
,,,,,,,,,,,,0,1,1,1,1,second,10,33,female,R,IMT,2021-07-16_23h30.26.299,ImageRatingTask_S5,2021.1.4,Win32,59.94125757,,,,,,,,,,,,,,,,,
,,,,,,,,,,,,0,2,2,2,1,third,10,33,female,R,IMT,2021-07-16_23h30.26.299,ImageRatingTask_S5,2021.1.4,Win32,59.94125757,,,,,,,,,,,,,,,,,
,,,,,,,,,,,,0,3,3,3,1,fourth,10,33,female,R,IMT,2021-07-16_23h30.26.299,ImageRatingTask_S5,2021.1.4,Win32,59.94125757,,,,,,,,,,,,,,,,,
,,,,,,,,,,,,0,4,4,4,1,fifth,10,33,female,R,IMT,2021-07-16_23h30.26.299,ImageRatingTask_S5,2021.1.4,Win32,59.94125757,,,,,,,,,,,,,,,,,
,,,,,,,,,,,,0,5,5,5,1,sixth,10,33,female,R,IMT,2021-07-16_23h30.26.299,ImageRatingTask_S5,2021.1.4,Win32,59.94125757,,,,,,,,,,,,,,,,,
,,,,,,,,,,,,0,6,6,6,1,seventh,10,33,female,R,IMT,2021-07-16_23h30.26.299,ImageRatingTask_S5,2021.1.4,Win32,59.94125757,,,,,,,,,,,,,,,,,
,,,,,,,,,,,,0,7,7,7,1,last,10,33,female,R,IMT,2021-07-16_23h30.26.299,ImageRatingTask_S5,2021.1.4,Win32,59.94125757,,,,,,,,,,,,,,,,,
,,,,,,,,,,,,,,,,,,10,33,female,R,IMT,2021-07-16_23h30.26.299,ImageRatingTask_S5,2021.1.4,Win32,59.94125757,0,49,49,25,1,DreamStudyImages_rs1000x750g/Mammals/Animals_178_v.jpg,,,,,,,,,,,
,,num_5,0.9909,num_1,0.3052,num_9,0.3488,num_1,1.0017,num_6,1.1432,0,0,0,0,1,main,10,33,female,R,IMT,2021-07-16_23h30.26.299,ImageRatingTask_S5,2021.1.4,Win32,59.94125757,,,,,,,,,,,,,,,,,
,,,,,,,,,,,,0,1,1,1,1,second,10,33,female,R,IMT,2021-07-16_23h30.26.299,ImageRatingTask_S5,2021.1.4,Win32,59.94125757,,,,,,,,,,,,,,,,,
,,,,,,,,,,,,0,2,2,2,1,third,10,33,female,R,IMT,2021-07-16_23h30.26.299,ImageRatingTask_S5,2021.1.4,Win32,59.94125757,,,,,,,,,,,,,,,,,
,,,,,,,,,,,,0,3,3,3,1,fourth,10,33,female,R,IMT,2021-07-16_23h30.26.299,ImageRatingTask_S5,2021.1.4,Win32,59.94125757,,,,,,,,,,,,,,,,,
,,,,,,,,,,,,0,4,4,4,1,fifth,10,33,female,R,IMT,2021-07-16_23h30.26.299,ImageRatingTask_S5,2021.1.4,Win32,59.94125757,,,,,,,,,,,,,,,,,
,,,,,,,,,,,,0,5,5,5,1,sixth,10,33,female,R,IMT,2021-07-16_23h30.26.299,ImageRatingTask_S5,2021.1.4,Win32,59.94125757,,,,,,,,,,,,,,,,,
,,,,,,,,,,,,0,6,6,6,1,seventh,10,33,female,R,IMT,2021-07-16_23h30.26.299,ImageRatingTask_S5,2021.1.4,Win32,59.94125757,,,,,,,,,,,,,,,,,
,,,,,,,,,,,,0,7,7,7,1,last,10,33,female,R,IMT,2021-07-16_23h30.26.299,ImageRatingTask_S5,2021.1.4,Win32,59.94125757,,,,,,,,,,,,,,,,,
,,,,,,,,,,,,,,,,,,10,33,female,R,IMT,2021-07-16_23h30.26.299,ImageRatingTask_S5,2021.1.4,Win32,59.94125757,0,50,50,156,1,DreamStudyImages_rs1000x750g/Houses/Landscapes_027_v.jpg,,,,,,,,,,,
,,num_5,1.0409,num_1,0.2888,num_9,0.3276,num_1,0.8333,num_5,1.231,0,0,0,0,1,main,10,33,female,R,IMT,2021-07-16_23h30.26.299,ImageRatingTask_S5,2021.1.4,Win32,59.94125757,,,,,,,,,,,,,,,,,
,,,,,,,,,,,,0,1,1,1,1,second,10,33,female,R,IMT,2021-07-16_23h30.26.299,ImageRatingTask_S5,2021.1.4,Win32,59.94125757,,,,,,,,,,,,,,,,,
,,,,,,,,,,,,0,2,2,2,1,third,10,33,female,R,IMT,2021-07-16_23h30.26.299,ImageRatingTask_S5,2021.1.4,Win32,59.94125757,,,,,,,,,,,,,,,,,
,,,,,,,,,,,,0,3,3,3,1,fourth,10,33,female,R,IMT,2021-07-16_23h30.26.299,ImageRatingTask_S5,2021.1.4,Win32,59.94125757,,,,,,,,,,,,,,,,,
,,,,,,,,,,,,0,4,4,4,1,fifth,10,33,female,R,IMT,2021-07-16_23h30.26.299,ImageRatingTask_S5,2021.1.4,Win32,59.94125757,,,,,,,,,,,,,,,,,
,,,,,,,,,,,,0,5,5,5,1,sixth,10,33,female,R,IMT,2021-07-16_23h30.26.299,ImageRatingTask_S5,2021.1.4,Win32,59.94125757,,,,,,,,,,,,,,,,,
,,,,,,,,,,,,0,6,6,6,1,seventh,10,33,female,R,IMT,2021-07-16_23h30.26.299,ImageRatingTask_S5,2021.1.4,Win32,59.94125757,,,,,,,,,,,,,,,,,
,,,,,,,,,,,,0,7,7,7,1,last,10,33,female,R,IMT,2021-07-16_23h30.26.299,ImageRatingTask_S5,2021.1.4,Win32,59.94125757,,,,,,,,,,,,,,,,,
,,,,,,,,,,,,,,,,,,10,33,female,R,IMT,2021-07-16_23h30.26.299,ImageRatingTask_S5,2021.1.4,Win32,59.94125757,0,51,51,105,1,DreamStudyImages_rs1000x750g/Food/Objects_079_h.jpg,,,,,,,,,,,
,,num_5,3.7305,num_9,1.9536,num_9,2.835,num_1,2.2672,num_8,1.0698,0,0,0,0,1,main,10,33,female,R,IMT,2021-07-16_23h30.26.299,ImageRatingTask_S5,2021.1.4,Win32,59.94125757,,,,,,,,,,,,,,,,,
,,,,,,,,,,,,0,1,1,1,1,second,10,33,female,R,IMT,2021-07-16_23h30.26.299,ImageRatingTask_S5,2021.1.4,Win32,59.94125757,,,,,,,,,,,,,,,,,
,,,,,,,,,,,,0,2,2,2,1,third,10,33,female,R,IMT,2021-07-16_23h30.26.299,ImageRatingTask_S5,2021.1.4,Win32,59.94125757,,,,,,,,,,,,,,,,,
,,,,,,,,,,,,0,3,3,3,1,fourth,10,33,female,R,IMT,2021-07-16_23h30.26.299,ImageRatingTask_S5,2021.1.4,Win32,59.94125757,,,,,,,,,,,,,,,,,
,,,,,,,,,,,,0,4,4,4,1,fifth,10,33,female,R,IMT,2021-07-16_23h30.26.299,ImageRatingTask_S5,2021.1.4,Win32,59.94125757,,,,,,,,,,,,,,,,,
,,,,,,,,,,,,0,5,5,5,1,sixth,10,33,female,R,IMT,2021-07-16_23h30.26.299,ImageRatingTask_S5,2021.1.4,Win32,59.94125757,,,,,,,,,,,,,,,,,
,,,,,,,,,,,,0,6,6,6,1,seventh,10,33,female,R,IMT,2021-07-16_23h30.26.299,ImageRatingTask_S5,2021.1.4,Win32,59.94125757,,,,,,,,,,,,,,,,,
,,,,,,,,,,,,0,7,7,7,1,last,10,33,female,R,IMT,2021-07-16_23h30.26.299,ImageRatingTask_S5,2021.1.4,Win32,59.94125757,,,,,,,,,,,,,,,,,
,,,,,,,,,,,,,,,,,,10,33,female,R,IMT,2021-07-16_23h30.26.299,ImageRatingTask_S5,2021.1.4,Win32,59.94125757,0,52,52,113,1,DreamStudyImages_rs1000x750g/Water/Landscapes_145_h.jpg,,,,,,,,,,,
,,num_5,3.1908,num_1,0.2671,num_9,0.6826,num_1,1.8357,num_5,0.5187,0,0,0,0,1,main,10,33,female,R,IMT,2021-07-16_23h30.26.299,ImageRatingTask_S5,2021.1.4,Win32,59.94125757,,,,,,,,,,,,,,,,,
,,,,,,,,,,,,0,1,1,1,1,second,10,33,female,R,IMT,2021-07-16_23h30.26.299,ImageRatingTask_S5,2021.1.4,Win32,59.94125757,,,,,,,,,,,,,,,,,
,,,,,,,,,,,,0,2,2,2,1,third,10,33,female,R,IMT,2021-07-16_23h30.26.299,ImageRatingTask_S5,2021.1.4,Win32,59.94125757,,,,,,,,,,,,,,,,,
,,,,,,,,,,,,0,3,3,3,1,fourth,10,33,female,R,IMT,2021-07-16_23h30.26.299,ImageRatingTask_S5,2021.1.4,Win32,59.94125757,,,,,,,,,,,,,,,,,
,,,,,,,,,,,,0,4,4,4,1,fifth,10,33,female,R,IMT,2021-07-16_23h30.26.299,ImageRatingTask_S5,2021.1.4,Win32,59.94125757,,,,,,,,,,,,,,,,,
,,,,,,,,,,,,0,5,5,5,1,sixth,10,33,female,R,IMT,2021-07-16_23h30.26.299,ImageRatingTask_S5,2021.1.4,Win32,59.94125757,,,,,,,,,,,,,,,,,
,,,,,,,,,,,,0,6,6,6,1,seventh,10,33,female,R,IMT,2021-07-16_23h30.26.299,ImageRatingTask_S5,2021.1.4,Win32,59.94125757,,,,,,,,,,,,,,,,,
,,,,,,,,,,,,0,7,7,7,1,last,10,33,female,R,IMT,2021-07-16_23h30.26.299,ImageRatingTask_S5,2021.1.4,Win32,59.94125757,,,,,,,,,,,,,,,,,
,,,,,,,,,,,,,,,,,,10,33,female,R,IMT,2021-07-16_23h30.26.299,ImageRatingTask_S5,2021.1.4,Win32,59.94125757,0,53,53,110,1,DreamStudyImages_rs1000x750g/Food/Dessert 5.jpg,,,,,,,,,,,
,,num_5,2.272,num_1,0.3689,num_9,0.6329,num_1,4.8769,num_7,1.4004,0,0,0,0,1,main,10,33,female,R,IMT,2021-07-16_23h30.26.299,ImageRatingTask_S5,2021.1.4,Win32,59.94125757,,,,,,,,,,,,,,,,,
,,,,,,,,,,,,0,1,1,1,1,second,10,33,female,R,IMT,2021-07-16_23h30.26.299,ImageRatingTask_S5,2021.1.4,Win32,59.94125757,,,,,,,,,,,,,,,,,
,,,,,,,,,,,,0,2,2,2,1,third,10,33,female,R,IMT,2021-07-16_23h30.26.299,ImageRatingTask_S5,2021.1.4,Win32,59.94125757,,,,,,,,,,,,,,,,,
,,,,,,,,,,,,0,3,3,3,1,fourth,10,33,female,R,IMT,2021-07-16_23h30.26.299,ImageRatingTask_S5,2021.1.4,Win32,59.94125757,,,,,,,,,,,,,,,,,
,,,,,,,,,,,,0,4,4,4,1,fifth,10,33,female,R,IMT,2021-07-16_23h30.26.299,ImageRatingTask_S5,2021.1.4,Win32,59.94125757,,,,,,,,,,,,,,,,,
,,,,,,,,,,,,0,5,5,5,1,sixth,10,33,female,R,IMT,2021-07-16_23h30.26.299,ImageRatingTask_S5,2021.1.4,Win32,59.94125757,,,,,,,,,,,,,,,,,
,,,,,,,,,,,,0,6,6,6,1,seventh,10,33,female,R,IMT,2021-07-16_23h30.26.299,ImageRatingTask_S5,2021.1.4,Win32,59.94125757,,,,,,,,,,,,,,,,,
,,,,,,,,,,,,0,7,7,7,1,last,10,33,female,R,IMT,2021-07-16_23h30.26.299,ImageRatingTask_S5,2021.1.4,Win32,59.94125757,,,,,,,,,,,,,,,,,
,,,,,,,,,,,,,,,,,,10,33,female,R,IMT,2021-07-16_23h30.26.299,ImageRatingTask_S5,2021.1.4,Win32,59.94125757,0,54,54,75,1,DreamStudyImages_rs1000x750g/Vehicles/Plane crash 3.jpg,,,,,,,,,,,
,,num_5,1.4194,num_1,0.3591,num_9,0.3686,num_1,1.712,num_3,11.7898,0,0,0,0,1,main,10,33,female,R,IMT,2021-07-16_23h30.26.299,ImageRatingTask_S5,2021.1.4,Win32,59.94125757,,,,,,,,,,,,,,,,,
,,,,,,,,,,,,0,1,1,1,1,second,10,33,female,R,IMT,2021-07-16_23h30.26.299,ImageRatingTask_S5,2021.1.4,Win32,59.94125757,,,,,,,,,,,,,,,,,
,,,,,,,,,,,,0,2,2,2,1,third,10,33,female,R,IMT,2021-07-16_23h30.26.299,ImageRatingTask_S5,2021.1.4,Win32,59.94125757,,,,,,,,,,,,,,,,,
,,,,,,,,,,,,0,3,3,3,1,fourth,10,33,female,R,IMT,2021-07-16_23h30.26.299,ImageRatingTask_S5,2021.1.4,Win32,59.94125757,,,,,,,,,,,,,,,,,
,,,,,,,,,,,,0,4,4,4,1,fifth,10,33,female,R,IMT,2021-07-16_23h30.26.299,ImageRatingTask_S5,2021.1.4,Win32,59.94125757,,,,,,,,,,,,,,,,,
,,,,,,,,,,,,0,5,5,5,1,sixth,10,33,female,R,IMT,2021-07-16_23h30.26.299,ImageRatingTask_S5,2021.1.4,Win32,59.94125757,,,,,,,,,,,,,,,,,
,,,,,,,,,,,,0,6,6,6,1,seventh,10,33,female,R,IMT,2021-07-16_23h30.26.299,ImageRatingTask_S5,2021.1.4,Win32,59.94125757,,,,,,,,,,,,,,,,,
,,,,,,,,,,,,0,7,7,7,1,last,10,33,female,R,IMT,2021-07-16_23h30.26.299,ImageRatingTask_S5,2021.1.4,Win32,59.94125757,,,,,,,,,,,,,,,,,
,,,,,,,,,,,,,,,,,,10,33,female,R,IMT,2021-07-16_23h30.26.299,ImageRatingTask_S5,2021.1.4,Win32,59.94125757,0,55,55,9,1,DreamStudyImages_rs1000x750g/Mammals/Animals_146_h.jpg,,,,,,,,,,,
,,num_6,17.3251,num_2,0.6297,num_9,0.4902,num_1,1.991,num_8,1.5932,0,0,0,0,1,main,10,33,female,R,IMT,2021-07-16_23h30.26.299,ImageRatingTask_S5,2021.1.4,Win32,59.94125757,,,,,,,,,,,,,,,,,
,,,,,,,,,,,,0,1,1,1,1,second,10,33,female,R,IMT,2021-07-16_23h30.26.299,ImageRatingTask_S5,2021.1.4,Win32,59.94125757,,,,,,,,,,,,,,,,,
,,,,,,,,,,,,0,2,2,2,1,third,10,33,female,R,IMT,2021-07-16_23h30.26.299,ImageRatingTask_S5,2021.1.4,Win32,59.94125757,,,,,,,,,,,,,,,,,
,,,,,,,,,,,,0,3,3,3,1,fourth,10,33,female,R,IMT,2021-07-16_23h30.26.299,ImageRatingTask_S5,2021.1.4,Win32,59.94125757,,,,,,,,,,,,,,,,,
,,,,,,,,,,,,0,4,4,4,1,fifth,10,33,female,R,IMT,2021-07-16_23h30.26.299,ImageRatingTask_S5,2021.1.4,Win32,59.94125757,,,,,,,,,,,,,,,,,
,,,,,,,,,,,,0,5,5,5,1,sixth,10,33,female,R,IMT,2021-07-16_23h30.26.299,ImageRatingTask_S5,2021.1.4,Win32,59.94125757,,,,,,,,,,,,,,,,,
,,,,,,,,,,,,0,6,6,6,1,seventh,10,33,female,R,IMT,2021-07-16_23h30.26.299,ImageRatingTask_S5,2021.1.4,Win32,59.94125757,,,,,,,,,,,,,,,,,
,,,,,,,,,,,,0,7,7,7,1,last,10,33,female,R,IMT,2021-07-16_23h30.26.299,ImageRatingTask_S5,2021.1.4,Win32,59.94125757,,,,,,,,,,,,,,,,,
,,,,,,,,,,,,,,,,,,10,33,female,R,IMT,2021-07-16_23h30.26.299,ImageRatingTask_S5,2021.1.4,Win32,59.94125757,0,56,56,81,1,DreamStudyImages_rs1000x750g/Water/5833.jpg,,,,,,,,,,,
,,num_5,1.7921,num_1,0.3414,num_9,0.3676,num_1,0.4747,num_6,2.2834,0,0,0,0,1,main,10,33,female,R,IMT,2021-07-16_23h30.26.299,ImageRatingTask_S5,2021.1.4,Win32,59.94125757,,,,,,,,,,,,,,,,,
,,,,,,,,,,,,0,1,1,1,1,second,10,33,female,R,IMT,2021-07-16_23h30.26.299,ImageRatingTask_S5,2021.1.4,Win32,59.94125757,,,,,,,,,,,,,,,,,
,,,,,,,,,,,,0,2,2,2,1,third,10,33,female,R,IMT,2021-07-16_23h30.26.299,ImageRatingTask_S5,2021.1.4,Win32,59.94125757,,,,,,,,,,,,,,,,,
,,,,,,,,,,,,0,3,3,3,1,fourth,10,33,female,R,IMT,2021-07-16_23h30.26.299,ImageRatingTask_S5,2021.1.4,Win32,59.94125757,,,,,,,,,,,,,,,,,
,,,,,,,,,,,,0,4,4,4,1,fifth,10,33,female,R,IMT,2021-07-16_23h30.26.299,ImageRatingTask_S5,2021.1.4,Win32,59.94125757,,,,,,,,,,,,,,,,,
,,,,,,,,,,,,0,5,5,5,1,sixth,10,33,female,R,IMT,2021-07-16_23h30.26.299,ImageRatingTask_S5,2021.1.4,Win32,59.94125757,,,,,,,,,,,,,,,,,
,,,,,,,,,,,,0,6,6,6,1,seventh,10,33,female,R,IMT,2021-07-16_23h30.26.299,ImageRatingTask_S5,2021.1.4,Win32,59.94125757,,,,,,,,,,,,,,,,,
,,,,,,,,,,,,0,7,7,7,1,last,10,33,female,R,IMT,2021-07-16_23h30.26.299,ImageRatingTask_S5,2021.1.4,Win32,59.94125757,,,,,,,,,,,,,,,,,
,,,,,,,,,,,,,,,,,,10,33,female,R,IMT,2021-07-16_23h30.26.299,ImageRatingTask_S5,2021.1.4,Win32,59.94125757,0,57,57,13,1,DreamStudyImages_rs1000x750g/Houses/Objects_180_v.jpg,,,,,,,,,,,
,,num_6,4.5493,num_1,1.0385,num_9,0.8337,num_1,0.9514,num_2,0.3773,0,0,0,0,1,main,10,33,female,R,IMT,2021-07-16_23h30.26.299,ImageRatingTask_S5,2021.1.4,Win32,59.94125757,,,,,,,,,,,,,,,,,
,,,,,,,,,,,,0,1,1,1,1,second,10,33,female,R,IMT,2021-07-16_23h30.26.299,ImageRatingTask_S5,2021.1.4,Win32,59.94125757,,,,,,,,,,,,,,,,,
,,,,,,,,,,,,0,2,2,2,1,third,10,33,female,R,IMT,2021-07-16_23h30.26.299,ImageRatingTask_S5,2021.1.4,Win32,59.94125757,,,,,,,,,,,,,,,,,
,,,,,,,,,,,,0,3,3,3,1,fourth,10,33,female,R,IMT,2021-07-16_23h30.26.299,ImageRatingTask_S5,2021.1.4,Win32,59.94125757,,,,,,,,,,,,,,,,,
,,,,,,,,,,,,0,4,4,4,1,fifth,10,33,female,R,IMT,2021-07-16_23h30.26.299,ImageRatingTask_S5,2021.1.4,Win32,59.94125757,,,,,,,,,,,,,,,,,
,,,,,,,,,,,,0,5,5,5,1,sixth,10,33,female,R,IMT,2021-07-16_23h30.26.299,ImageRatingTask_S5,2021.1.4,Win32,59.94125757,,,,,,,,,,,,,,,,,
,,,,,,,,,,,,0,6,6,6,1,seventh,10,33,female,R,IMT,2021-07-16_23h30.26.299,ImageRatingTask_S5,2021.1.4,Win32,59.94125757,,,,,,,,,,,,,,,,,
,,,,,,,,,,,,0,7,7,7,1,last,10,33,female,R,IMT,2021-07-16_23h30.26.299,ImageRatingTask_S5,2021.1.4,Win32,59.94125757,,,,,,,,,,,,,,,,,
,,,,,,,,,,,,,,,,,,10,33,female,R,IMT,2021-07-16_23h30.26.299,ImageRatingTask_S5,2021.1.4,Win32,59.94125757,0,58,58,114,1,DreamStudyImages_rs1000x750g/Children/IAPS2347_children12.jpg,,,,,,,,,,,
,,num_6,11.9206,num_1,0.4723,num_9,0.3997,num_1,0.9259,num_5,0.5197,0,0,0,0,1,main,10,33,female,R,IMT,2021-07-16_23h30.26.299,ImageRatingTask_S5,2021.1.4,Win32,59.94125757,,,,,,,,,,,,,,,,,
,,,,,,,,,,,,0,1,1,1,1,second,10,33,female,R,IMT,2021-07-16_23h30.26.299,ImageRatingTask_S5,2021.1.4,Win32,59.94125757,,,,,,,,,,,,,,,,,
,,,,,,,,,,,,0,2,2,2,1,third,10,33,female,R,IMT,2021-07-16_23h30.26.299,ImageRatingTask_S5,2021.1.4,Win32,59.94125757,,,,,,,,,,,,,,,,,
,,,,,,,,,,,,0,3,3,3,1,fourth,10,33,female,R,IMT,2021-07-16_23h30.26.299,ImageRatingTask_S5,2021.1.4,Win32,59.94125757,,,,,,,,,,,,,,,,,
,,,,,,,,,,,,0,4,4,4,1,fifth,10,33,female,R,IMT,2021-07-16_23h30.26.299,ImageRatingTask_S5,2021.1.4,Win32,59.94125757,,,,,,,,,,,,,,,,,
,,,,,,,,,,,,0,5,5,5,1,sixth,10,33,female,R,IMT,2021-07-16_23h30.26.299,ImageRatingTask_S5,2021.1.4,Win32,59.94125757,,,,,,,,,,,,,,,,,
,,,,,,,,,,,,0,6,6,6,1,seventh,10,33,female,R,IMT,2021-07-16_23h30.26.299,ImageRatingTask_S5,2021.1.4,Win32,59.94125757,,,,,,,,,,,,,,,,,
,,,,,,,,,,,,0,7,7,7,1,last,10,33,female,R,IMT,2021-07-16_23h30.26.299,ImageRatingTask_S5,2021.1.4,Win32,59.94125757,,,,,,,,,,,,,,,,,
,,,,,,,,,,,,,,,,,,10,33,female,R,IMT,2021-07-16_23h30.26.299,ImageRatingTask_S5,2021.1.4,Win32,59.94125757,0,59,59,7,1,DreamStudyImages_rs1000x750g/Food/Objects_082_h.jpg,,,,,,,,,,,
,,num_6,3.0525,num_1,1.2055,num_9,0.6417,num_1,4.3504,num_2,1.6035,0,0,0,0,1,main,10,33,female,R,IMT,2021-07-16_23h30.26.299,ImageRatingTask_S5,2021.1.4,Win32,59.94125757,,,,,,,,,,,,,,,,,
,,,,,,,,,,,,0,1,1,1,1,second,10,33,female,R,IMT,2021-07-16_23h30.26.299,ImageRatingTask_S5,2021.1.4,Win32,59.94125757,,,,,,,,,,,,,,,,,
,,,,,,,,,,,,0,2,2,2,1,third,10,33,female,R,IMT,2021-07-16_23h30.26.299,ImageRatingTask_S5,2021.1.4,Win32,59.94125757,,,,,,,,,,,,,,,,,
,,,,,,,,,,,,0,3,3,3,1,fourth,10,33,female,R,IMT,2021-07-16_23h30.26.299,ImageRatingTask_S5,2021.1.4,Win32,59.94125757,,,,,,,,,,,,,,,,,
,,,,,,,,,,,,0,4,4,4,1,fifth,10,33,female,R,IMT,2021-07-16_23h30.26.299,ImageRatingTask_S5,2021.1.4,Win32,59.94125757,,,,,,,,,,,,,,,,,
,,,,,,,,,,,,0,5,5,5,1,sixth,10,33,female,R,IMT,2021-07-16_23h30.26.299,ImageRatingTask_S5,2021.1.4,Win32,59.94125757,,,,,,,,,,,,,,,,,
,,,,,,,,,,,,0,6,6,6,1,seventh,10,33,female,R,IMT,2021-07-16_23h30.26.299,ImageRatingTask_S5,2021.1.4,Win32,59.94125757,,,,,,,,,,,,,,,,,
,,,,,,,,,,,,0,7,7,7,1,last,10,33,female,R,IMT,2021-07-16_23h30.26.299,ImageRatingTask_S5,2021.1.4,Win32,59.94125757,,,,,,,,,,,,,,,,,
,,,,,,,,,,,,,,,,,,10,33,female,R,IMT,2021-07-16_23h30.26.299,ImageRatingTask_S5,2021.1.4,Win32,59.94125757,0,60,60,95,1,DreamStudyImages_rs1000x750g/Children/Faces_085_h.jpg,,,,,,,,,,,
,,num_4,10.1712,num_5,2.1064,num_9,1.9025,num_1,0.9065,num_5,1.1956,0,0,0,0,1,main,10,33,female,R,IMT,2021-07-16_23h30.26.299,ImageRatingTask_S5,2021.1.4,Win32,59.94125757,,,,,,,,,,,,,,,,,
,,,,,,,,,,,,0,1,1,1,1,second,10,33,female,R,IMT,2021-07-16_23h30.26.299,ImageRatingTask_S5,2021.1.4,Win32,59.94125757,,,,,,,,,,,,,,,,,
,,,,,,,,,,,,0,2,2,2,1,third,10,33,female,R,IMT,2021-07-16_23h30.26.299,ImageRatingTask_S5,2021.1.4,Win32,59.94125757,,,,,,,,,,,,,,,,,
,,,,,,,,,,,,0,3,3,3,1,fourth,10,33,female,R,IMT,2021-07-16_23h30.26.299,ImageRatingTask_S5,2021.1.4,Win32,59.94125757,,,,,,,,,,,,,,,,,
,,,,,,,,,,,,0,4,4,4,1,fifth,10,33,female,R,IMT,2021-07-16_23h30.26.299,ImageRatingTask_S5,2021.1.4,Win32,59.94125757,,,,,,,,,,,,,,,,,
,,,,,,,,,,,,0,5,5,5,1,sixth,10,33,female,R,IMT,2021-07-16_23h30.26.299,ImageRatingTask_S5,2021.1.4,Win32,59.94125757,,,,,,,,,,,,,,,,,
,,,,,,,,,,,,0,6,6,6,1,seventh,10,33,female,R,IMT,2021-07-16_23h30.26.299,ImageRatingTask_S5,2021.1.4,Win32,59.94125757,,,,,,,,,,,,,,,,,
,,,,,,,,,,,,0,7,7,7,1,last,10,33,female,R,IMT,2021-07-16_23h30.26.299,ImageRatingTask_S5,2021.1.4,Win32,59.94125757,,,,,,,,,,,,,,,,,
,,,,,,,,,,,,,,,,,,10,33,female,R,IMT,2021-07-16_23h30.26.299,ImageRatingTask_S5,2021.1.4,Win32,59.94125757,0,61,61,144,1,DreamStudyImages_rs1000x750g/Food/Objects_009_h.jpg,,,,,,,,,,,
,,num_4,2.634,num_4,1.5187,num_9,0.7,num_1,3.8553,num_5,0.5603,0,0,0,0,1,main,10,33,female,R,IMT,2021-07-16_23h30.26.299,ImageRatingTask_S5,2021.1.4,Win32,59.94125757,,,,,,,,,,,,,,,,,
,,,,,,,,,,,,0,1,1,1,1,second,10,33,female,R,IMT,2021-07-16_23h30.26.299,ImageRatingTask_S5,2021.1.4,Win32,59.94125757,,,,,,,,,,,,,,,,,
,,,,,,,,,,,,0,2,2,2,1,third,10,33,female,R,IMT,2021-07-16_23h30.26.299,ImageRatingTask_S5,2021.1.4,Win32,59.94125757,,,,,,,,,,,,,,,,,
,,,,,,,,,,,,0,3,3,3,1,fourth,10,33,female,R,IMT,2021-07-16_23h30.26.299,ImageRatingTask_S5,2021.1.4,Win32,59.94125757,,,,,,,,,,,,,,,,,
,,,,,,,,,,,,0,4,4,4,1,fifth,10,33,female,R,IMT,2021-07-16_23h30.26.299,ImageRatingTask_S5,2021.1.4,Win32,59.94125757,,,,,,,,,,,,,,,,,
,,,,,,,,,,,,0,5,5,5,1,sixth,10,33,female,R,IMT,2021-07-16_23h30.26.299,ImageRatingTask_S5,2021.1.4,Win32,59.94125757,,,,,,,,,,,,,,,,,
,,,,,,,,,,,,0,6,6,6,1,seventh,10,33,female,R,IMT,2021-07-16_23h30.26.299,ImageRatingTask_S5,2021.1.4,Win32,59.94125757,,,,,,,,,,,,,,,,,
,,,,,,,,,,,,0,7,7,7,1,last,10,33,female,R,IMT,2021-07-16_23h30.26.299,ImageRatingTask_S5,2021.1.4,Win32,59.94125757,,,,,,,,,,,,,,,,,
,,,,,,,,,,,,,,,,,,10,33,female,R,IMT,2021-07-16_23h30.26.299,ImageRatingTask_S5,2021.1.4,Win32,59.94125757,0,62,62,92,1,DreamStudyImages_rs1000x750g/Food/Objects_034_v.jpg,,,,,,,,,,,
,,num_6,6.2182,num_1,0.613,num_9,0.402,num_1,0.4807,num_5,0.6364,0,0,0,0,1,main,10,33,female,R,IMT,2021-07-16_23h30.26.299,ImageRatingTask_S5,2021.1.4,Win32,59.94125757,,,,,,,,,,,,,,,,,
,,,,,,,,,,,,0,1,1,1,1,second,10,33,female,R,IMT,2021-07-16_23h30.26.299,ImageRatingTask_S5,2021.1.4,Win32,59.94125757,,,,,,,,,,,,,,,,,
,,,,,,,,,,,,0,2,2,2,1,third,10,33,female,R,IMT,2021-07-16_23h30.26.299,ImageRatingTask_S5,2021.1.4,Win32,59.94125757,,,,,,,,,,,,,,,,,
,,,,,,,,,,,,0,3,3,3,1,fourth,10,33,female,R,IMT,2021-07-16_23h30.26.299,ImageRatingTask_S5,2021.1.4,Win32,59.94125757,,,,,,,,,,,,,,,,,
,,,,,,,,,,,,0,4,4,4,1,fifth,10,33,female,R,IMT,2021-07-16_23h30.26.299,ImageRatingTask_S5,2021.1.4,Win32,59.94125757,,,,,,,,,,,,,,,,,
,,,,,,,,,,,,0,5,5,5,1,sixth,10,33,female,R,IMT,2021-07-16_23h30.26.299,ImageRatingTask_S5,2021.1.4,Win32,59.94125757,,,,,,,,,,,,,,,,,
,,,,,,,,,,,,0,6,6,6,1,seventh,10,33,female,R,IMT,2021-07-16_23h30.26.299,ImageRatingTask_S5,2021.1.4,Win32,59.94125757,,,,,,,,,,,,,,,,,
,,,,,,,,,,,,0,7,7,7,1,last,10,33,female,R,IMT,2021-07-16_23h30.26.299,ImageRatingTask_S5,2021.1.4,Win32,59.94125757,,,,,,,,,,,,,,,,,
,,,,,,,,,,,,,,,,,,10,33,female,R,IMT,2021-07-16_23h30.26.299,ImageRatingTask_S5,2021.1.4,Win32,59.94125757,0,63,63,58,1,DreamStudyImages_rs1000x750g/Food/Food 5.jpg,,,,,,,,,,,
,,num_6,2.8252,num_2,0.8447,num_9,0.4962,num_1,0.4723,num_8,5.5097,0,0,0,0,1,main,10,33,female,R,IMT,2021-07-16_23h30.26.299,ImageRatingTask_S5,2021.1.4,Win32,59.94125757,,,,,,,,,,,,,,,,,
,,,,,,,,,,,,0,1,1,1,1,second,10,33,female,R,IMT,2021-07-16_23h30.26.299,ImageRatingTask_S5,2021.1.4,Win32,59.94125757,,,,,,,,,,,,,,,,,
,,,,,,,,,,,,0,2,2,2,1,third,10,33,female,R,IMT,2021-07-16_23h30.26.299,ImageRatingTask_S5,2021.1.4,Win32,59.94125757,,,,,,,,,,,,,,,,,
,,,,,,,,,,,,0,3,3,3,1,fourth,10,33,female,R,IMT,2021-07-16_23h30.26.299,ImageRatingTask_S5,2021.1.4,Win32,59.94125757,,,,,,,,,,,,,,,,,
,,,,,,,,,,,,0,4,4,4,1,fifth,10,33,female,R,IMT,2021-07-16_23h30.26.299,ImageRatingTask_S5,2021.1.4,Win32,59.94125757,,,,,,,,,,,,,,,,,
,,,,,,,,,,,,0,5,5,5,1,sixth,10,33,female,R,IMT,2021-07-16_23h30.26.299,ImageRatingTask_S5,2021.1.4,Win32,59.94125757,,,,,,,,,,,,,,,,,
,,,,,,,,,,,,0,6,6,6,1,seventh,10,33,female,R,IMT,2021-07-16_23h30.26.299,ImageRatingTask_S5,2021.1.4,Win32,59.94125757,,,,,,,,,,,,,,,,,
,,,,,,,,,,,,0,7,7,7,1,last,10,33,female,R,IMT,2021-07-16_23h30.26.299,ImageRatingTask_S5,2021.1.4,Win32,59.94125757,,,,,,,,,,,,,,,,,
,,,,,,,,,,,,,,,,,,10,33,female,R,IMT,2021-07-16_23h30.26.299,ImageRatingTask_S5,2021.1.4,Win32,59.94125757,0,64,64,1,1,DreamStudyImages_rs1000x750g/Water/IAPS5781_mistylake.jpg,,,,,,,,,,,
,,num_4,2.0084,num_3,2.2548,num_9,0.9894,num_1,1.4375,num_6,0.6893,0,0,0,0,1,main,10,33,female,R,IMT,2021-07-16_23h30.26.299,ImageRatingTask_S5,2021.1.4,Win32,59.94125757,,,,,,,,,,,,,,,,,
,,,,,,,,,,,,0,1,1,1,1,second,10,33,female,R,IMT,2021-07-16_23h30.26.299,ImageRatingTask_S5,2021.1.4,Win32,59.94125757,,,,,,,,,,,,,,,,,
,,,,,,,,,,,,0,2,2,2,1,third,10,33,female,R,IMT,2021-07-16_23h30.26.299,ImageRatingTask_S5,2021.1.4,Win32,59.94125757,,,,,,,,,,,,,,,,,
,,,,,,,,,,,,0,3,3,3,1,fourth,10,33,female,R,IMT,2021-07-16_23h30.26.299,ImageRatingTask_S5,2021.1.4,Win32,59.94125757,,,,,,,,,,,,,,,,,
,,,,,,,,,,,,0,4,4,4,1,fifth,10,33,female,R,IMT,2021-07-16_23h30.26.299,ImageRatingTask_S5,2021.1.4,Win32,59.94125757,,,,,,,,,,,,,,,,,
,,,,,,,,,,,,0,5,5,5,1,sixth,10,33,female,R,IMT,2021-07-16_23h30.26.299,ImageRatingTask_S5,2021.1.4,Win32,59.94125757,,,,,,,,,,,,,,,,,
,,,,,,,,,,,,0,6,6,6,1,seventh,10,33,female,R,IMT,2021-07-16_23h30.26.299,ImageRatingTask_S5,2021.1.4,Win32,59.94125757,,,,,,,,,,,,,,,,,
,,,,,,,,,,,,0,7,7,7,1,last,10,33,female,R,IMT,2021-07-16_23h30.26.299,ImageRatingTask_S5,2021.1.4,Win32,59.94125757,,,,,,,,,,,,,,,,,
,,,,,,,,,,,,,,,,,,10,33,female,R,IMT,2021-07-16_23h30.26.299,ImageRatingTask_S5,2021.1.4,Win32,59.94125757,0,65,65,59,1,DreamStudyImages_rs1000x750g/Houses/Landscapes_011_h.jpg,,,,,,,,,,,
,,num_5,6.0371,num_1,0.2457,num_9,0.3688,num_1,0.4009,num_5,1.6902,0,0,0,0,1,main,10,33,female,R,IMT,2021-07-16_23h30.26.299,ImageRatingTask_S5,2021.1.4,Win32,59.94125757,,,,,,,,,,,,,,,,,
,,,,,,,,,,,,0,1,1,1,1,second,10,33,female,R,IMT,2021-07-16_23h30.26.299,ImageRatingTask_S5,2021.1.4,Win32,59.94125757,,,,,,,,,,,,,,,,,
,,,,,,,,,,,,0,2,2,2,1,third,10,33,female,R,IMT,2021-07-16_23h30.26.299,ImageRatingTask_S5,2021.1.4,Win32,59.94125757,,,,,,,,,,,,,,,,,
,,,,,,,,,,,,0,3,3,3,1,fourth,10,33,female,R,IMT,2021-07-16_23h30.26.299,ImageRatingTask_S5,2021.1.4,Win32,59.94125757,,,,,,,,,,,,,,,,,
,,,,,,,,,,,,0,4,4,4,1,fifth,10,33,female,R,IMT,2021-07-16_23h30.26.299,ImageRatingTask_S5,2021.1.4,Win32,59.94125757,,,,,,,,,,,,,,,,,
,,,,,,,,,,,,0,5,5,5,1,sixth,10,33,female,R,IMT,2021-07-16_23h30.26.299,ImageRatingTask_S5,2021.1.4,Win32,59.94125757,,,,,,,,,,,,,,,,,
,,,,,,,,,,,,0,6,6,6,1,seventh,10,33,female,R,IMT,2021-07-16_23h30.26.299,ImageRatingTask_S5,2021.1.4,Win32,59.94125757,,,,,,,,,,,,,,,,,
,,,,,,,,,,,,0,7,7,7,1,last,10,33,female,R,IMT,2021-07-16_23h30.26.299,ImageRatingTask_S5,2021.1.4,Win32,59.94125757,,,,,,,,,,,,,,,,,
,,,,,,,,,,,,,,,,,,10,33,female,R,IMT,2021-07-16_23h30.26.299,ImageRatingTask_S5,2021.1.4,Win32,59.94125757,0,66,66,47,1,DreamStudyImages_rs1000x750g/Food/Birthday 1.jpg,,,,,,,,,,,
,,num_6,3.9047,num_1,1.0561,num_9,0.4801,num_1,0.7739,num_8,1.9601,0,0,0,0,1,main,10,33,female,R,IMT,2021-07-16_23h30.26.299,ImageRatingTask_S5,2021.1.4,Win32,59.94125757,,,,,,,,,,,,,,,,,
,,,,,,,,,,,,0,1,1,1,1,second,10,33,female,R,IMT,2021-07-16_23h30.26.299,ImageRatingTask_S5,2021.1.4,Win32,59.94125757,,,,,,,,,,,,,,,,,
,,,,,,,,,,,,0,2,2,2,1,third,10,33,female,R,IMT,2021-07-16_23h30.26.299,ImageRatingTask_S5,2021.1.4,Win32,59.94125757,,,,,,,,,,,,,,,,,
,,,,,,,,,,,,0,3,3,3,1,fourth,10,33,female,R,IMT,2021-07-16_23h30.26.299,ImageRatingTask_S5,2021.1.4,Win32,59.94125757,,,,,,,,,,,,,,,,,
,,,,,,,,,,,,0,4,4,4,1,fifth,10,33,female,R,IMT,2021-07-16_23h30.26.299,ImageRatingTask_S5,2021.1.4,Win32,59.94125757,,,,,,,,,,,,,,,,,
,,,,,,,,,,,,0,5,5,5,1,sixth,10,33,female,R,IMT,2021-07-16_23h30.26.299,ImageRatingTask_S5,2021.1.4,Win32,59.94125757,,,,,,,,,,,,,,,,,
,,,,,,,,,,,,0,6,6,6,1,seventh,10,33,female,R,IMT,2021-07-16_23h30.26.299,ImageRatingTask_S5,2021.1.4,Win32,59.94125757,,,,,,,,,,,,,,,,,
,,,,,,,,,,,,0,7,7,7,1,last,10,33,female,R,IMT,2021-07-16_23h30.26.299,ImageRatingTask_S5,2021.1.4,Win32,59.94125757,,,,,,,,,,,,,,,,,
,,,,,,,,,,,,,,,,,,10,33,female,R,IMT,2021-07-16_23h30.26.299,ImageRatingTask_S5,2021.1.4,Win32,59.94125757,0,67,67,90,1,DreamStudyImages_rs1000x750g/Water/Lake 12.jpg,,,,,,,,,,,
,,num_6,2.7899,num_1,0.7643,num_9,2.3182,num_1,2.2694,num_7,1.4747,0,0,0,0,1,main,10,33,female,R,IMT,2021-07-16_23h30.26.299,ImageRatingTask_S5,2021.1.4,Win32,59.94125757,,,,,,,,,,,,,,,,,
,,,,,,,,,,,,0,1,1,1,1,second,10,33,female,R,IMT,2021-07-16_23h30.26.299,ImageRatingTask_S5,2021.1.4,Win32,59.94125757,,,,,,,,,,,,,,,,,
,,,,,,,,,,,,0,2,2,2,1,third,10,33,female,R,IMT,2021-07-16_23h30.26.299,ImageRatingTask_S5,2021.1.4,Win32,59.94125757,,,,,,,,,,,,,,,,,
,,,,,,,,,,,,0,3,3,3,1,fourth,10,33,female,R,IMT,2021-07-16_23h30.26.299,ImageRatingTask_S5,2021.1.4,Win32,59.94125757,,,,,,,,,,,,,,,,,
,,,,,,,,,,,,0,4,4,4,1,fifth,10,33,female,R,IMT,2021-07-16_23h30.26.299,ImageRatingTask_S5,2021.1.4,Win32,59.94125757,,,,,,,,,,,,,,,,,
,,,,,,,,,,,,0,5,5,5,1,sixth,10,33,female,R,IMT,2021-07-16_23h30.26.299,ImageRatingTask_S5,2021.1.4,Win32,59.94125757,,,,,,,,,,,,,,,,,
,,,,,,,,,,,,0,6,6,6,1,seventh,10,33,female,R,IMT,2021-07-16_23h30.26.299,ImageRatingTask_S5,2021.1.4,Win32,59.94125757,,,,,,,,,,,,,,,,,
,,,,,,,,,,,,0,7,7,7,1,last,10,33,female,R,IMT,2021-07-16_23h30.26.299,ImageRatingTask_S5,2021.1.4,Win32,59.94125757,,,,,,,,,,,,,,,,,
,,,,,,,,,,,,,,,,,,10,33,female,R,IMT,2021-07-16_23h30.26.299,ImageRatingTask_S5,2021.1.4,Win32,59.94125757,0,68,68,93,1,DreamStudyImages_rs1000x750g/Vehicles/retrolocomotive.jpg,,,,,,,,,,,
,,num_6,1.7967,num_1,0.4245,num_9,0.6071,num_1,2.6576,num_2,0.3775,0,0,0,0,1,main,10,33,female,R,IMT,2021-07-16_23h30.26.299,ImageRatingTask_S5,2021.1.4,Win32,59.94125757,,,,,,,,,,,,,,,,,
,,,,,,,,,,,,0,1,1,1,1,second,10,33,female,R,IMT,2021-07-16_23h30.26.299,ImageRatingTask_S5,2021.1.4,Win32,59.94125757,,,,,,,,,,,,,,,,,
,,,,,,,,,,,,0,2,2,2,1,third,10,33,female,R,IMT,2021-07-16_23h30.26.299,ImageRatingTask_S5,2021.1.4,Win32,59.94125757,,,,,,,,,,,,,,,,,
,,,,,,,,,,,,0,3,3,3,1,fourth,10,33,female,R,IMT,2021-07-16_23h30.26.299,ImageRatingTask_S5,2021.1.4,Win32,59.94125757,,,,,,,,,,,,,,,,,
,,,,,,,,,,,,0,4,4,4,1,fifth,10,33,female,R,IMT,2021-07-16_23h30.26.299,ImageRatingTask_S5,2021.1.4,Win32,59.94125757,,,,,,,,,,,,,,,,,
,,,,,,,,,,,,0,5,5,5,1,sixth,10,33,female,R,IMT,2021-07-16_23h30.26.299,ImageRatingTask_S5,2021.1.4,Win32,59.94125757,,,,,,,,,,,,,,,,,
,,,,,,,,,,,,0,6,6,6,1,seventh,10,33,female,R,IMT,2021-07-16_23h30.26.299,ImageRatingTask_S5,2021.1.4,Win32,59.94125757,,,,,,,,,,,,,,,,,
,,,,,,,,,,,,0,7,7,7,1,last,10,33,female,R,IMT,2021-07-16_23h30.26.299,ImageRatingTask_S5,2021.1.4,Win32,59.94125757,,,,,,,,,,,,,,,,,
,,,,,,,,,,,,,,,,,,10,33,female,R,IMT,2021-07-16_23h30.26.299,ImageRatingTask_S5,2021.1.4,Win32,59.94125757,0,69,69,115,1,DreamStudyImages_rs1000x750g/Children/Excited face 7.jpg,,,,,,,,,,,
,,num_6,2.1253,num_1,1.7418,num_9,0.4026,num_1,3.5403,num_3,1.6384,0,0,0,0,1,main,10,33,female,R,IMT,2021-07-16_23h30.26.299,ImageRatingTask_S5,2021.1.4,Win32,59.94125757,,,,,,,,,,,,,,,,,
,,,,,,,,,,,,0,1,1,1,1,second,10,33,female,R,IMT,2021-07-16_23h30.26.299,ImageRatingTask_S5,2021.1.4,Win32,59.94125757,,,,,,,,,,,,,,,,,
,,,,,,,,,,,,0,2,2,2,1,third,10,33,female,R,IMT,2021-07-16_23h30.26.299,ImageRatingTask_S5,2021.1.4,Win32,59.94125757,,,,,,,,,,,,,,,,,
,,,,,,,,,,,,0,3,3,3,1,fourth,10,33,female,R,IMT,2021-07-16_23h30.26.299,ImageRatingTask_S5,2021.1.4,Win32,59.94125757,,,,,,,,,,,,,,,,,
,,,,,,,,,,,,0,4,4,4,1,fifth,10,33,female,R,IMT,2021-07-16_23h30.26.299,ImageRatingTask_S5,2021.1.4,Win32,59.94125757,,,,,,,,,,,,,,,,,
,,,,,,,,,,,,0,5,5,5,1,sixth,10,33,female,R,IMT,2021-07-16_23h30.26.299,ImageRatingTask_S5,2021.1.4,Win32,59.94125757,,,,,,,,,,,,,,,,,
,,,,,,,,,,,,0,6,6,6,1,seventh,10,33,female,R,IMT,2021-07-16_23h30.26.299,ImageRatingTask_S5,2021.1.4,Win32,59.94125757,,,,,,,,,,,,,,,,,
,,,,,,,,,,,,0,7,7,7,1,last,10,33,female,R,IMT,2021-07-16_23h30.26.299,ImageRatingTask_S5,2021.1.4,Win32,59.94125757,,,,,,,,,,,,,,,,,
,,,,,,,,,,,,,,,,,,10,33,female,R,IMT,2021-07-16_23h30.26.299,ImageRatingTask_S5,2021.1.4,Win32,59.94125757,0,70,70,63,1,DreamStudyImages_rs1000x750g/Mammals/Animals_197_h.jpg,,,,,,,,,,,
,,num_4,1.9246,num_5,2.3774,num_9,0.8296,num_1,4.0956,num_6,1.3949,0,0,0,0,1,main,10,33,female,R,IMT,2021-07-16_23h30.26.299,ImageRatingTask_S5,2021.1.4,Win32,59.94125757,,,,,,,,,,,,,,,,,
,,,,,,,,,,,,0,1,1,1,1,second,10,33,female,R,IMT,2021-07-16_23h30.26.299,ImageRatingTask_S5,2021.1.4,Win32,59.94125757,,,,,,,,,,,,,,,,,
,,,,,,,,,,,,0,2,2,2,1,third,10,33,female,R,IMT,2021-07-16_23h30.26.299,ImageRatingTask_S5,2021.1.4,Win32,59.94125757,,,,,,,,,,,,,,,,,
,,,,,,,,,,,,0,3,3,3,1,fourth,10,33,female,R,IMT,2021-07-16_23h30.26.299,ImageRatingTask_S5,2021.1.4,Win32,59.94125757,,,,,,,,,,,,,,,,,
,,,,,,,,,,,,0,4,4,4,1,fifth,10,33,female,R,IMT,2021-07-16_23h30.26.299,ImageRatingTask_S5,2021.1.4,Win32,59.94125757,,,,,,,,,,,,,,,,,
,,,,,,,,,,,,0,5,5,5,1,sixth,10,33,female,R,IMT,2021-07-16_23h30.26.299,ImageRatingTask_S5,2021.1.4,Win32,59.94125757,,,,,,,,,,,,,,,,,
,,,,,,,,,,,,0,6,6,6,1,seventh,10,33,female,R,IMT,2021-07-16_23h30.26.299,ImageRatingTask_S5,2021.1.4,Win32,59.94125757,,,,,,,,,,,,,,,,,
,,,,,,,,,,,,0,7,7,7,1,last,10,33,female,R,IMT,2021-07-16_23h30.26.299,ImageRatingTask_S5,2021.1.4,Win32,59.94125757,,,,,,,,,,,,,,,,,
,,,,,,,,,,,,,,,,,,10,33,female,R,IMT,2021-07-16_23h30.26.299,ImageRatingTask_S5,2021.1.4,Win32,59.94125757,0,71,71,104,1,DreamStudyImages_rs1000x750g/Houses/IAPS9623_housefire.jpg,,,,,,,,,,,
,,num_5,5.0424,num_1,0.3324,num_9,0.4862,num_1,1.1072,num_5,0.3748,0,0,0,0,1,main,10,33,female,R,IMT,2021-07-16_23h30.26.299,ImageRatingTask_S5,2021.1.4,Win32,59.94125757,,,,,,,,,,,,,,,,,
,,,,,,,,,,,,0,1,1,1,1,second,10,33,female,R,IMT,2021-07-16_23h30.26.299,ImageRatingTask_S5,2021.1.4,Win32,59.94125757,,,,,,,,,,,,,,,,,
,,,,,,,,,,,,0,2,2,2,1,third,10,33,female,R,IMT,2021-07-16_23h30.26.299,ImageRatingTask_S5,2021.1.4,Win32,59.94125757,,,,,,,,,,,,,,,,,
,,,,,,,,,,,,0,3,3,3,1,fourth,10,33,female,R,IMT,2021-07-16_23h30.26.299,ImageRatingTask_S5,2021.1.4,Win32,59.94125757,,,,,,,,,,,,,,,,,
,,,,,,,,,,,,0,4,4,4,1,fifth,10,33,female,R,IMT,2021-07-16_23h30.26.299,ImageRatingTask_S5,2021.1.4,Win32,59.94125757,,,,,,,,,,,,,,,,,
,,,,,,,,,,,,0,5,5,5,1,sixth,10,33,female,R,IMT,2021-07-16_23h30.26.299,ImageRatingTask_S5,2021.1.4,Win32,59.94125757,,,,,,,,,,,,,,,,,
,,,,,,,,,,,,0,6,6,6,1,seventh,10,33,female,R,IMT,2021-07-16_23h30.26.299,ImageRatingTask_S5,2021.1.4,Win32,59.94125757,,,,,,,,,,,,,,,,,
,,,,,,,,,,,,0,7,7,7,1,last,10,33,female,R,IMT,2021-07-16_23h30.26.299,ImageRatingTask_S5,2021.1.4,Win32,59.94125757,,,,,,,,,,,,,,,,,
,,,,,,,,,,,,,,,,,,10,33,female,R,IMT,2021-07-16_23h30.26.299,ImageRatingTask_S5,2021.1.4,Win32,59.94125757,0,72,72,137,1,DreamStudyImages_rs1000x750g/Food/IAPS7200_brownie.jpg,,,,,,,,,,,
,,num_5,2.4838,num_1,0.3419,num_9,0.4793,num_1,1.6576,num_7,1.2814,0,0,0,0,1,main,10,33,female,R,IMT,2021-07-16_23h30.26.299,ImageRatingTask_S5,2021.1.4,Win32,59.94125757,,,,,,,,,,,,,,,,,
,,,,,,,,,,,,0,1,1,1,1,second,10,33,female,R,IMT,2021-07-16_23h30.26.299,ImageRatingTask_S5,2021.1.4,Win32,59.94125757,,,,,,,,,,,,,,,,,
,,,,,,,,,,,,0,2,2,2,1,third,10,33,female,R,IMT,2021-07-16_23h30.26.299,ImageRatingTask_S5,2021.1.4,Win32,59.94125757,,,,,,,,,,,,,,,,,
,,,,,,,,,,,,0,3,3,3,1,fourth,10,33,female,R,IMT,2021-07-16_23h30.26.299,ImageRatingTask_S5,2021.1.4,Win32,59.94125757,,,,,,,,,,,,,,,,,
,,,,,,,,,,,,0,4,4,4,1,fifth,10,33,female,R,IMT,2021-07-16_23h30.26.299,ImageRatingTask_S5,2021.1.4,Win32,59.94125757,,,,,,,,,,,,,,,,,
,,,,,,,,,,,,0,5,5,5,1,sixth,10,33,female,R,IMT,2021-07-16_23h30.26.299,ImageRatingTask_S5,2021.1.4,Win32,59.94125757,,,,,,,,,,,,,,,,,
,,,,,,,,,,,,0,6,6,6,1,seventh,10,33,female,R,IMT,2021-07-16_23h30.26.299,ImageRatingTask_S5,2021.1.4,Win32,59.94125757,,,,,,,,,,,,,,,,,
,,,,,,,,,,,,0,7,7,7,1,last,10,33,female,R,IMT,2021-07-16_23h30.26.299,ImageRatingTask_S5,2021.1.4,Win32,59.94125757,,,,,,,,,,,,,,,,,
,,,,,,,,,,,,,,,,,,10,33,female,R,IMT,2021-07-16_23h30.26.299,ImageRatingTask_S5,2021.1.4,Win32,59.94125757,0,73,73,0,1,DreamStudyImages_rs1000x750g/Vehicles/Objects_305_h.jpg,,,,,,,,,,,
,,num_2,17.2631,num_8,1.1401,num_9,0.7636,num_1,0.5663,num_2,0.7639,0,0,0,0,1,main,10,33,female,R,IMT,2021-07-16_23h30.26.299,ImageRatingTask_S5,2021.1.4,Win32,59.94125757,,,,,,,,,,,,,,,,,
,,,,,,,,,,,,0,1,1,1,1,second,10,33,female,R,IMT,2021-07-16_23h30.26.299,ImageRatingTask_S5,2021.1.4,Win32,59.94125757,,,,,,,,,,,,,,,,,
,,,,,,,,,,,,0,2,2,2,1,third,10,33,female,R,IMT,2021-07-16_23h30.26.299,ImageRatingTask_S5,2021.1.4,Win32,59.94125757,,,,,,,,,,,,,,,,,
,,,,,,,,,,,,0,3,3,3,1,fourth,10,33,female,R,IMT,2021-07-16_23h30.26.299,ImageRatingTask_S5,2021.1.4,Win32,59.94125757,,,,,,,,,,,,,,,,,
,,,,,,,,,,,,0,4,4,4,1,fifth,10,33,female,R,IMT,2021-07-16_23h30.26.299,ImageRatingTask_S5,2021.1.4,Win32,59.94125757,,,,,,,,,,,,,,,,,
,,,,,,,,,,,,0,5,5,5,1,sixth,10,33,female,R,IMT,2021-07-16_23h30.26.299,ImageRatingTask_S5,2021.1.4,Win32,59.94125757,,,,,,,,,,,,,,,,,
,,,,,,,,,,,,0,6,6,6,1,seventh,10,33,female,R,IMT,2021-07-16_23h30.26.299,ImageRatingTask_S5,2021.1.4,Win32,59.94125757,,,,,,,,,,,,,,,,,
,,,,,,,,,,,,0,7,7,7,1,last,10,33,female,R,IMT,2021-07-16_23h30.26.299,ImageRatingTask_S5,2021.1.4,Win32,59.94125757,,,,,,,,,,,,,,,,,
,,,,,,,,,,,,,,,,,,10,33,female,R,IMT,2021-07-16_23h30.26.299,ImageRatingTask_S5,2021.1.4,Win32,59.94125757,0,74,74,98,1,DreamStudyImages_rs1000x750g/Children/IAPS9041_child9.jpg,,,,,,,,,,,
,,num_5,1.1767,num_1,0.1425,num_9,0.8943,num_1,0.4267,num_7,1.6446,0,0,0,0,1,main,10,33,female,R,IMT,2021-07-16_23h30.26.299,ImageRatingTask_S5,2021.1.4,Win32,59.94125757,,,,,,,,,,,,,,,,,
,,,,,,,,,,,,0,1,1,1,1,second,10,33,female,R,IMT,2021-07-16_23h30.26.299,ImageRatingTask_S5,2021.1.4,Win32,59.94125757,,,,,,,,,,,,,,,,,
,,,,,,,,,,,,0,2,2,2,1,third,10,33,female,R,IMT,2021-07-16_23h30.26.299,ImageRatingTask_S5,2021.1.4,Win32,59.94125757,,,,,,,,,,,,,,,,,
,,,,,,,,,,,,0,3,3,3,1,fourth,10,33,female,R,IMT,2021-07-16_23h30.26.299,ImageRatingTask_S5,2021.1.4,Win32,59.94125757,,,,,,,,,,,,,,,,,
,,,,,,,,,,,,0,4,4,4,1,fifth,10,33,female,R,IMT,2021-07-16_23h30.26.299,ImageRatingTask_S5,2021.1.4,Win32,59.94125757,,,,,,,,,,,,,,,,,
