slider_pre.response,slider_pre.rt,key_val.keys,key_val.rt,key_aro.keys,key_aro.rt,key_qual.keys,key_qual.rt,key_ncat.keys,key_ncat.rt,key_cats.keys,key_cats.rt,ncat_order.thisRepN,ncat_order.thisTrialN,ncat_order.thisN,ncat_order.thisIndex,ncat_order.ran,cond_cat,participant,age,gender,handedness (L/R),site (IMT/Donders),date,expName,psychopyVersion,OS,frameRate,img_trials.thisRepN,img_trials.thisTrialN,img_trials.thisN,img_trials.thisIndex,img_trials.ran,filename,slider_post.response,slider_post.rt,textbox_openfb.text
4,2.58,5,3.031,1,0.524,7,1.636,1,1.427,7,0.823,0,0,0,0,1,main,12,28,female,L,IMT,2021-07-14_15h18.23.576,ImageRatingTask_S4,2021.1.4,MacIntel,55.55555556,,,,,,,,,
,,,,,,,,,,,,0,1,1,1,1,second,12,28,female,L,IMT,2021-07-14_15h18.23.576,ImageRatingTask_S4,2021.1.4,MacIntel,55.55555556,,,,,,,,,
,,,,,,,,,,,,0,2,2,2,1,third,12,28,female,L,IMT,2021-07-14_15h18.23.576,ImageRatingTask_S4,2021.1.4,MacIntel,55.55555556,,,,,,,,,
,,,,,,,,,,,,0,3,3,3,1,fourth,12,28,female,L,IMT,2021-07-14_15h18.23.576,ImageRatingTask_S4,2021.1.4,MacIntel,55.55555556,,,,,,,,,
,,,,,,,,,,,,0,4,4,4,1,fifth,12,28,female,L,IMT,2021-07-14_15h18.23.576,ImageRatingTask_S4,2021.1.4,MacIntel,55.55555556,,,,,,,,,
,,,,,,,,,,,,0,5,5,5,1,sixth,12,28,female,L,IMT,2021-07-14_15h18.23.576,ImageRatingTask_S4,2021.1.4,MacIntel,55.55555556,,,,,,,,,
,,,,,,,,,,,,0,6,6,6,1,seventh,12,28,female,L,IMT,2021-07-14_15h18.23.576,ImageRatingTask_S4,2021.1.4,MacIntel,55.55555556,,,,,,,,,
,,,,,,,,,,,,0,7,7,7,1,last,12,28,female,L,IMT,2021-07-14_15h18.23.576,ImageRatingTask_S4,2021.1.4,MacIntel,55.55555556,,,,,,,,,
,,,,,,,,,,,,,,,,,,12,28,female,L,IMT,2021-07-14_15h18.23.576,ImageRatingTask_S4,2021.1.4,MacIntel,55.55555556,0,0,0,143,1,DreamStudyImages_rs1000x750g/Vehicles/retrolocomotive.jpg,,,
,,6,3.073,1,1.357,6,1.498,1,0.755,8,0.921,0,0,0,0,1,main,12,28,female,L,IMT,2021-07-14_15h18.23.576,ImageRatingTask_S4,2021.1.4,MacIntel,55.55555556,,,,,,,,,
,,,,,,,,,,,,0,1,1,1,1,second,12,28,female,L,IMT,2021-07-14_15h18.23.576,ImageRatingTask_S4,2021.1.4,MacIntel,55.55555556,,,,,,,,,
,,,,,,,,,,,,0,2,2,2,1,third,12,28,female,L,IMT,2021-07-14_15h18.23.576,ImageRatingTask_S4,2021.1.4,MacIntel,55.55555556,,,,,,,,,
,,,,,,,,,,,,0,3,3,3,1,fourth,12,28,female,L,IMT,2021-07-14_15h18.23.576,ImageRatingTask_S4,2021.1.4,MacIntel,55.55555556,,,,,,,,,
,,,,,,,,,,,,0,4,4,4,1,fifth,12,28,female,L,IMT,2021-07-14_15h18.23.576,ImageRatingTask_S4,2021.1.4,MacIntel,55.55555556,,,,,,,,,
,,,,,,,,,,,,0,5,5,5,1,sixth,12,28,female,L,IMT,2021-07-14_15h18.23.576,ImageRatingTask_S4,2021.1.4,MacIntel,55.55555556,,,,,,,,,
,,,,,,,,,,,,0,6,6,6,1,seventh,12,28,female,L,IMT,2021-07-14_15h18.23.576,ImageRatingTask_S4,2021.1.4,MacIntel,55.55555556,,,,,,,,,
,,,,,,,,,,,,0,7,7,7,1,last,12,28,female,L,IMT,2021-07-14_15h18.23.576,ImageRatingTask_S4,2021.1.4,MacIntel,55.55555556,,,,,,,,,
,,,,,,,,,,,,,,,,,,12,28,female,L,IMT,2021-07-14_15h18.23.576,ImageRatingTask_S4,2021.1.4,MacIntel,55.55555556,0,1,1,120,1,DreamStudyImages_rs1000x750g/Water/Lake 5.jpg,,,
,,5,1.751,1,0.522,5,1.324,1,0.53,7,0.592,0,0,0,0,1,main,12,28,female,L,IMT,2021-07-14_15h18.23.576,ImageRatingTask_S4,2021.1.4,MacIntel,55.55555556,,,,,,,,,
,,,,,,,,,,,,0,1,1,1,1,second,12,28,female,L,IMT,2021-07-14_15h18.23.576,ImageRatingTask_S4,2021.1.4,MacIntel,55.55555556,,,,,,,,,
,,,,,,,,,,,,0,2,2,2,1,third,12,28,female,L,IMT,2021-07-14_15h18.23.576,ImageRatingTask_S4,2021.1.4,MacIntel,55.55555556,,,,,,,,,
,,,,,,,,,,,,0,3,3,3,1,fourth,12,28,female,L,IMT,2021-07-14_15h18.23.576,ImageRatingTask_S4,2021.1.4,MacIntel,55.55555556,,,,,,,,,
,,,,,,,,,,,,0,4,4,4,1,fifth,12,28,female,L,IMT,2021-07-14_15h18.23.576,ImageRatingTask_S4,2021.1.4,MacIntel,55.55555556,,,,,,,,,
,,,,,,,,,,,,0,5,5,5,1,sixth,12,28,female,L,IMT,2021-07-14_15h18.23.576,ImageRatingTask_S4,2021.1.4,MacIntel,55.55555556,,,,,,,,,
,,,,,,,,,,,,0,6,6,6,1,seventh,12,28,female,L,IMT,2021-07-14_15h18.23.576,ImageRatingTask_S4,2021.1.4,MacIntel,55.55555556,,,,,,,,,
,,,,,,,,,,,,0,7,7,7,1,last,12,28,female,L,IMT,2021-07-14_15h18.23.576,ImageRatingTask_S4,2021.1.4,MacIntel,55.55555556,,,,,,,,,
,,,,,,,,,,,,,,,,,,12,28,female,L,IMT,2021-07-14_15h18.23.576,ImageRatingTask_S4,2021.1.4,MacIntel,55.55555556,0,2,2,103,1,DreamStudyImages_rs1000x750g/Vehicles/Car accident 2.jpg,,,
,,7,1.465,3,0.796,8,2.808,1,1.163,3,0.963,0,0,0,0,1,main,12,28,female,L,IMT,2021-07-14_15h18.23.576,ImageRatingTask_S4,2021.1.4,MacIntel,55.55555556,,,,,,,,,
,,,,,,,,,,,,0,1,1,1,1,second,12,28,female,L,IMT,2021-07-14_15h18.23.576,ImageRatingTask_S4,2021.1.4,MacIntel,55.55555556,,,,,,,,,
,,,,,,,,,,,,0,2,2,2,1,third,12,28,female,L,IMT,2021-07-14_15h18.23.576,ImageRatingTask_S4,2021.1.4,MacIntel,55.55555556,,,,,,,,,
,,,,,,,,,,,,0,3,3,3,1,fourth,12,28,female,L,IMT,2021-07-14_15h18.23.576,ImageRatingTask_S4,2021.1.4,MacIntel,55.55555556,,,,,,,,,
,,,,,,,,,,,,0,4,4,4,1,fifth,12,28,female,L,IMT,2021-07-14_15h18.23.576,ImageRatingTask_S4,2021.1.4,MacIntel,55.55555556,,,,,,,,,
,,,,,,,,,,,,0,5,5,5,1,sixth,12,28,female,L,IMT,2021-07-14_15h18.23.576,ImageRatingTask_S4,2021.1.4,MacIntel,55.55555556,,,,,,,,,
,,,,,,,,,,,,0,6,6,6,1,seventh,12,28,female,L,IMT,2021-07-14_15h18.23.576,ImageRatingTask_S4,2021.1.4,MacIntel,55.55555556,,,,,,,,,
,,,,,,,,,,,,0,7,7,7,1,last,12,28,female,L,IMT,2021-07-14_15h18.23.576,ImageRatingTask_S4,2021.1.4,MacIntel,55.55555556,,,,,,,,,
,,,,,,,,,,,,,,,,,,12,28,female,L,IMT,2021-07-14_15h18.23.576,ImageRatingTask_S4,2021.1.4,MacIntel,55.55555556,0,3,3,104,1,DreamStudyImages_rs1000x750g/Mammals/Animals_133_h.jpg,,,
,,5,227.824,1,0.977,6,1.408,0,1.458,,,0,0,0,0,1,main,12,28,female,L,IMT,2021-07-14_15h18.23.576,ImageRatingTask_S4,2021.1.4,MacIntel,55.55555556,,,,,,,,,
,,,,,,,,,,,,0,1,1,1,1,second,12,28,female,L,IMT,2021-07-14_15h18.23.576,ImageRatingTask_S4,2021.1.4,MacIntel,55.55555556,,,,,,,,,
,,,,,,,,,,,,0,2,2,2,1,third,12,28,female,L,IMT,2021-07-14_15h18.23.576,ImageRatingTask_S4,2021.1.4,MacIntel,55.55555556,,,,,,,,,
,,,,,,,,,,,,0,3,3,3,1,fourth,12,28,female,L,IMT,2021-07-14_15h18.23.576,ImageRatingTask_S4,2021.1.4,MacIntel,55.55555556,,,,,,,,,
,,,,,,,,,,,,0,4,4,4,1,fifth,12,28,female,L,IMT,2021-07-14_15h18.23.576,ImageRatingTask_S4,2021.1.4,MacIntel,55.55555556,,,,,,,,,
,,,,,,,,,,,,0,5,5,5,1,sixth,12,28,female,L,IMT,2021-07-14_15h18.23.576,ImageRatingTask_S4,2021.1.4,MacIntel,55.55555556,,,,,,,,,
,,,,,,,,,,,,0,6,6,6,1,seventh,12,28,female,L,IMT,2021-07-14_15h18.23.576,ImageRatingTask_S4,2021.1.4,MacIntel,55.55555556,,,,,,,,,
,,,,,,,,,,,,0,7,7,7,1,last,12,28,female,L,IMT,2021-07-14_15h18.23.576,ImageRatingTask_S4,2021.1.4,MacIntel,55.55555556,,,,,,,,,
,,,,,,,,,,,,,,,,,,12,28,female,L,IMT,2021-07-14_15h18.23.576,ImageRatingTask_S4,2021.1.4,MacIntel,55.55555556,0,4,4,107,1,DreamStudyImages_rs1000x750g/Vehicles/Landscapes_028_h.jpg,,,
,,4,1.27,1,0.808,7,4.428,1,0.96,8,0.455,0,0,0,0,1,main,12,28,female,L,IMT,2021-07-14_15h18.23.576,ImageRatingTask_S4,2021.1.4,MacIntel,55.55555556,,,,,,,,,
,,,,,,,,,,,,0,1,1,1,1,second,12,28,female,L,IMT,2021-07-14_15h18.23.576,ImageRatingTask_S4,2021.1.4,MacIntel,55.55555556,,,,,,,,,
,,,,,,,,,,,,0,2,2,2,1,third,12,28,female,L,IMT,2021-07-14_15h18.23.576,ImageRatingTask_S4,2021.1.4,MacIntel,55.55555556,,,,,,,,,
,,,,,,,,,,,,0,3,3,3,1,fourth,12,28,female,L,IMT,2021-07-14_15h18.23.576,ImageRatingTask_S4,2021.1.4,MacIntel,55.55555556,,,,,,,,,
,,,,,,,,,,,,0,4,4,4,1,fifth,12,28,female,L,IMT,2021-07-14_15h18.23.576,ImageRatingTask_S4,2021.1.4,MacIntel,55.55555556,,,,,,,,,
,,,,,,,,,,,,0,5,5,5,1,sixth,12,28,female,L,IMT,2021-07-14_15h18.23.576,ImageRatingTask_S4,2021.1.4,MacIntel,55.55555556,,,,,,,,,
,,,,,,,,,,,,0,6,6,6,1,seventh,12,28,female,L,IMT,2021-07-14_15h18.23.576,ImageRatingTask_S4,2021.1.4,MacIntel,55.55555556,,,,,,,,,
,,,,,,,,,,,,0,7,7,7,1,last,12,28,female,L,IMT,2021-07-14_15h18.23.576,ImageRatingTask_S4,2021.1.4,MacIntel,55.55555556,,,,,,,,,
,,,,,,,,,,,,,,,,,,12,28,female,L,IMT,2021-07-14_15h18.23.576,ImageRatingTask_S4,2021.1.4,MacIntel,55.55555556,0,5,5,26,1,DreamStudyImages_rs1000x750g/Water/89.jpg,,,
,,4,3.239,1,0.669,5,1.234,1,0.626,2,0.314,0,0,0,0,1,main,12,28,female,L,IMT,2021-07-14_15h18.23.576,ImageRatingTask_S4,2021.1.4,MacIntel,55.55555556,,,,,,,,,
,,,,,,,,,,,,0,1,1,1,1,second,12,28,female,L,IMT,2021-07-14_15h18.23.576,ImageRatingTask_S4,2021.1.4,MacIntel,55.55555556,,,,,,,,,
,,,,,,,,,,,,0,2,2,2,1,third,12,28,female,L,IMT,2021-07-14_15h18.23.576,ImageRatingTask_S4,2021.1.4,MacIntel,55.55555556,,,,,,,,,
,,,,,,,,,,,,0,3,3,3,1,fourth,12,28,female,L,IMT,2021-07-14_15h18.23.576,ImageRatingTask_S4,2021.1.4,MacIntel,55.55555556,,,,,,,,,
,,,,,,,,,,,,0,4,4,4,1,fifth,12,28,female,L,IMT,2021-07-14_15h18.23.576,ImageRatingTask_S4,2021.1.4,MacIntel,55.55555556,,,,,,,,,
,,,,,,,,,,,,0,5,5,5,1,sixth,12,28,female,L,IMT,2021-07-14_15h18.23.576,ImageRatingTask_S4,2021.1.4,MacIntel,55.55555556,,,,,,,,,
,,,,,,,,,,,,0,6,6,6,1,seventh,12,28,female,L,IMT,2021-07-14_15h18.23.576,ImageRatingTask_S4,2021.1.4,MacIntel,55.55555556,,,,,,,,,
,,,,,,,,,,,,0,7,7,7,1,last,12,28,female,L,IMT,2021-07-14_15h18.23.576,ImageRatingTask_S4,2021.1.4,MacIntel,55.55555556,,,,,,,,,
,,,,,,,,,,,,,,,,,,12,28,female,L,IMT,2021-07-14_15h18.23.576,ImageRatingTask_S4,2021.1.4,MacIntel,55.55555556,0,6,6,13,1,DreamStudyImages_rs1000x750g/Children/People_034_h.jpg,,,
,,5,1.21,1,0.424,7,1.381,1,0.761,7,0.474,0,0,0,0,1,main,12,28,female,L,IMT,2021-07-14_15h18.23.576,ImageRatingTask_S4,2021.1.4,MacIntel,55.55555556,,,,,,,,,
,,,,,,,,,,,,0,1,1,1,1,second,12,28,female,L,IMT,2021-07-14_15h18.23.576,ImageRatingTask_S4,2021.1.4,MacIntel,55.55555556,,,,,,,,,
,,,,,,,,,,,,0,2,2,2,1,third,12,28,female,L,IMT,2021-07-14_15h18.23.576,ImageRatingTask_S4,2021.1.4,MacIntel,55.55555556,,,,,,,,,
,,,,,,,,,,,,0,3,3,3,1,fourth,12,28,female,L,IMT,2021-07-14_15h18.23.576,ImageRatingTask_S4,2021.1.4,MacIntel,55.55555556,,,,,,,,,
,,,,,,,,,,,,0,4,4,4,1,fifth,12,28,female,L,IMT,2021-07-14_15h18.23.576,ImageRatingTask_S4,2021.1.4,MacIntel,55.55555556,,,,,,,,,
,,,,,,,,,,,,0,5,5,5,1,sixth,12,28,female,L,IMT,2021-07-14_15h18.23.576,ImageRatingTask_S4,2021.1.4,MacIntel,55.55555556,,,,,,,,,
,,,,,,,,,,,,0,6,6,6,1,seventh,12,28,female,L,IMT,2021-07-14_15h18.23.576,ImageRatingTask_S4,2021.1.4,MacIntel,55.55555556,,,,,,,,,
,,,,,,,,,,,,0,7,7,7,1,last,12,28,female,L,IMT,2021-07-14_15h18.23.576,ImageRatingTask_S4,2021.1.4,MacIntel,55.55555556,,,,,,,,,
,,,,,,,,,,,,,,,,,,12,28,female,L,IMT,2021-07-14_15h18.23.576,ImageRatingTask_S4,2021.1.4,MacIntel,55.55555556,0,7,7,25,1,DreamStudyImages_rs1000x750g/Vehicles/Objects_305_h.jpg,,,
,,4,1.537,1,0.491,7,2.509,0,1.748,,,0,0,0,0,1,main,12,28,female,L,IMT,2021-07-14_15h18.23.576,ImageRatingTask_S4,2021.1.4,MacIntel,55.55555556,,,,,,,,,
,,,,,,,,,,,,0,1,1,1,1,second,12,28,female,L,IMT,2021-07-14_15h18.23.576,ImageRatingTask_S4,2021.1.4,MacIntel,55.55555556,,,,,,,,,
,,,,,,,,,,,,0,2,2,2,1,third,12,28,female,L,IMT,2021-07-14_15h18.23.576,ImageRatingTask_S4,2021.1.4,MacIntel,55.55555556,,,,,,,,,
,,,,,,,,,,,,0,3,3,3,1,fourth,12,28,female,L,IMT,2021-07-14_15h18.23.576,ImageRatingTask_S4,2021.1.4,MacIntel,55.55555556,,,,,,,,,
,,,,,,,,,,,,0,4,4,4,1,fifth,12,28,female,L,IMT,2021-07-14_15h18.23.576,ImageRatingTask_S4,2021.1.4,MacIntel,55.55555556,,,,,,,,,
,,,,,,,,,,,,0,5,5,5,1,sixth,12,28,female,L,IMT,2021-07-14_15h18.23.576,ImageRatingTask_S4,2021.1.4,MacIntel,55.55555556,,,,,,,,,
,,,,,,,,,,,,0,6,6,6,1,seventh,12,28,female,L,IMT,2021-07-14_15h18.23.576,ImageRatingTask_S4,2021.1.4,MacIntel,55.55555556,,,,,,,,,
,,,,,,,,,,,,0,7,7,7,1,last,12,28,female,L,IMT,2021-07-14_15h18.23.576,ImageRatingTask_S4,2021.1.4,MacIntel,55.55555556,,,,,,,,,
,,,,,,,,,,,,,,,,,,12,28,female,L,IMT,2021-07-14_15h18.23.576,ImageRatingTask_S4,2021.1.4,MacIntel,55.55555556,0,8,8,141,1,DreamStudyImages_rs1000x750g/Water/Landscapes_129_v.jpg,,,
,,5,2.085,1,0.445,7,1.554,1,1.057,7,0.321,0,0,0,0,1,main,12,28,female,L,IMT,2021-07-14_15h18.23.576,ImageRatingTask_S4,2021.1.4,MacIntel,55.55555556,,,,,,,,,
,,,,,,,,,,,,0,1,1,1,1,second,12,28,female,L,IMT,2021-07-14_15h18.23.576,ImageRatingTask_S4,2021.1.4,MacIntel,55.55555556,,,,,,,,,
,,,,,,,,,,,,0,2,2,2,1,third,12,28,female,L,IMT,2021-07-14_15h18.23.576,ImageRatingTask_S4,2021.1.4,MacIntel,55.55555556,,,,,,,,,
,,,,,,,,,,,,0,3,3,3,1,fourth,12,28,female,L,IMT,2021-07-14_15h18.23.576,ImageRatingTask_S4,2021.1.4,MacIntel,55.55555556,,,,,,,,,
,,,,,,,,,,,,0,4,4,4,1,fifth,12,28,female,L,IMT,2021-07-14_15h18.23.576,ImageRatingTask_S4,2021.1.4,MacIntel,55.55555556,,,,,,,,,
,,,,,,,,,,,,0,5,5,5,1,sixth,12,28,female,L,IMT,2021-07-14_15h18.23.576,ImageRatingTask_S4,2021.1.4,MacIntel,55.55555556,,,,,,,,,
,,,,,,,,,,,,0,6,6,6,1,seventh,12,28,female,L,IMT,2021-07-14_15h18.23.576,ImageRatingTask_S4,2021.1.4,MacIntel,55.55555556,,,,,,,,,
,,,,,,,,,,,,0,7,7,7,1,last,12,28,female,L,IMT,2021-07-14_15h18.23.576,ImageRatingTask_S4,2021.1.4,MacIntel,55.55555556,,,,,,,,,
,,,,,,,,,,,,,,,,,,12,28,female,L,IMT,2021-07-14_15h18.23.576,ImageRatingTask_S4,2021.1.4,MacIntel,55.55555556,0,9,9,54,1,DreamStudyImages_rs1000x750g/Vehicles/Objects_319_h.jpg,,,
,,5,0.955,1,0.407,6,1.691,1,0.624,5,0.422,0,0,0,0,1,main,12,28,female,L,IMT,2021-07-14_15h18.23.576,ImageRatingTask_S4,2021.1.4,MacIntel,55.55555556,,,,,,,,,
,,,,,,,,,,,,0,1,1,1,1,second,12,28,female,L,IMT,2021-07-14_15h18.23.576,ImageRatingTask_S4,2021.1.4,MacIntel,55.55555556,,,,,,,,,
,,,,,,,,,,,,0,2,2,2,1,third,12,28,female,L,IMT,2021-07-14_15h18.23.576,ImageRatingTask_S4,2021.1.4,MacIntel,55.55555556,,,,,,,,,
,,,,,,,,,,,,0,3,3,3,1,fourth,12,28,female,L,IMT,2021-07-14_15h18.23.576,ImageRatingTask_S4,2021.1.4,MacIntel,55.55555556,,,,,,,,,
,,,,,,,,,,,,0,4,4,4,1,fifth,12,28,female,L,IMT,2021-07-14_15h18.23.576,ImageRatingTask_S4,2021.1.4,MacIntel,55.55555556,,,,,,,,,
,,,,,,,,,,,,0,5,5,5,1,sixth,12,28,female,L,IMT,2021-07-14_15h18.23.576,ImageRatingTask_S4,2021.1.4,MacIntel,55.55555556,,,,,,,,,
,,,,,,,,,,,,0,6,6,6,1,seventh,12,28,female,L,IMT,2021-07-14_15h18.23.576,ImageRatingTask_S4,2021.1.4,MacIntel,55.55555556,,,,,,,,,
,,,,,,,,,,,,0,7,7,7,1,last,12,28,female,L,IMT,2021-07-14_15h18.23.576,ImageRatingTask_S4,2021.1.4,MacIntel,55.55555556,,,,,,,,,
,,,,,,,,,,,,,,,,,,12,28,female,L,IMT,2021-07-14_15h18.23.576,ImageRatingTask_S4,2021.1.4,MacIntel,55.55555556,0,10,10,153,1,DreamStudyImages_rs1000x750g/Food/Objects_027_h.jpg,,,
,,3,1.386,4,0.966,6,2.925,1,0.868,5,0.429,0,0,0,0,1,main,12,28,female,L,IMT,2021-07-14_15h18.23.576,ImageRatingTask_S4,2021.1.4,MacIntel,55.55555556,,,,,,,,,
,,,,,,,,,,,,0,1,1,1,1,second,12,28,female,L,IMT,2021-07-14_15h18.23.576,ImageRatingTask_S4,2021.1.4,MacIntel,55.55555556,,,,,,,,,
,,,,,,,,,,,,0,2,2,2,1,third,12,28,female,L,IMT,2021-07-14_15h18.23.576,ImageRatingTask_S4,2021.1.4,MacIntel,55.55555556,,,,,,,,,
,,,,,,,,,,,,0,3,3,3,1,fourth,12,28,female,L,IMT,2021-07-14_15h18.23.576,ImageRatingTask_S4,2021.1.4,MacIntel,55.55555556,,,,,,,,,
,,,,,,,,,,,,0,4,4,4,1,fifth,12,28,female,L,IMT,2021-07-14_15h18.23.576,ImageRatingTask_S4,2021.1.4,MacIntel,55.55555556,,,,,,,,,
,,,,,,,,,,,,0,5,5,5,1,sixth,12,28,female,L,IMT,2021-07-14_15h18.23.576,ImageRatingTask_S4,2021.1.4,MacIntel,55.55555556,,,,,,,,,
,,,,,,,,,,,,0,6,6,6,1,seventh,12,28,female,L,IMT,2021-07-14_15h18.23.576,ImageRatingTask_S4,2021.1.4,MacIntel,55.55555556,,,,,,,,,
,,,,,,,,,,,,0,7,7,7,1,last,12,28,female,L,IMT,2021-07-14_15h18.23.576,ImageRatingTask_S4,2021.1.4,MacIntel,55.55555556,,,,,,,,,
,,,,,,,,,,,,,,,,,,12,28,female,L,IMT,2021-07-14_15h18.23.576,ImageRatingTask_S4,2021.1.4,MacIntel,55.55555556,0,11,11,14,1,DreamStudyImages_rs1000x750g/Food/Objects_133_h.jpg,,,
,,5,1.096,1,0.465,6,1.899,1,0.573,6,0.904,0,0,0,0,1,main,12,28,female,L,IMT,2021-07-14_15h18.23.576,ImageRatingTask_S4,2021.1.4,MacIntel,55.55555556,,,,,,,,,
,,,,,,,,,,,,0,1,1,1,1,second,12,28,female,L,IMT,2021-07-14_15h18.23.576,ImageRatingTask_S4,2021.1.4,MacIntel,55.55555556,,,,,,,,,
,,,,,,,,,,,,0,2,2,2,1,third,12,28,female,L,IMT,2021-07-14_15h18.23.576,ImageRatingTask_S4,2021.1.4,MacIntel,55.55555556,,,,,,,,,
,,,,,,,,,,,,0,3,3,3,1,fourth,12,28,female,L,IMT,2021-07-14_15h18.23.576,ImageRatingTask_S4,2021.1.4,MacIntel,55.55555556,,,,,,,,,
,,,,,,,,,,,,0,4,4,4,1,fifth,12,28,female,L,IMT,2021-07-14_15h18.23.576,ImageRatingTask_S4,2021.1.4,MacIntel,55.55555556,,,,,,,,,
,,,,,,,,,,,,0,5,5,5,1,sixth,12,28,female,L,IMT,2021-07-14_15h18.23.576,ImageRatingTask_S4,2021.1.4,MacIntel,55.55555556,,,,,,,,,
,,,,,,,,,,,,0,6,6,6,1,seventh,12,28,female,L,IMT,2021-07-14_15h18.23.576,ImageRatingTask_S4,2021.1.4,MacIntel,55.55555556,,,,,,,,,
,,,,,,,,,,,,0,7,7,7,1,last,12,28,female,L,IMT,2021-07-14_15h18.23.576,ImageRatingTask_S4,2021.1.4,MacIntel,55.55555556,,,,,,,,,
,,,,,,,,,,,,,,,,,,12,28,female,L,IMT,2021-07-14_15h18.23.576,ImageRatingTask_S4,2021.1.4,MacIntel,55.55555556,0,12,12,63,1,DreamStudyImages_rs1000x750g/Houses/Landscapes_016_h.jpg,,,
,,5,8.985,1,0.551,7,2.034,1,0.766,7,0.427,0,0,0,0,1,main,12,28,female,L,IMT,2021-07-14_15h18.23.576,ImageRatingTask_S4,2021.1.4,MacIntel,55.55555556,,,,,,,,,
,,,,,,,,,,,,0,1,1,1,1,second,12,28,female,L,IMT,2021-07-14_15h18.23.576,ImageRatingTask_S4,2021.1.4,MacIntel,55.55555556,,,,,,,,,
,,,,,,,,,,,,0,2,2,2,1,third,12,28,female,L,IMT,2021-07-14_15h18.23.576,ImageRatingTask_S4,2021.1.4,MacIntel,55.55555556,,,,,,,,,
,,,,,,,,,,,,0,3,3,3,1,fourth,12,28,female,L,IMT,2021-07-14_15h18.23.576,ImageRatingTask_S4,2021.1.4,MacIntel,55.55555556,,,,,,,,,
,,,,,,,,,,,,0,4,4,4,1,fifth,12,28,female,L,IMT,2021-07-14_15h18.23.576,ImageRatingTask_S4,2021.1.4,MacIntel,55.55555556,,,,,,,,,
,,,,,,,,,,,,0,5,5,5,1,sixth,12,28,female,L,IMT,2021-07-14_15h18.23.576,ImageRatingTask_S4,2021.1.4,MacIntel,55.55555556,,,,,,,,,
,,,,,,,,,,,,0,6,6,6,1,seventh,12,28,female,L,IMT,2021-07-14_15h18.23.576,ImageRatingTask_S4,2021.1.4,MacIntel,55.55555556,,,,,,,,,
,,,,,,,,,,,,0,7,7,7,1,last,12,28,female,L,IMT,2021-07-14_15h18.23.576,ImageRatingTask_S4,2021.1.4,MacIntel,55.55555556,,,,,,,,,
,,,,,,,,,,,,,,,,,,12,28,female,L,IMT,2021-07-14_15h18.23.576,ImageRatingTask_S4,2021.1.4,MacIntel,55.55555556,0,13,13,66,1,DreamStudyImages_rs1000x750g/Vehicles/Objects_323_h.jpg,,,
,,5,2.096,1,0.496,7,1.423,1,0.865,8,0.495,0,0,0,0,1,main,12,28,female,L,IMT,2021-07-14_15h18.23.576,ImageRatingTask_S4,2021.1.4,MacIntel,55.55555556,,,,,,,,,
,,,,,,,,,,,,0,1,1,1,1,second,12,28,female,L,IMT,2021-07-14_15h18.23.576,ImageRatingTask_S4,2021.1.4,MacIntel,55.55555556,,,,,,,,,
,,,,,,,,,,,,0,2,2,2,1,third,12,28,female,L,IMT,2021-07-14_15h18.23.576,ImageRatingTask_S4,2021.1.4,MacIntel,55.55555556,,,,,,,,,
,,,,,,,,,,,,0,3,3,3,1,fourth,12,28,female,L,IMT,2021-07-14_15h18.23.576,ImageRatingTask_S4,2021.1.4,MacIntel,55.55555556,,,,,,,,,
,,,,,,,,,,,,0,4,4,4,1,fifth,12,28,female,L,IMT,2021-07-14_15h18.23.576,ImageRatingTask_S4,2021.1.4,MacIntel,55.55555556,,,,,,,,,
,,,,,,,,,,,,0,5,5,5,1,sixth,12,28,female,L,IMT,2021-07-14_15h18.23.576,ImageRatingTask_S4,2021.1.4,MacIntel,55.55555556,,,,,,,,,
,,,,,,,,,,,,0,6,6,6,1,seventh,12,28,female,L,IMT,2021-07-14_15h18.23.576,ImageRatingTask_S4,2021.1.4,MacIntel,55.55555556,,,,,,,,,
,,,,,,,,,,,,0,7,7,7,1,last,12,28,female,L,IMT,2021-07-14_15h18.23.576,ImageRatingTask_S4,2021.1.4,MacIntel,55.55555556,,,,,,,,,
,,,,,,,,,,,,,,,,,,12,28,female,L,IMT,2021-07-14_15h18.23.576,ImageRatingTask_S4,2021.1.4,MacIntel,55.55555556,0,14,14,57,1,DreamStudyImages_rs1000x750g/Water/tunnelwithwater.jpg,,,
,,5,1.895,1,0.747,6,1.732,1,1.78,2,0.269,0,0,0,0,1,main,12,28,female,L,IMT,2021-07-14_15h18.23.576,ImageRatingTask_S4,2021.1.4,MacIntel,55.55555556,,,,,,,,,
,,,,,,,,,,,,0,1,1,1,1,second,12,28,female,L,IMT,2021-07-14_15h18.23.576,ImageRatingTask_S4,2021.1.4,MacIntel,55.55555556,,,,,,,,,
,,,,,,,,,,,,0,2,2,2,1,third,12,28,female,L,IMT,2021-07-14_15h18.23.576,ImageRatingTask_S4,2021.1.4,MacIntel,55.55555556,,,,,,,,,
,,,,,,,,,,,,0,3,3,3,1,fourth,12,28,female,L,IMT,2021-07-14_15h18.23.576,ImageRatingTask_S4,2021.1.4,MacIntel,55.55555556,,,,,,,,,
,,,,,,,,,,,,0,4,4,4,1,fifth,12,28,female,L,IMT,2021-07-14_15h18.23.576,ImageRatingTask_S4,2021.1.4,MacIntel,55.55555556,,,,,,,,,
,,,,,,,,,,,,0,5,5,5,1,sixth,12,28,female,L,IMT,2021-07-14_15h18.23.576,ImageRatingTask_S4,2021.1.4,MacIntel,55.55555556,,,,,,,,,
,,,,,,,,,,,,0,6,6,6,1,seventh,12,28,female,L,IMT,2021-07-14_15h18.23.576,ImageRatingTask_S4,2021.1.4,MacIntel,55.55555556,,,,,,,,,
,,,,,,,,,,,,0,7,7,7,1,last,12,28,female,L,IMT,2021-07-14_15h18.23.576,ImageRatingTask_S4,2021.1.4,MacIntel,55.55555556,,,,,,,,,
,,,,,,,,,,,,,,,,,,12,28,female,L,IMT,2021-07-14_15h18.23.576,ImageRatingTask_S4,2021.1.4,MacIntel,55.55555556,0,15,15,56,1,DreamStudyImages_rs1000x750g/Children/Faces_055_h.jpg,,,
,,5,1.598,1,0.461,5,1.014,1,0.649,5,0.327,0,0,0,0,1,main,12,28,female,L,IMT,2021-07-14_15h18.23.576,ImageRatingTask_S4,2021.1.4,MacIntel,55.55555556,,,,,,,,,
,,,,,,,,,,,,0,1,1,1,1,second,12,28,female,L,IMT,2021-07-14_15h18.23.576,ImageRatingTask_S4,2021.1.4,MacIntel,55.55555556,,,,,,,,,
,,,,,,,,,,,,0,2,2,2,1,third,12,28,female,L,IMT,2021-07-14_15h18.23.576,ImageRatingTask_S4,2021.1.4,MacIntel,55.55555556,,,,,,,,,
,,,,,,,,,,,,0,3,3,3,1,fourth,12,28,female,L,IMT,2021-07-14_15h18.23.576,ImageRatingTask_S4,2021.1.4,MacIntel,55.55555556,,,,,,,,,
,,,,,,,,,,,,0,4,4,4,1,fifth,12,28,female,L,IMT,2021-07-14_15h18.23.576,ImageRatingTask_S4,2021.1.4,MacIntel,55.55555556,,,,,,,,,
,,,,,,,,,,,,0,5,5,5,1,sixth,12,28,female,L,IMT,2021-07-14_15h18.23.576,ImageRatingTask_S4,2021.1.4,MacIntel,55.55555556,,,,,,,,,
,,,,,,,,,,,,0,6,6,6,1,seventh,12,28,female,L,IMT,2021-07-14_15h18.23.576,ImageRatingTask_S4,2021.1.4,MacIntel,55.55555556,,,,,,,,,
,,,,,,,,,,,,0,7,7,7,1,last,12,28,female,L,IMT,2021-07-14_15h18.23.576,ImageRatingTask_S4,2021.1.4,MacIntel,55.55555556,,,,,,,,,
,,,,,,,,,,,,,,,,,,12,28,female,L,IMT,2021-07-14_15h18.23.576,ImageRatingTask_S4,2021.1.4,MacIntel,55.55555556,0,16,16,99,1,DreamStudyImages_rs1000x750g/Food/IAPS7402_pastries2.jpg,,,
,,6,1.489,1,0.52,6,2.117,1,0.713,3,0.777,0,0,0,0,1,main,12,28,female,L,IMT,2021-07-14_15h18.23.576,ImageRatingTask_S4,2021.1.4,MacIntel,55.55555556,,,,,,,,,
,,,,,,,,,,,,0,1,1,1,1,second,12,28,female,L,IMT,2021-07-14_15h18.23.576,ImageRatingTask_S4,2021.1.4,MacIntel,55.55555556,,,,,,,,,
,,,,,,,,,,,,0,2,2,2,1,third,12,28,female,L,IMT,2021-07-14_15h18.23.576,ImageRatingTask_S4,2021.1.4,MacIntel,55.55555556,,,,,,,,,
,,,,,,,,,,,,0,3,3,3,1,fourth,12,28,female,L,IMT,2021-07-14_15h18.23.576,ImageRatingTask_S4,2021.1.4,MacIntel,55.55555556,,,,,,,,,
,,,,,,,,,,,,0,4,4,4,1,fifth,12,28,female,L,IMT,2021-07-14_15h18.23.576,ImageRatingTask_S4,2021.1.4,MacIntel,55.55555556,,,,,,,,,
,,,,,,,,,,,,0,5,5,5,1,sixth,12,28,female,L,IMT,2021-07-14_15h18.23.576,ImageRatingTask_S4,2021.1.4,MacIntel,55.55555556,,,,,,,,,
,,,,,,,,,,,,0,6,6,6,1,seventh,12,28,female,L,IMT,2021-07-14_15h18.23.576,ImageRatingTask_S4,2021.1.4,MacIntel,55.55555556,,,,,,,,,
,,,,,,,,,,,,0,7,7,7,1,last,12,28,female,L,IMT,2021-07-14_15h18.23.576,ImageRatingTask_S4,2021.1.4,MacIntel,55.55555556,,,,,,,,,
,,,,,,,,,,,,,,,,,,12,28,female,L,IMT,2021-07-14_15h18.23.576,ImageRatingTask_S4,2021.1.4,MacIntel,55.55555556,0,17,17,36,1,DreamStudyImages_rs1000x750g/Mammals/Meerkat 1.jpg,,,
,,5,1.422,1,0.53,6,2.705,1,1.131,5,0.486,0,0,0,0,1,main,12,28,female,L,IMT,2021-07-14_15h18.23.576,ImageRatingTask_S4,2021.1.4,MacIntel,55.55555556,,,,,,,,,
,,,,,,,,,,,,0,1,1,1,1,second,12,28,female,L,IMT,2021-07-14_15h18.23.576,ImageRatingTask_S4,2021.1.4,MacIntel,55.55555556,,,,,,,,,
,,,,,,,,,,,,0,2,2,2,1,third,12,28,female,L,IMT,2021-07-14_15h18.23.576,ImageRatingTask_S4,2021.1.4,MacIntel,55.55555556,,,,,,,,,
,,,,,,,,,,,,0,3,3,3,1,fourth,12,28,female,L,IMT,2021-07-14_15h18.23.576,ImageRatingTask_S4,2021.1.4,MacIntel,55.55555556,,,,,,,,,
,,,,,,,,,,,,0,4,4,4,1,fifth,12,28,female,L,IMT,2021-07-14_15h18.23.576,ImageRatingTask_S4,2021.1.4,MacIntel,55.55555556,,,,,,,,,
,,,,,,,,,,,,0,5,5,5,1,sixth,12,28,female,L,IMT,2021-07-14_15h18.23.576,ImageRatingTask_S4,2021.1.4,MacIntel,55.55555556,,,,,,,,,
,,,,,,,,,,,,0,6,6,6,1,seventh,12,28,female,L,IMT,2021-07-14_15h18.23.576,ImageRatingTask_S4,2021.1.4,MacIntel,55.55555556,,,,,,,,,
,,,,,,,,,,,,0,7,7,7,1,last,12,28,female,L,IMT,2021-07-14_15h18.23.576,ImageRatingTask_S4,2021.1.4,MacIntel,55.55555556,,,,,,,,,
,,,,,,,,,,,,,,,,,,12,28,female,L,IMT,2021-07-14_15h18.23.576,ImageRatingTask_S4,2021.1.4,MacIntel,55.55555556,0,18,18,6,1,DreamStudyImages_rs1000x750g/Food/Objects_016_h.jpg,,,
,,7,2.131,2,0.698,6,1.367,1,0.657,5,0.362,0,0,0,0,1,main,12,28,female,L,IMT,2021-07-14_15h18.23.576,ImageRatingTask_S4,2021.1.4,MacIntel,55.55555556,,,,,,,,,
,,,,,,,,,,,,0,1,1,1,1,second,12,28,female,L,IMT,2021-07-14_15h18.23.576,ImageRatingTask_S4,2021.1.4,MacIntel,55.55555556,,,,,,,,,
,,,,,,,,,,,,0,2,2,2,1,third,12,28,female,L,IMT,2021-07-14_15h18.23.576,ImageRatingTask_S4,2021.1.4,MacIntel,55.55555556,,,,,,,,,
,,,,,,,,,,,,0,3,3,3,1,fourth,12,28,female,L,IMT,2021-07-14_15h18.23.576,ImageRatingTask_S4,2021.1.4,MacIntel,55.55555556,,,,,,,,,
,,,,,,,,,,,,0,4,4,4,1,fifth,12,28,female,L,IMT,2021-07-14_15h18.23.576,ImageRatingTask_S4,2021.1.4,MacIntel,55.55555556,,,,,,,,,
,,,,,,,,,,,,0,5,5,5,1,sixth,12,28,female,L,IMT,2021-07-14_15h18.23.576,ImageRatingTask_S4,2021.1.4,MacIntel,55.55555556,,,,,,,,,
,,,,,,,,,,,,0,6,6,6,1,seventh,12,28,female,L,IMT,2021-07-14_15h18.23.576,ImageRatingTask_S4,2021.1.4,MacIntel,55.55555556,,,,,,,,,
,,,,,,,,,,,,0,7,7,7,1,last,12,28,female,L,IMT,2021-07-14_15h18.23.576,ImageRatingTask_S4,2021.1.4,MacIntel,55.55555556,,,,,,,,,
,,,,,,,,,,,,,,,,,,12,28,female,L,IMT,2021-07-14_15h18.23.576,ImageRatingTask_S4,2021.1.4,MacIntel,55.55555556,0,19,19,40,1,DreamStudyImages_rs1000x750g/Food/IAPS7470_pancakes.jpg,,,
,,6,1.515,1,0.567,7,1.449,1,1.433,2,0.878,0,0,0,0,1,main,12,28,female,L,IMT,2021-07-14_15h18.23.576,ImageRatingTask_S4,2021.1.4,MacIntel,55.55555556,,,,,,,,,
,,,,,,,,,,,,0,1,1,1,1,second,12,28,female,L,IMT,2021-07-14_15h18.23.576,ImageRatingTask_S4,2021.1.4,MacIntel,55.55555556,,,,,,,,,
,,,,,,,,,,,,0,2,2,2,1,third,12,28,female,L,IMT,2021-07-14_15h18.23.576,ImageRatingTask_S4,2021.1.4,MacIntel,55.55555556,,,,,,,,,
,,,,,,,,,,,,0,3,3,3,1,fourth,12,28,female,L,IMT,2021-07-14_15h18.23.576,ImageRatingTask_S4,2021.1.4,MacIntel,55.55555556,,,,,,,,,
,,,,,,,,,,,,0,4,4,4,1,fifth,12,28,female,L,IMT,2021-07-14_15h18.23.576,ImageRatingTask_S4,2021.1.4,MacIntel,55.55555556,,,,,,,,,
,,,,,,,,,,,,0,5,5,5,1,sixth,12,28,female,L,IMT,2021-07-14_15h18.23.576,ImageRatingTask_S4,2021.1.4,MacIntel,55.55555556,,,,,,,,,
,,,,,,,,,,,,0,6,6,6,1,seventh,12,28,female,L,IMT,2021-07-14_15h18.23.576,ImageRatingTask_S4,2021.1.4,MacIntel,55.55555556,,,,,,,,,
,,,,,,,,,,,,0,7,7,7,1,last,12,28,female,L,IMT,2021-07-14_15h18.23.576,ImageRatingTask_S4,2021.1.4,MacIntel,55.55555556,,,,,,,,,
,,,,,,,,,,,,,,,,,,12,28,female,L,IMT,2021-07-14_15h18.23.576,ImageRatingTask_S4,2021.1.4,MacIntel,55.55555556,0,20,20,122,1,DreamStudyImages_rs1000x750g/Children/Faces_100_h.jpg,,,
,,6,1.987,1,1.107,6,5.825,1,1.094,8,2.357,0,0,0,0,1,main,12,28,female,L,IMT,2021-07-14_15h18.23.576,ImageRatingTask_S4,2021.1.4,MacIntel,55.55555556,,,,,,,,,
,,,,,,,,,,,,0,1,1,1,1,second,12,28,female,L,IMT,2021-07-14_15h18.23.576,ImageRatingTask_S4,2021.1.4,MacIntel,55.55555556,,,,,,,,,
,,,,,,,,,,,,0,2,2,2,1,third,12,28,female,L,IMT,2021-07-14_15h18.23.576,ImageRatingTask_S4,2021.1.4,MacIntel,55.55555556,,,,,,,,,
,,,,,,,,,,,,0,3,3,3,1,fourth,12,28,female,L,IMT,2021-07-14_15h18.23.576,ImageRatingTask_S4,2021.1.4,MacIntel,55.55555556,,,,,,,,,
,,,,,,,,,,,,0,4,4,4,1,fifth,12,28,female,L,IMT,2021-07-14_15h18.23.576,ImageRatingTask_S4,2021.1.4,MacIntel,55.55555556,,,,,,,,,
,,,,,,,,,,,,0,5,5,5,1,sixth,12,28,female,L,IMT,2021-07-14_15h18.23.576,ImageRatingTask_S4,2021.1.4,MacIntel,55.55555556,,,,,,,,,
,,,,,,,,,,,,0,6,6,6,1,seventh,12,28,female,L,IMT,2021-07-14_15h18.23.576,ImageRatingTask_S4,2021.1.4,MacIntel,55.55555556,,,,,,,,,
,,,,,,,,,,,,0,7,7,7,1,last,12,28,female,L,IMT,2021-07-14_15h18.23.576,ImageRatingTask_S4,2021.1.4,MacIntel,55.55555556,,,,,,,,,
,,,,,,,,,,,,,,,,,,12,28,female,L,IMT,2021-07-14_15h18.23.576,ImageRatingTask_S4,2021.1.4,MacIntel,55.55555556,0,21,21,41,1,DreamStudyImages_rs1000x750g/Water/Bridge 1.jpg,,,
,,5,1.228,1,0.446,6,1.398,1,2.131,7,0.7,0,0,0,0,1,main,12,28,female,L,IMT,2021-07-14_15h18.23.576,ImageRatingTask_S4,2021.1.4,MacIntel,55.55555556,,,,,,,,,
,,,,,,,,,,,,0,1,1,1,1,second,12,28,female,L,IMT,2021-07-14_15h18.23.576,ImageRatingTask_S4,2021.1.4,MacIntel,55.55555556,,,,,,,,,
,,,,,,,,,,,,0,2,2,2,1,third,12,28,female,L,IMT,2021-07-14_15h18.23.576,ImageRatingTask_S4,2021.1.4,MacIntel,55.55555556,,,,,,,,,
,,,,,,,,,,,,0,3,3,3,1,fourth,12,28,female,L,IMT,2021-07-14_15h18.23.576,ImageRatingTask_S4,2021.1.4,MacIntel,55.55555556,,,,,,,,,
,,,,,,,,,,,,0,4,4,4,1,fifth,12,28,female,L,IMT,2021-07-14_15h18.23.576,ImageRatingTask_S4,2021.1.4,MacIntel,55.55555556,,,,,,,,,
,,,,,,,,,,,,0,5,5,5,1,sixth,12,28,female,L,IMT,2021-07-14_15h18.23.576,ImageRatingTask_S4,2021.1.4,MacIntel,55.55555556,,,,,,,,,
,,,,,,,,,,,,0,6,6,6,1,seventh,12,28,female,L,IMT,2021-07-14_15h18.23.576,ImageRatingTask_S4,2021.1.4,MacIntel,55.55555556,,,,,,,,,
,,,,,,,,,,,,0,7,7,7,1,last,12,28,female,L,IMT,2021-07-14_15h18.23.576,ImageRatingTask_S4,2021.1.4,MacIntel,55.55555556,,,,,,,,,
,,,,,,,,,,,,,,,,,,12,28,female,L,IMT,2021-07-14_15h18.23.576,ImageRatingTask_S4,2021.1.4,MacIntel,55.55555556,0,22,22,74,1,DreamStudyImages_rs1000x750g/Vehicles/NDPS40_carindust.jpg,,,
,,7,1.101,3,1.064,8,1.246,1,0.963,6,0.704,0,0,0,0,1,main,12,28,female,L,IMT,2021-07-14_15h18.23.576,ImageRatingTask_S4,2021.1.4,MacIntel,55.55555556,,,,,,,,,
,,,,,,,,,,,,0,1,1,1,1,second,12,28,female,L,IMT,2021-07-14_15h18.23.576,ImageRatingTask_S4,2021.1.4,MacIntel,55.55555556,,,,,,,,,
,,,,,,,,,,,,0,2,2,2,1,third,12,28,female,L,IMT,2021-07-14_15h18.23.576,ImageRatingTask_S4,2021.1.4,MacIntel,55.55555556,,,,,,,,,
,,,,,,,,,,,,0,3,3,3,1,fourth,12,28,female,L,IMT,2021-07-14_15h18.23.576,ImageRatingTask_S4,2021.1.4,MacIntel,55.55555556,,,,,,,,,
,,,,,,,,,,,,0,4,4,4,1,fifth,12,28,female,L,IMT,2021-07-14_15h18.23.576,ImageRatingTask_S4,2021.1.4,MacIntel,55.55555556,,,,,,,,,
,,,,,,,,,,,,0,5,5,5,1,sixth,12,28,female,L,IMT,2021-07-14_15h18.23.576,ImageRatingTask_S4,2021.1.4,MacIntel,55.55555556,,,,,,,,,
,,,,,,,,,,,,0,6,6,6,1,seventh,12,28,female,L,IMT,2021-07-14_15h18.23.576,ImageRatingTask_S4,2021.1.4,MacIntel,55.55555556,,,,,,,,,
,,,,,,,,,,,,0,7,7,7,1,last,12,28,female,L,IMT,2021-07-14_15h18.23.576,ImageRatingTask_S4,2021.1.4,MacIntel,55.55555556,,,,,,,,,
,,,,,,,,,,,,,,,,,,12,28,female,L,IMT,2021-07-14_15h18.23.576,ImageRatingTask_S4,2021.1.4,MacIntel,55.55555556,0,23,23,30,1,DreamStudyImages_rs1000x750g/Houses/Landscapes_092_h.jpg,,,
,,6,1.367,1,0.764,5,1.284,1,1.598,3,0.895,0,0,0,0,1,main,12,28,female,L,IMT,2021-07-14_15h18.23.576,ImageRatingTask_S4,2021.1.4,MacIntel,55.55555556,,,,,,,,,
,,,,,,,,,,,,0,1,1,1,1,second,12,28,female,L,IMT,2021-07-14_15h18.23.576,ImageRatingTask_S4,2021.1.4,MacIntel,55.55555556,,,,,,,,,
,,,,,,,,,,,,0,2,2,2,1,third,12,28,female,L,IMT,2021-07-14_15h18.23.576,ImageRatingTask_S4,2021.1.4,MacIntel,55.55555556,,,,,,,,,
,,,,,,,,,,,,0,3,3,3,1,fourth,12,28,female,L,IMT,2021-07-14_15h18.23.576,ImageRatingTask_S4,2021.1.4,MacIntel,55.55555556,,,,,,,,,
,,,,,,,,,,,,0,4,4,4,1,fifth,12,28,female,L,IMT,2021-07-14_15h18.23.576,ImageRatingTask_S4,2021.1.4,MacIntel,55.55555556,,,,,,,,,
,,,,,,,,,,,,0,5,5,5,1,sixth,12,28,female,L,IMT,2021-07-14_15h18.23.576,ImageRatingTask_S4,2021.1.4,MacIntel,55.55555556,,,,,,,,,
,,,,,,,,,,,,0,6,6,6,1,seventh,12,28,female,L,IMT,2021-07-14_15h18.23.576,ImageRatingTask_S4,2021.1.4,MacIntel,55.55555556,,,,,,,,,
,,,,,,,,,,,,0,7,7,7,1,last,12,28,female,L,IMT,2021-07-14_15h18.23.576,ImageRatingTask_S4,2021.1.4,MacIntel,55.55555556,,,,,,,,,
,,,,,,,,,,,,,,,,,,12,28,female,L,IMT,2021-07-14_15h18.23.576,ImageRatingTask_S4,2021.1.4,MacIntel,55.55555556,0,24,24,133,1,DreamStudyImages_rs1000x750g/Mammals/IAPS1590_horse1.jpg,,,
,,5,1.145,1,0.464,7,2.74,1,0.673,2,0.213,0,0,0,0,1,main,12,28,female,L,IMT,2021-07-14_15h18.23.576,ImageRatingTask_S4,2021.1.4,MacIntel,55.55555556,,,,,,,,,
,,,,,,,,,,,,0,1,1,1,1,second,12,28,female,L,IMT,2021-07-14_15h18.23.576,ImageRatingTask_S4,2021.1.4,MacIntel,55.55555556,,,,,,,,,
,,,,,,,,,,,,0,2,2,2,1,third,12,28,female,L,IMT,2021-07-14_15h18.23.576,ImageRatingTask_S4,2021.1.4,MacIntel,55.55555556,,,,,,,,,
,,,,,,,,,,,,0,3,3,3,1,fourth,12,28,female,L,IMT,2021-07-14_15h18.23.576,ImageRatingTask_S4,2021.1.4,MacIntel,55.55555556,,,,,,,,,
,,,,,,,,,,,,0,4,4,4,1,fifth,12,28,female,L,IMT,2021-07-14_15h18.23.576,ImageRatingTask_S4,2021.1.4,MacIntel,55.55555556,,,,,,,,,
,,,,,,,,,,,,0,5,5,5,1,sixth,12,28,female,L,IMT,2021-07-14_15h18.23.576,ImageRatingTask_S4,2021.1.4,MacIntel,55.55555556,,,,,,,,,
,,,,,,,,,,,,0,6,6,6,1,seventh,12,28,female,L,IMT,2021-07-14_15h18.23.576,ImageRatingTask_S4,2021.1.4,MacIntel,55.55555556,,,,,,,,,
,,,,,,,,,,,,0,7,7,7,1,last,12,28,female,L,IMT,2021-07-14_15h18.23.576,ImageRatingTask_S4,2021.1.4,MacIntel,55.55555556,,,,,,,,,
,,,,,,,,,,,,,,,,,,12,28,female,L,IMT,2021-07-14_15h18.23.576,ImageRatingTask_S4,2021.1.4,MacIntel,55.55555556,0,25,25,126,1,DreamStudyImages_rs1000x750g/Children/Faces_110_h.jpg,,,
,,6,2.525,2,0.646,4,1.831,1,0.847,6,1.146,0,0,0,0,1,main,12,28,female,L,IMT,2021-07-14_15h18.23.576,ImageRatingTask_S4,2021.1.4,MacIntel,55.55555556,,,,,,,,,
,,,,,,,,,,,,0,1,1,1,1,second,12,28,female,L,IMT,2021-07-14_15h18.23.576,ImageRatingTask_S4,2021.1.4,MacIntel,55.55555556,,,,,,,,,
,,,,,,,,,,,,0,2,2,2,1,third,12,28,female,L,IMT,2021-07-14_15h18.23.576,ImageRatingTask_S4,2021.1.4,MacIntel,55.55555556,,,,,,,,,
,,,,,,,,,,,,0,3,3,3,1,fourth,12,28,female,L,IMT,2021-07-14_15h18.23.576,ImageRatingTask_S4,2021.1.4,MacIntel,55.55555556,,,,,,,,,
,,,,,,,,,,,,0,4,4,4,1,fifth,12,28,female,L,IMT,2021-07-14_15h18.23.576,ImageRatingTask_S4,2021.1.4,MacIntel,55.55555556,,,,,,,,,
,,,,,,,,,,,,0,5,5,5,1,sixth,12,28,female,L,IMT,2021-07-14_15h18.23.576,ImageRatingTask_S4,2021.1.4,MacIntel,55.55555556,,,,,,,,,
,,,,,,,,,,,,0,6,6,6,1,seventh,12,28,female,L,IMT,2021-07-14_15h18.23.576,ImageRatingTask_S4,2021.1.4,MacIntel,55.55555556,,,,,,,,,
,,,,,,,,,,,,0,7,7,7,1,last,12,28,female,L,IMT,2021-07-14_15h18.23.576,ImageRatingTask_S4,2021.1.4,MacIntel,55.55555556,,,,,,,,,
,,,,,,,,,,,,,,,,,,12,28,female,L,IMT,2021-07-14_15h18.23.576,ImageRatingTask_S4,2021.1.4,MacIntel,55.55555556,0,26,26,142,1,DreamStudyImages_rs1000x750g/Houses/House 1.jpg,,,
,,4,1.5,1,0.592,6,1.691,1,1.379,3,0.919,0,0,0,0,1,main,12,28,female,L,IMT,2021-07-14_15h18.23.576,ImageRatingTask_S4,2021.1.4,MacIntel,55.55555556,,,,,,,,,
,,,,,,,,,,,,0,1,1,1,1,second,12,28,female,L,IMT,2021-07-14_15h18.23.576,ImageRatingTask_S4,2021.1.4,MacIntel,55.55555556,,,,,,,,,
,,,,,,,,,,,,0,2,2,2,1,third,12,28,female,L,IMT,2021-07-14_15h18.23.576,ImageRatingTask_S4,2021.1.4,MacIntel,55.55555556,,,,,,,,,
,,,,,,,,,,,,0,3,3,3,1,fourth,12,28,female,L,IMT,2021-07-14_15h18.23.576,ImageRatingTask_S4,2021.1.4,MacIntel,55.55555556,,,,,,,,,
,,,,,,,,,,,,0,4,4,4,1,fifth,12,28,female,L,IMT,2021-07-14_15h18.23.576,ImageRatingTask_S4,2021.1.4,MacIntel,55.55555556,,,,,,,,,
,,,,,,,,,,,,0,5,5,5,1,sixth,12,28,female,L,IMT,2021-07-14_15h18.23.576,ImageRatingTask_S4,2021.1.4,MacIntel,55.55555556,,,,,,,,,
,,,,,,,,,,,,0,6,6,6,1,seventh,12,28,female,L,IMT,2021-07-14_15h18.23.576,ImageRatingTask_S4,2021.1.4,MacIntel,55.55555556,,,,,,,,,
,,,,,,,,,,,,0,7,7,7,1,last,12,28,female,L,IMT,2021-07-14_15h18.23.576,ImageRatingTask_S4,2021.1.4,MacIntel,55.55555556,,,,,,,,,
,,,,,,,,,,,,,,,,,,12,28,female,L,IMT,2021-07-14_15h18.23.576,ImageRatingTask_S4,2021.1.4,MacIntel,55.55555556,0,27,27,146,1,DreamStudyImages_rs1000x750g/Mammals/Orangutan 1.jpg,,,
,,7,2.076,1,1.259,5,1.698,1,0.953,6,1.029,0,0,0,0,1,main,12,28,female,L,IMT,2021-07-14_15h18.23.576,ImageRatingTask_S4,2021.1.4,MacIntel,55.55555556,,,,,,,,,
,,,,,,,,,,,,0,1,1,1,1,second,12,28,female,L,IMT,2021-07-14_15h18.23.576,ImageRatingTask_S4,2021.1.4,MacIntel,55.55555556,,,,,,,,,
,,,,,,,,,,,,0,2,2,2,1,third,12,28,female,L,IMT,2021-07-14_15h18.23.576,ImageRatingTask_S4,2021.1.4,MacIntel,55.55555556,,,,,,,,,
,,,,,,,,,,,,0,3,3,3,1,fourth,12,28,female,L,IMT,2021-07-14_15h18.23.576,ImageRatingTask_S4,2021.1.4,MacIntel,55.55555556,,,,,,,,,
,,,,,,,,,,,,0,4,4,4,1,fifth,12,28,female,L,IMT,2021-07-14_15h18.23.576,ImageRatingTask_S4,2021.1.4,MacIntel,55.55555556,,,,,,,,,
,,,,,,,,,,,,0,5,5,5,1,sixth,12,28,female,L,IMT,2021-07-14_15h18.23.576,ImageRatingTask_S4,2021.1.4,MacIntel,55.55555556,,,,,,,,,
,,,,,,,,,,,,0,6,6,6,1,seventh,12,28,female,L,IMT,2021-07-14_15h18.23.576,ImageRatingTask_S4,2021.1.4,MacIntel,55.55555556,,,,,,,,,
,,,,,,,,,,,,0,7,7,7,1,last,12,28,female,L,IMT,2021-07-14_15h18.23.576,ImageRatingTask_S4,2021.1.4,MacIntel,55.55555556,,,,,,,,,
,,,,,,,,,,,,,,,,,,12,28,female,L,IMT,2021-07-14_15h18.23.576,ImageRatingTask_S4,2021.1.4,MacIntel,55.55555556,0,28,28,115,1,DreamStudyImages_rs1000x750g/Houses/Landscapes_086_v.jpg,,,
,,5,1.164,1,0.441,6,1.313,1,0.564,6,0.678,0,0,0,0,1,main,12,28,female,L,IMT,2021-07-14_15h18.23.576,ImageRatingTask_S4,2021.1.4,MacIntel,55.55555556,,,,,,,,,
,,,,,,,,,,,,0,1,1,1,1,second,12,28,female,L,IMT,2021-07-14_15h18.23.576,ImageRatingTask_S4,2021.1.4,MacIntel,55.55555556,,,,,,,,,
,,,,,,,,,,,,0,2,2,2,1,third,12,28,female,L,IMT,2021-07-14_15h18.23.576,ImageRatingTask_S4,2021.1.4,MacIntel,55.55555556,,,,,,,,,
,,,,,,,,,,,,0,3,3,3,1,fourth,12,28,female,L,IMT,2021-07-14_15h18.23.576,ImageRatingTask_S4,2021.1.4,MacIntel,55.55555556,,,,,,,,,
,,,,,,,,,,,,0,4,4,4,1,fifth,12,28,female,L,IMT,2021-07-14_15h18.23.576,ImageRatingTask_S4,2021.1.4,MacIntel,55.55555556,,,,,,,,,
,,,,,,,,,,,,0,5,5,5,1,sixth,12,28,female,L,IMT,2021-07-14_15h18.23.576,ImageRatingTask_S4,2021.1.4,MacIntel,55.55555556,,,,,,,,,
,,,,,,,,,,,,0,6,6,6,1,seventh,12,28,female,L,IMT,2021-07-14_15h18.23.576,ImageRatingTask_S4,2021.1.4,MacIntel,55.55555556,,,,,,,,,
,,,,,,,,,,,,0,7,7,7,1,last,12,28,female,L,IMT,2021-07-14_15h18.23.576,ImageRatingTask_S4,2021.1.4,MacIntel,55.55555556,,,,,,,,,
,,,,,,,,,,,,,,,,,,12,28,female,L,IMT,2021-07-14_15h18.23.576,ImageRatingTask_S4,2021.1.4,MacIntel,55.55555556,0,29,29,151,1,DreamStudyImages_rs1000x750g/Houses/Landscapes_018_h_CROPPED.jpg,,,
,,7,1.379,2,0.926,6,2.084,1,1.597,8,0.836,0,0,0,0,1,main,12,28,female,L,IMT,2021-07-14_15h18.23.576,ImageRatingTask_S4,2021.1.4,MacIntel,55.55555556,,,,,,,,,
,,,,,,,,,,,,0,1,1,1,1,second,12,28,female,L,IMT,2021-07-14_15h18.23.576,ImageRatingTask_S4,2021.1.4,MacIntel,55.55555556,,,,,,,,,
,,,,,,,,,,,,0,2,2,2,1,third,12,28,female,L,IMT,2021-07-14_15h18.23.576,ImageRatingTask_S4,2021.1.4,MacIntel,55.55555556,,,,,,,,,
,,,,,,,,,,,,0,3,3,3,1,fourth,12,28,female,L,IMT,2021-07-14_15h18.23.576,ImageRatingTask_S4,2021.1.4,MacIntel,55.55555556,,,,,,,,,
,,,,,,,,,,,,0,4,4,4,1,fifth,12,28,female,L,IMT,2021-07-14_15h18.23.576,ImageRatingTask_S4,2021.1.4,MacIntel,55.55555556,,,,,,,,,
,,,,,,,,,,,,0,5,5,5,1,sixth,12,28,female,L,IMT,2021-07-14_15h18.23.576,ImageRatingTask_S4,2021.1.4,MacIntel,55.55555556,,,,,,,,,
,,,,,,,,,,,,0,6,6,6,1,seventh,12,28,female,L,IMT,2021-07-14_15h18.23.576,ImageRatingTask_S4,2021.1.4,MacIntel,55.55555556,,,,,,,,,
,,,,,,,,,,,,0,7,7,7,1,last,12,28,female,L,IMT,2021-07-14_15h18.23.576,ImageRatingTask_S4,2021.1.4,MacIntel,55.55555556,,,,,,,,,
,,,,,,,,,,,,,,,,,,12,28,female,L,IMT,2021-07-14_15h18.23.576,ImageRatingTask_S4,2021.1.4,MacIntel,55.55555556,0,30,30,11,1,DreamStudyImages_rs1000x750g/Water/Lake 8.jpg,,,
,,7,1.293,3,1.233,8,1.164,1,1.081,8,0.53,0,0,0,0,1,main,12,28,female,L,IMT,2021-07-14_15h18.23.576,ImageRatingTask_S4,2021.1.4,MacIntel,55.55555556,,,,,,,,,
,,,,,,,,,,,,0,1,1,1,1,second,12,28,female,L,IMT,2021-07-14_15h18.23.576,ImageRatingTask_S4,2021.1.4,MacIntel,55.55555556,,,,,,,,,
,,,,,,,,,,,,0,2,2,2,1,third,12,28,female,L,IMT,2021-07-14_15h18.23.576,ImageRatingTask_S4,2021.1.4,MacIntel,55.55555556,,,,,,,,,
,,,,,,,,,,,,0,3,3,3,1,fourth,12,28,female,L,IMT,2021-07-14_15h18.23.576,ImageRatingTask_S4,2021.1.4,MacIntel,55.55555556,,,,,,,,,
,,,,,,,,,,,,0,4,4,4,1,fifth,12,28,female,L,IMT,2021-07-14_15h18.23.576,ImageRatingTask_S4,2021.1.4,MacIntel,55.55555556,,,,,,,,,
,,,,,,,,,,,,0,5,5,5,1,sixth,12,28,female,L,IMT,2021-07-14_15h18.23.576,ImageRatingTask_S4,2021.1.4,MacIntel,55.55555556,,,,,,,,,
,,,,,,,,,,,,0,6,6,6,1,seventh,12,28,female,L,IMT,2021-07-14_15h18.23.576,ImageRatingTask_S4,2021.1.4,MacIntel,55.55555556,,,,,,,,,
,,,,,,,,,,,,0,7,7,7,1,last,12,28,female,L,IMT,2021-07-14_15h18.23.576,ImageRatingTask_S4,2021.1.4,MacIntel,55.55555556,,,,,,,,,
,,,,,,,,,,,,,,,,,,12,28,female,L,IMT,2021-07-14_15h18.23.576,ImageRatingTask_S4,2021.1.4,MacIntel,55.55555556,0,31,31,2,1,DreamStudyImages_rs1000x750g/Water/rockyriver.jpg,,,
,,5,1.172,1,0.514,7,1.281,1,1.24,3,0.37,0,0,0,0,1,main,12,28,female,L,IMT,2021-07-14_15h18.23.576,ImageRatingTask_S4,2021.1.4,MacIntel,55.55555556,,,,,,,,,
,,,,,,,,,,,,0,1,1,1,1,second,12,28,female,L,IMT,2021-07-14_15h18.23.576,ImageRatingTask_S4,2021.1.4,MacIntel,55.55555556,,,,,,,,,
,,,,,,,,,,,,0,2,2,2,1,third,12,28,female,L,IMT,2021-07-14_15h18.23.576,ImageRatingTask_S4,2021.1.4,MacIntel,55.55555556,,,,,,,,,
,,,,,,,,,,,,0,3,3,3,1,fourth,12,28,female,L,IMT,2021-07-14_15h18.23.576,ImageRatingTask_S4,2021.1.4,MacIntel,55.55555556,,,,,,,,,
,,,,,,,,,,,,0,4,4,4,1,fifth,12,28,female,L,IMT,2021-07-14_15h18.23.576,ImageRatingTask_S4,2021.1.4,MacIntel,55.55555556,,,,,,,,,
,,,,,,,,,,,,0,5,5,5,1,sixth,12,28,female,L,IMT,2021-07-14_15h18.23.576,ImageRatingTask_S4,2021.1.4,MacIntel,55.55555556,,,,,,,,,
,,,,,,,,,,,,0,6,6,6,1,seventh,12,28,female,L,IMT,2021-07-14_15h18.23.576,ImageRatingTask_S4,2021.1.4,MacIntel,55.55555556,,,,,,,,,
,,,,,,,,,,,,0,7,7,7,1,last,12,28,female,L,IMT,2021-07-14_15h18.23.576,ImageRatingTask_S4,2021.1.4,MacIntel,55.55555556,,,,,,,,,
,,,,,,,,,,,,,,,,,,12,28,female,L,IMT,2021-07-14_15h18.23.576,ImageRatingTask_S4,2021.1.4,MacIntel,55.55555556,0,32,32,22,1,DreamStudyImages_rs1000x750g/Mammals/Animals_210_v.jpg,,,
,,4,1.658,1,0.379,6,3.883,1,1.24,7,0.749,0,0,0,0,1,main,12,28,female,L,IMT,2021-07-14_15h18.23.576,ImageRatingTask_S4,2021.1.4,MacIntel,55.55555556,,,,,,,,,
,,,,,,,,,,,,0,1,1,1,1,second,12,28,female,L,IMT,2021-07-14_15h18.23.576,ImageRatingTask_S4,2021.1.4,MacIntel,55.55555556,,,,,,,,,
,,,,,,,,,,,,0,2,2,2,1,third,12,28,female,L,IMT,2021-07-14_15h18.23.576,ImageRatingTask_S4,2021.1.4,MacIntel,55.55555556,,,,,,,,,
,,,,,,,,,,,,0,3,3,3,1,fourth,12,28,female,L,IMT,2021-07-14_15h18.23.576,ImageRatingTask_S4,2021.1.4,MacIntel,55.55555556,,,,,,,,,
,,,,,,,,,,,,0,4,4,4,1,fifth,12,28,female,L,IMT,2021-07-14_15h18.23.576,ImageRatingTask_S4,2021.1.4,MacIntel,55.55555556,,,,,,,,,
,,,,,,,,,,,,0,5,5,5,1,sixth,12,28,female,L,IMT,2021-07-14_15h18.23.576,ImageRatingTask_S4,2021.1.4,MacIntel,55.55555556,,,,,,,,,
,,,,,,,,,,,,0,6,6,6,1,seventh,12,28,female,L,IMT,2021-07-14_15h18.23.576,ImageRatingTask_S4,2021.1.4,MacIntel,55.55555556,,,,,,,,,
,,,,,,,,,,,,0,7,7,7,1,last,12,28,female,L,IMT,2021-07-14_15h18.23.576,ImageRatingTask_S4,2021.1.4,MacIntel,55.55555556,,,,,,,,,
,,,,,,,,,,,,,,,,,,12,28,female,L,IMT,2021-07-14_15h18.23.576,ImageRatingTask_S4,2021.1.4,MacIntel,55.55555556,0,33,33,47,1,DreamStudyImages_rs1000x750g/Vehicles/Explosion 3.jpg,,,
,,5,0.95,1,0.441,7,1.885,1,0.668,5,0.421,0,0,0,0,1,main,12,28,female,L,IMT,2021-07-14_15h18.23.576,ImageRatingTask_S4,2021.1.4,MacIntel,55.55555556,,,,,,,,,
,,,,,,,,,,,,0,1,1,1,1,second,12,28,female,L,IMT,2021-07-14_15h18.23.576,ImageRatingTask_S4,2021.1.4,MacIntel,55.55555556,,,,,,,,,
,,,,,,,,,,,,0,2,2,2,1,third,12,28,female,L,IMT,2021-07-14_15h18.23.576,ImageRatingTask_S4,2021.1.4,MacIntel,55.55555556,,,,,,,,,
,,,,,,,,,,,,0,3,3,3,1,fourth,12,28,female,L,IMT,2021-07-14_15h18.23.576,ImageRatingTask_S4,2021.1.4,MacIntel,55.55555556,,,,,,,,,
,,,,,,,,,,,,0,4,4,4,1,fifth,12,28,female,L,IMT,2021-07-14_15h18.23.576,ImageRatingTask_S4,2021.1.4,MacIntel,55.55555556,,,,,,,,,
,,,,,,,,,,,,0,5,5,5,1,sixth,12,28,female,L,IMT,2021-07-14_15h18.23.576,ImageRatingTask_S4,2021.1.4,MacIntel,55.55555556,,,,,,,,,
,,,,,,,,,,,,0,6,6,6,1,seventh,12,28,female,L,IMT,2021-07-14_15h18.23.576,ImageRatingTask_S4,2021.1.4,MacIntel,55.55555556,,,,,,,,,
,,,,,,,,,,,,0,7,7,7,1,last,12,28,female,L,IMT,2021-07-14_15h18.23.576,ImageRatingTask_S4,2021.1.4,MacIntel,55.55555556,,,,,,,,,
,,,,,,,,,,,,,,,,,,12,28,female,L,IMT,2021-07-14_15h18.23.576,ImageRatingTask_S4,2021.1.4,MacIntel,55.55555556,0,34,34,53,1,DreamStudyImages_rs1000x750g/Food/Objects_038_v.jpg,,,
,,5,1.462,1,0.484,7,2.006,1,0.732,2,0.304,0,0,0,0,1,main,12,28,female,L,IMT,2021-07-14_15h18.23.576,ImageRatingTask_S4,2021.1.4,MacIntel,55.55555556,,,,,,,,,
,,,,,,,,,,,,0,1,1,1,1,second,12,28,female,L,IMT,2021-07-14_15h18.23.576,ImageRatingTask_S4,2021.1.4,MacIntel,55.55555556,,,,,,,,,
,,,,,,,,,,,,0,2,2,2,1,third,12,28,female,L,IMT,2021-07-14_15h18.23.576,ImageRatingTask_S4,2021.1.4,MacIntel,55.55555556,,,,,,,,,
,,,,,,,,,,,,0,3,3,3,1,fourth,12,28,female,L,IMT,2021-07-14_15h18.23.576,ImageRatingTask_S4,2021.1.4,MacIntel,55.55555556,,,,,,,,,
,,,,,,,,,,,,0,4,4,4,1,fifth,12,28,female,L,IMT,2021-07-14_15h18.23.576,ImageRatingTask_S4,2021.1.4,MacIntel,55.55555556,,,,,,,,,
,,,,,,,,,,,,0,5,5,5,1,sixth,12,28,female,L,IMT,2021-07-14_15h18.23.576,ImageRatingTask_S4,2021.1.4,MacIntel,55.55555556,,,,,,,,,
,,,,,,,,,,,,0,6,6,6,1,seventh,12,28,female,L,IMT,2021-07-14_15h18.23.576,ImageRatingTask_S4,2021.1.4,MacIntel,55.55555556,,,,,,,,,
,,,,,,,,,,,,0,7,7,7,1,last,12,28,female,L,IMT,2021-07-14_15h18.23.576,ImageRatingTask_S4,2021.1.4,MacIntel,55.55555556,,,,,,,,,
,,,,,,,,,,,,,,,,,,12,28,female,L,IMT,2021-07-14_15h18.23.576,ImageRatingTask_S4,2021.1.4,MacIntel,55.55555556,0,35,35,65,1,DreamStudyImages_rs1000x750g/Children/Faces_056_h.jpg,,,
,,7,1.413,1,0.732,8,1.416,1,1.041,8,0.507,0,0,0,0,1,main,12,28,female,L,IMT,2021-07-14_15h18.23.576,ImageRatingTask_S4,2021.1.4,MacIntel,55.55555556,,,,,,,,,
,,,,,,,,,,,,0,1,1,1,1,second,12,28,female,L,IMT,2021-07-14_15h18.23.576,ImageRatingTask_S4,2021.1.4,MacIntel,55.55555556,,,,,,,,,
,,,,,,,,,,,,0,2,2,2,1,third,12,28,female,L,IMT,2021-07-14_15h18.23.576,ImageRatingTask_S4,2021.1.4,MacIntel,55.55555556,,,,,,,,,
,,,,,,,,,,,,0,3,3,3,1,fourth,12,28,female,L,IMT,2021-07-14_15h18.23.576,ImageRatingTask_S4,2021.1.4,MacIntel,55.55555556,,,,,,,,,
,,,,,,,,,,,,0,4,4,4,1,fifth,12,28,female,L,IMT,2021-07-14_15h18.23.576,ImageRatingTask_S4,2021.1.4,MacIntel,55.55555556,,,,,,,,,
,,,,,,,,,,,,0,5,5,5,1,sixth,12,28,female,L,IMT,2021-07-14_15h18.23.576,ImageRatingTask_S4,2021.1.4,MacIntel,55.55555556,,,,,,,,,
,,,,,,,,,,,,0,6,6,6,1,seventh,12,28,female,L,IMT,2021-07-14_15h18.23.576,ImageRatingTask_S4,2021.1.4,MacIntel,55.55555556,,,,,,,,,
,,,,,,,,,,,,0,7,7,7,1,last,12,28,female,L,IMT,2021-07-14_15h18.23.576,ImageRatingTask_S4,2021.1.4,MacIntel,55.55555556,,,,,,,,,
,,,,,,,,,,,,,,,,,,12,28,female,L,IMT,2021-07-14_15h18.23.576,ImageRatingTask_S4,2021.1.4,MacIntel,55.55555556,0,36,36,96,1,DreamStudyImages_rs1000x750g/Water/Landscapes_148_h.jpg,,,
,,3,1.394,1,0.473,7,2.565,1,0.723,7,0.431,0,0,0,0,1,main,12,28,female,L,IMT,2021-07-14_15h18.23.576,ImageRatingTask_S4,2021.1.4,MacIntel,55.55555556,,,,,,,,,
,,,,,,,,,,,,0,1,1,1,1,second,12,28,female,L,IMT,2021-07-14_15h18.23.576,ImageRatingTask_S4,2021.1.4,MacIntel,55.55555556,,,,,,,,,
,,,,,,,,,,,,0,2,2,2,1,third,12,28,female,L,IMT,2021-07-14_15h18.23.576,ImageRatingTask_S4,2021.1.4,MacIntel,55.55555556,,,,,,,,,
,,,,,,,,,,,,0,3,3,3,1,fourth,12,28,female,L,IMT,2021-07-14_15h18.23.576,ImageRatingTask_S4,2021.1.4,MacIntel,55.55555556,,,,,,,,,
,,,,,,,,,,,,0,4,4,4,1,fifth,12,28,female,L,IMT,2021-07-14_15h18.23.576,ImageRatingTask_S4,2021.1.4,MacIntel,55.55555556,,,,,,,,,
,,,,,,,,,,,,0,5,5,5,1,sixth,12,28,female,L,IMT,2021-07-14_15h18.23.576,ImageRatingTask_S4,2021.1.4,MacIntel,55.55555556,,,,,,,,,
,,,,,,,,,,,,0,6,6,6,1,seventh,12,28,female,L,IMT,2021-07-14_15h18.23.576,ImageRatingTask_S4,2021.1.4,MacIntel,55.55555556,,,,,,,,,
,,,,,,,,,,,,0,7,7,7,1,last,12,28,female,L,IMT,2021-07-14_15h18.23.576,ImageRatingTask_S4,2021.1.4,MacIntel,55.55555556,,,,,,,,,
,,,,,,,,,,,,,,,,,,12,28,female,L,IMT,2021-07-14_15h18.23.576,ImageRatingTask_S4,2021.1.4,MacIntel,55.55555556,0,37,37,61,1,DreamStudyImages_rs1000x750g/Vehicles/NDPS93_destroyedroad.jpg,,,
,,5,1.217,1,0.408,7,1.848,1,0.642,2,0.238,0,0,0,0,1,main,12,28,female,L,IMT,2021-07-14_15h18.23.576,ImageRatingTask_S4,2021.1.4,MacIntel,55.55555556,,,,,,,,,
,,,,,,,,,,,,0,1,1,1,1,second,12,28,female,L,IMT,2021-07-14_15h18.23.576,ImageRatingTask_S4,2021.1.4,MacIntel,55.55555556,,,,,,,,,
,,,,,,,,,,,,0,2,2,2,1,third,12,28,female,L,IMT,2021-07-14_15h18.23.576,ImageRatingTask_S4,2021.1.4,MacIntel,55.55555556,,,,,,,,,
,,,,,,,,,,,,0,3,3,3,1,fourth,12,28,female,L,IMT,2021-07-14_15h18.23.576,ImageRatingTask_S4,2021.1.4,MacIntel,55.55555556,,,,,,,,,
,,,,,,,,,,,,0,4,4,4,1,fifth,12,28,female,L,IMT,2021-07-14_15h18.23.576,ImageRatingTask_S4,2021.1.4,MacIntel,55.55555556,,,,,,,,,
,,,,,,,,,,,,0,5,5,5,1,sixth,12,28,female,L,IMT,2021-07-14_15h18.23.576,ImageRatingTask_S4,2021.1.4,MacIntel,55.55555556,,,,,,,,,
,,,,,,,,,,,,0,6,6,6,1,seventh,12,28,female,L,IMT,2021-07-14_15h18.23.576,ImageRatingTask_S4,2021.1.4,MacIntel,55.55555556,,,,,,,,,
,,,,,,,,,,,,0,7,7,7,1,last,12,28,female,L,IMT,2021-07-14_15h18.23.576,ImageRatingTask_S4,2021.1.4,MacIntel,55.55555556,,,,,,,,,
,,,,,,,,,,,,,,,,,,12,28,female,L,IMT,2021-07-14_15h18.23.576,ImageRatingTask_S4,2021.1.4,MacIntel,55.55555556,0,38,38,88,1,DreamStudyImages_rs1000x750g/Children/Faces_155_h.jpg,,,
,,5,1.035,1,0.591,6,2.458,1,0.616,2,0.222,0,0,0,0,1,main,12,28,female,L,IMT,2021-07-14_15h18.23.576,ImageRatingTask_S4,2021.1.4,MacIntel,55.55555556,,,,,,,,,
,,,,,,,,,,,,0,1,1,1,1,second,12,28,female,L,IMT,2021-07-14_15h18.23.576,ImageRatingTask_S4,2021.1.4,MacIntel,55.55555556,,,,,,,,,
,,,,,,,,,,,,0,2,2,2,1,third,12,28,female,L,IMT,2021-07-14_15h18.23.576,ImageRatingTask_S4,2021.1.4,MacIntel,55.55555556,,,,,,,,,
,,,,,,,,,,,,0,3,3,3,1,fourth,12,28,female,L,IMT,2021-07-14_15h18.23.576,ImageRatingTask_S4,2021.1.4,MacIntel,55.55555556,,,,,,,,,
,,,,,,,,,,,,0,4,4,4,1,fifth,12,28,female,L,IMT,2021-07-14_15h18.23.576,ImageRatingTask_S4,2021.1.4,MacIntel,55.55555556,,,,,,,,,
,,,,,,,,,,,,0,5,5,5,1,sixth,12,28,female,L,IMT,2021-07-14_15h18.23.576,ImageRatingTask_S4,2021.1.4,MacIntel,55.55555556,,,,,,,,,
,,,,,,,,,,,,0,6,6,6,1,seventh,12,28,female,L,IMT,2021-07-14_15h18.23.576,ImageRatingTask_S4,2021.1.4,MacIntel,55.55555556,,,,,,,,,
,,,,,,,,,,,,0,7,7,7,1,last,12,28,female,L,IMT,2021-07-14_15h18.23.576,ImageRatingTask_S4,2021.1.4,MacIntel,55.55555556,,,,,,,,,
,,,,,,,,,,,,,,,,,,12,28,female,L,IMT,2021-07-14_15h18.23.576,ImageRatingTask_S4,2021.1.4,MacIntel,55.55555556,0,39,39,28,1,DreamStudyImages_rs1000x750g/Children/Baby 9.jpg,,,
,,6,1.867,2,0.557,6,1.416,1,0.894,5,0.432,0,0,0,0,1,main,12,28,female,L,IMT,2021-07-14_15h18.23.576,ImageRatingTask_S4,2021.1.4,MacIntel,55.55555556,,,,,,,,,
,,,,,,,,,,,,0,1,1,1,1,second,12,28,female,L,IMT,2021-07-14_15h18.23.576,ImageRatingTask_S4,2021.1.4,MacIntel,55.55555556,,,,,,,,,
,,,,,,,,,,,,0,2,2,2,1,third,12,28,female,L,IMT,2021-07-14_15h18.23.576,ImageRatingTask_S4,2021.1.4,MacIntel,55.55555556,,,,,,,,,
,,,,,,,,,,,,0,3,3,3,1,fourth,12,28,female,L,IMT,2021-07-14_15h18.23.576,ImageRatingTask_S4,2021.1.4,MacIntel,55.55555556,,,,,,,,,
,,,,,,,,,,,,0,4,4,4,1,fifth,12,28,female,L,IMT,2021-07-14_15h18.23.576,ImageRatingTask_S4,2021.1.4,MacIntel,55.55555556,,,,,,,,,
,,,,,,,,,,,,0,5,5,5,1,sixth,12,28,female,L,IMT,2021-07-14_15h18.23.576,ImageRatingTask_S4,2021.1.4,MacIntel,55.55555556,,,,,,,,,
,,,,,,,,,,,,0,6,6,6,1,seventh,12,28,female,L,IMT,2021-07-14_15h18.23.576,ImageRatingTask_S4,2021.1.4,MacIntel,55.55555556,,,,,,,,,
,,,,,,,,,,,,0,7,7,7,1,last,12,28,female,L,IMT,2021-07-14_15h18.23.576,ImageRatingTask_S4,2021.1.4,MacIntel,55.55555556,,,,,,,,,
,,,,,,,,,,,,,,,,,,12,28,female,L,IMT,2021-07-14_15h18.23.576,ImageRatingTask_S4,2021.1.4,MacIntel,55.55555556,0,40,40,114,1,DreamStudyImages_rs1000x750g/Food/Objects_072_v.jpg,,,
,,5,1.182,1,0.391,6,1.416,1,0.556,2,0.245,0,0,0,0,1,main,12,28,female,L,IMT,2021-07-14_15h18.23.576,ImageRatingTask_S4,2021.1.4,MacIntel,55.55555556,,,,,,,,,
,,,,,,,,,,,,0,1,1,1,1,second,12,28,female,L,IMT,2021-07-14_15h18.23.576,ImageRatingTask_S4,2021.1.4,MacIntel,55.55555556,,,,,,,,,
,,,,,,,,,,,,0,2,2,2,1,third,12,28,female,L,IMT,2021-07-14_15h18.23.576,ImageRatingTask_S4,2021.1.4,MacIntel,55.55555556,,,,,,,,,
,,,,,,,,,,,,0,3,3,3,1,fourth,12,28,female,L,IMT,2021-07-14_15h18.23.576,ImageRatingTask_S4,2021.1.4,MacIntel,55.55555556,,,,,,,,,
,,,,,,,,,,,,0,4,4,4,1,fifth,12,28,female,L,IMT,2021-07-14_15h18.23.576,ImageRatingTask_S4,2021.1.4,MacIntel,55.55555556,,,,,,,,,
,,,,,,,,,,,,0,5,5,5,1,sixth,12,28,female,L,IMT,2021-07-14_15h18.23.576,ImageRatingTask_S4,2021.1.4,MacIntel,55.55555556,,,,,,,,,
,,,,,,,,,,,,0,6,6,6,1,seventh,12,28,female,L,IMT,2021-07-14_15h18.23.576,ImageRatingTask_S4,2021.1.4,MacIntel,55.55555556,,,,,,,,,
,,,,,,,,,,,,0,7,7,7,1,last,12,28,female,L,IMT,2021-07-14_15h18.23.576,ImageRatingTask_S4,2021.1.4,MacIntel,55.55555556,,,,,,,,,
,,,,,,,,,,,,,,,,,,12,28,female,L,IMT,2021-07-14_15h18.23.576,ImageRatingTask_S4,2021.1.4,MacIntel,55.55555556,0,41,41,15,1,DreamStudyImages_rs1000x750g/Children/Sad face 5.jpg,,,
,,5,1.857,1,0.464,7,1.866,1,1.109,6,1.001,0,0,0,0,1,main,12,28,female,L,IMT,2021-07-14_15h18.23.576,ImageRatingTask_S4,2021.1.4,MacIntel,55.55555556,,,,,,,,,
,,,,,,,,,,,,0,1,1,1,1,second,12,28,female,L,IMT,2021-07-14_15h18.23.576,ImageRatingTask_S4,2021.1.4,MacIntel,55.55555556,,,,,,,,,
,,,,,,,,,,,,0,2,2,2,1,third,12,28,female,L,IMT,2021-07-14_15h18.23.576,ImageRatingTask_S4,2021.1.4,MacIntel,55.55555556,,,,,,,,,
,,,,,,,,,,,,0,3,3,3,1,fourth,12,28,female,L,IMT,2021-07-14_15h18.23.576,ImageRatingTask_S4,2021.1.4,MacIntel,55.55555556,,,,,,,,,
,,,,,,,,,,,,0,4,4,4,1,fifth,12,28,female,L,IMT,2021-07-14_15h18.23.576,ImageRatingTask_S4,2021.1.4,MacIntel,55.55555556,,,,,,,,,
,,,,,,,,,,,,0,5,5,5,1,sixth,12,28,female,L,IMT,2021-07-14_15h18.23.576,ImageRatingTask_S4,2021.1.4,MacIntel,55.55555556,,,,,,,,,
,,,,,,,,,,,,0,6,6,6,1,seventh,12,28,female,L,IMT,2021-07-14_15h18.23.576,ImageRatingTask_S4,2021.1.4,MacIntel,55.55555556,,,,,,,,,
,,,,,,,,,,,,0,7,7,7,1,last,12,28,female,L,IMT,2021-07-14_15h18.23.576,ImageRatingTask_S4,2021.1.4,MacIntel,55.55555556,,,,,,,,,
,,,,,,,,,,,,,,,,,,12,28,female,L,IMT,2021-07-14_15h18.23.576,ImageRatingTask_S4,2021.1.4,MacIntel,55.55555556,0,42,42,145,1,DreamStudyImages_rs1000x750g/Houses/NDPS48_houses4.jpg,,,
,,6,1.048,2,0.488,7,3.284,1,1.44,3,0.709,0,0,0,0,1,main,12,28,female,L,IMT,2021-07-14_15h18.23.576,ImageRatingTask_S4,2021.1.4,MacIntel,55.55555556,,,,,,,,,
,,,,,,,,,,,,0,1,1,1,1,second,12,28,female,L,IMT,2021-07-14_15h18.23.576,ImageRatingTask_S4,2021.1.4,MacIntel,55.55555556,,,,,,,,,
,,,,,,,,,,,,0,2,2,2,1,third,12,28,female,L,IMT,2021-07-14_15h18.23.576,ImageRatingTask_S4,2021.1.4,MacIntel,55.55555556,,,,,,,,,
,,,,,,,,,,,,0,3,3,3,1,fourth,12,28,female,L,IMT,2021-07-14_15h18.23.576,ImageRatingTask_S4,2021.1.4,MacIntel,55.55555556,,,,,,,,,
,,,,,,,,,,,,0,4,4,4,1,fifth,12,28,female,L,IMT,2021-07-14_15h18.23.576,ImageRatingTask_S4,2021.1.4,MacIntel,55.55555556,,,,,,,,,
,,,,,,,,,,,,0,5,5,5,1,sixth,12,28,female,L,IMT,2021-07-14_15h18.23.576,ImageRatingTask_S4,2021.1.4,MacIntel,55.55555556,,,,,,,,,
,,,,,,,,,,,,0,6,6,6,1,seventh,12,28,female,L,IMT,2021-07-14_15h18.23.576,ImageRatingTask_S4,2021.1.4,MacIntel,55.55555556,,,,,,,,,
,,,,,,,,,,,,0,7,7,7,1,last,12,28,female,L,IMT,2021-07-14_15h18.23.576,ImageRatingTask_S4,2021.1.4,MacIntel,55.55555556,,,,,,,,,
,,,,,,,,,,,,,,,,,,12,28,female,L,IMT,2021-07-14_15h18.23.576,ImageRatingTask_S4,2021.1.4,MacIntel,55.55555556,0,43,43,80,1,DreamStudyImages_rs1000x750g/Mammals/Chipmunk 3.jpg,,,
,,7,2.018,3,0.782,4,1.208,1,0.947,3,0.316,0,0,0,0,1,main,12,28,female,L,IMT,2021-07-14_15h18.23.576,ImageRatingTask_S4,2021.1.4,MacIntel,55.55555556,,,,,,,,,
,,,,,,,,,,,,0,1,1,1,1,second,12,28,female,L,IMT,2021-07-14_15h18.23.576,ImageRatingTask_S4,2021.1.4,MacIntel,55.55555556,,,,,,,,,
,,,,,,,,,,,,0,2,2,2,1,third,12,28,female,L,IMT,2021-07-14_15h18.23.576,ImageRatingTask_S4,2021.1.4,MacIntel,55.55555556,,,,,,,,,
,,,,,,,,,,,,0,3,3,3,1,fourth,12,28,female,L,IMT,2021-07-14_15h18.23.576,ImageRatingTask_S4,2021.1.4,MacIntel,55.55555556,,,,,,,,,
,,,,,,,,,,,,0,4,4,4,1,fifth,12,28,female,L,IMT,2021-07-14_15h18.23.576,ImageRatingTask_S4,2021.1.4,MacIntel,55.55555556,,,,,,,,,
,,,,,,,,,,,,0,5,5,5,1,sixth,12,28,female,L,IMT,2021-07-14_15h18.23.576,ImageRatingTask_S4,2021.1.4,MacIntel,55.55555556,,,,,,,,,
,,,,,,,,,,,,0,6,6,6,1,seventh,12,28,female,L,IMT,2021-07-14_15h18.23.576,ImageRatingTask_S4,2021.1.4,MacIntel,55.55555556,,,,,,,,,
,,,,,,,,,,,,0,7,7,7,1,last,12,28,female,L,IMT,2021-07-14_15h18.23.576,ImageRatingTask_S4,2021.1.4,MacIntel,55.55555556,,,,,,,,,
,,,,,,,,,,,,,,,,,,12,28,female,L,IMT,2021-07-14_15h18.23.576,ImageRatingTask_S4,2021.1.4,MacIntel,55.55555556,0,44,44,101,1,DreamStudyImages_rs1000x750g/Mammals/IAPS1463_kittens.jpg,,,
,,7,1.214,4,0.943,6,1.856,1,0.806,8,0.504,0,0,0,0,1,main,12,28,female,L,IMT,2021-07-14_15h18.23.576,ImageRatingTask_S4,2021.1.4,MacIntel,55.55555556,,,,,,,,,
,,,,,,,,,,,,0,1,1,1,1,second,12,28,female,L,IMT,2021-07-14_15h18.23.576,ImageRatingTask_S4,2021.1.4,MacIntel,55.55555556,,,,,,,,,
,,,,,,,,,,,,0,2,2,2,1,third,12,28,female,L,IMT,2021-07-14_15h18.23.576,ImageRatingTask_S4,2021.1.4,MacIntel,55.55555556,,,,,,,,,
,,,,,,,,,,,,0,3,3,3,1,fourth,12,28,female,L,IMT,2021-07-14_15h18.23.576,ImageRatingTask_S4,2021.1.4,MacIntel,55.55555556,,,,,,,,,
,,,,,,,,,,,,0,4,4,4,1,fifth,12,28,female,L,IMT,2021-07-14_15h18.23.576,ImageRatingTask_S4,2021.1.4,MacIntel,55.55555556,,,,,,,,,
,,,,,,,,,,,,0,5,5,5,1,sixth,12,28,female,L,IMT,2021-07-14_15h18.23.576,ImageRatingTask_S4,2021.1.4,MacIntel,55.55555556,,,,,,,,,
,,,,,,,,,,,,0,6,6,6,1,seventh,12,28,female,L,IMT,2021-07-14_15h18.23.576,ImageRatingTask_S4,2021.1.4,MacIntel,55.55555556,,,,,,,,,
,,,,,,,,,,,,0,7,7,7,1,last,12,28,female,L,IMT,2021-07-14_15h18.23.576,ImageRatingTask_S4,2021.1.4,MacIntel,55.55555556,,,,,,,,,
,,,,,,,,,,,,,,,,,,12,28,female,L,IMT,2021-07-14_15h18.23.576,ImageRatingTask_S4,2021.1.4,MacIntel,55.55555556,0,45,45,67,1,DreamStudyImages_rs1000x750g/Water/5210.jpg,,,
,,6,3.955,1,0.732,7,2.092,2,1.036,2,1.31,0,0,0,0,1,main,12,28,female,L,IMT,2021-07-14_15h18.23.576,ImageRatingTask_S4,2021.1.4,MacIntel,55.55555556,,,,,,,,,
,,,,,,,,,,1,0.451,0,1,1,1,1,second,12,28,female,L,IMT,2021-07-14_15h18.23.576,ImageRatingTask_S4,2021.1.4,MacIntel,55.55555556,,,,,,,,,
,,,,,,,,,,,,0,2,2,2,1,third,12,28,female,L,IMT,2021-07-14_15h18.23.576,ImageRatingTask_S4,2021.1.4,MacIntel,55.55555556,,,,,,,,,
,,,,,,,,,,,,0,3,3,3,1,fourth,12,28,female,L,IMT,2021-07-14_15h18.23.576,ImageRatingTask_S4,2021.1.4,MacIntel,55.55555556,,,,,,,,,
,,,,,,,,,,,,0,4,4,4,1,fifth,12,28,female,L,IMT,2021-07-14_15h18.23.576,ImageRatingTask_S4,2021.1.4,MacIntel,55.55555556,,,,,,,,,
,,,,,,,,,,,,0,5,5,5,1,sixth,12,28,female,L,IMT,2021-07-14_15h18.23.576,ImageRatingTask_S4,2021.1.4,MacIntel,55.55555556,,,,,,,,,
,,,,,,,,,,,,0,6,6,6,1,seventh,12,28,female,L,IMT,2021-07-14_15h18.23.576,ImageRatingTask_S4,2021.1.4,MacIntel,55.55555556,,,,,,,,,
,,,,,,,,,,,,0,7,7,7,1,last,12,28,female,L,IMT,2021-07-14_15h18.23.576,ImageRatingTask_S4,2021.1.4,MacIntel,55.55555556,,,,,,,,,
,,,,,,,,,,,,,,,,,,12,28,female,L,IMT,2021-07-14_15h18.23.576,ImageRatingTask_S4,2021.1.4,MacIntel,55.55555556,0,46,46,42,1,DreamStudyImages_rs1000x750g/Children/IAPS2075_baby10.jpg,,,
,,5,4.738,1,0.615,4,1.469,1,1.907,8,0.774,0,0,0,0,1,main,12,28,female,L,IMT,2021-07-14_15h18.23.576,ImageRatingTask_S4,2021.1.4,MacIntel,55.55555556,,,,,,,,,
,,,,,,,,,,,,0,1,1,1,1,second,12,28,female,L,IMT,2021-07-14_15h18.23.576,ImageRatingTask_S4,2021.1.4,MacIntel,55.55555556,,,,,,,,,
,,,,,,,,,,,,0,2,2,2,1,third,12,28,female,L,IMT,2021-07-14_15h18.23.576,ImageRatingTask_S4,2021.1.4,MacIntel,55.55555556,,,,,,,,,
,,,,,,,,,,,,0,3,3,3,1,fourth,12,28,female,L,IMT,2021-07-14_15h18.23.576,ImageRatingTask_S4,2021.1.4,MacIntel,55.55555556,,,,,,,,,
,,,,,,,,,,,,0,4,4,4,1,fifth,12,28,female,L,IMT,2021-07-14_15h18.23.576,ImageRatingTask_S4,2021.1.4,MacIntel,55.55555556,,,,,,,,,
,,,,,,,,,,,,0,5,5,5,1,sixth,12,28,female,L,IMT,2021-07-14_15h18.23.576,ImageRatingTask_S4,2021.1.4,MacIntel,55.55555556,,,,,,,,,
,,,,,,,,,,,,0,6,6,6,1,seventh,12,28,female,L,IMT,2021-07-14_15h18.23.576,ImageRatingTask_S4,2021.1.4,MacIntel,55.55555556,,,,,,,,,
,,,,,,,,,,,,0,7,7,7,1,last,12,28,female,L,IMT,2021-07-14_15h18.23.576,ImageRatingTask_S4,2021.1.4,MacIntel,55.55555556,,,,,,,,,
,,,,,,,,,,,,,,,,,,12,28,female,L,IMT,2021-07-14_15h18.23.576,ImageRatingTask_S4,2021.1.4,MacIntel,55.55555556,0,47,47,81,1,DreamStudyImages_rs1000x750g/Water/Rainbow 2.jpg,,,
,,7,1.639,2,0.782,4,1.149,1,1.947,8,0.895,0,0,0,0,1,main,12,28,female,L,IMT,2021-07-14_15h18.23.576,ImageRatingTask_S4,2021.1.4,MacIntel,55.55555556,,,,,,,,,
,,,,,,,,,,,,0,1,1,1,1,second,12,28,female,L,IMT,2021-07-14_15h18.23.576,ImageRatingTask_S4,2021.1.4,MacIntel,55.55555556,,,,,,,,,
,,,,,,,,,,,,0,2,2,2,1,third,12,28,female,L,IMT,2021-07-14_15h18.23.576,ImageRatingTask_S4,2021.1.4,MacIntel,55.55555556,,,,,,,,,
,,,,,,,,,,,,0,3,3,3,1,fourth,12,28,female,L,IMT,2021-07-14_15h18.23.576,ImageRatingTask_S4,2021.1.4,MacIntel,55.55555556,,,,,,,,,
,,,,,,,,,,,,0,4,4,4,1,fifth,12,28,female,L,IMT,2021-07-14_15h18.23.576,ImageRatingTask_S4,2021.1.4,MacIntel,55.55555556,,,,,,,,,
,,,,,,,,,,,,0,5,5,5,1,sixth,12,28,female,L,IMT,2021-07-14_15h18.23.576,ImageRatingTask_S4,2021.1.4,MacIntel,55.55555556,,,,,,,,,
,,,,,,,,,,,,0,6,6,6,1,seventh,12,28,female,L,IMT,2021-07-14_15h18.23.576,ImageRatingTask_S4,2021.1.4,MacIntel,55.55555556,,,,,,,,,
,,,,,,,,,,,,0,7,7,7,1,last,12,28,female,L,IMT,2021-07-14_15h18.23.576,ImageRatingTask_S4,2021.1.4,MacIntel,55.55555556,,,,,,,,,
,,,,,,,,,,,,,,,,,,12,28,female,L,IMT,2021-07-14_15h18.23.576,ImageRatingTask_S4,2021.1.4,MacIntel,55.55555556,0,48,48,31,1,DreamStudyImages_rs1000x750g/Water/IAPS5760_lake.jpg,,,
,,3,1.643,4,1.555,7,2.458,0,1.987,,,0,0,0,0,1,main,12,28,female,L,IMT,2021-07-14_15h18.23.576,ImageRatingTask_S4,2021.1.4,MacIntel,55.55555556,,,,,,,,,
,,,,,,,,,,,,0,1,1,1,1,second,12,28,female,L,IMT,2021-07-14_15h18.23.576,ImageRatingTask_S4,2021.1.4,MacIntel,55.55555556,,,,,,,,,
,,,,,,,,,,,,0,2,2,2,1,third,12,28,female,L,IMT,2021-07-14_15h18.23.576,ImageRatingTask_S4,2021.1.4,MacIntel,55.55555556,,,,,,,,,
,,,,,,,,,,,,0,3,3,3,1,fourth,12,28,female,L,IMT,2021-07-14_15h18.23.576,ImageRatingTask_S4,2021.1.4,MacIntel,55.55555556,,,,,,,,,
,,,,,,,,,,,,0,4,4,4,1,fifth,12,28,female,L,IMT,2021-07-14_15h18.23.576,ImageRatingTask_S4,2021.1.4,MacIntel,55.55555556,,,,,,,,,
,,,,,,,,,,,,0,5,5,5,1,sixth,12,28,female,L,IMT,2021-07-14_15h18.23.576,ImageRatingTask_S4,2021.1.4,MacIntel,55.55555556,,,,,,,,,
,,,,,,,,,,,,0,6,6,6,1,seventh,12,28,female,L,IMT,2021-07-14_15h18.23.576,ImageRatingTask_S4,2021.1.4,MacIntel,55.55555556,,,,,,,,,
,,,,,,,,,,,,0,7,7,7,1,last,12,28,female,L,IMT,2021-07-14_15h18.23.576,ImageRatingTask_S4,2021.1.4,MacIntel,55.55555556,,,,,,,,,
,,,,,,,,,,,,,,,,,,12,28,female,L,IMT,2021-07-14_15h18.23.576,ImageRatingTask_S4,2021.1.4,MacIntel,55.55555556,0,49,49,109,1,DreamStudyImages_rs1000x750g/Vehicles/NDPS87_backtruck.jpg,,,
,,7,1.507,2,0.547,7,3.916,1,1.315,8,0.662,0,0,0,0,1,main,12,28,female,L,IMT,2021-07-14_15h18.23.576,ImageRatingTask_S4,2021.1.4,MacIntel,55.55555556,,,,,,,,,
,,,,,,,,,,,,0,1,1,1,1,second,12,28,female,L,IMT,2021-07-14_15h18.23.576,ImageRatingTask_S4,2021.1.4,MacIntel,55.55555556,,,,,,,,,
,,,,,,,,,,,,0,2,2,2,1,third,12,28,female,L,IMT,2021-07-14_15h18.23.576,ImageRatingTask_S4,2021.1.4,MacIntel,55.55555556,,,,,,,,,
,,,,,,,,,,,,0,3,3,3,1,fourth,12,28,female,L,IMT,2021-07-14_15h18.23.576,ImageRatingTask_S4,2021.1.4,MacIntel,55.55555556,,,,,,,,,
,,,,,,,,,,,,0,4,4,4,1,fifth,12,28,female,L,IMT,2021-07-14_15h18.23.576,ImageRatingTask_S4,2021.1.4,MacIntel,55.55555556,,,,,,,,,
,,,,,,,,,,,,0,5,5,5,1,sixth,12,28,female,L,IMT,2021-07-14_15h18.23.576,ImageRatingTask_S4,2021.1.4,MacIntel,55.55555556,,,,,,,,,
,,,,,,,,,,,,0,6,6,6,1,seventh,12,28,female,L,IMT,2021-07-14_15h18.23.576,ImageRatingTask_S4,2021.1.4,MacIntel,55.55555556,,,,,,,,,
,,,,,,,,,,,,0,7,7,7,1,last,12,28,female,L,IMT,2021-07-14_15h18.23.576,ImageRatingTask_S4,2021.1.4,MacIntel,55.55555556,,,,,,,,,
,,,,,,,,,,,,,,,,,,12,28,female,L,IMT,2021-07-14_15h18.23.576,ImageRatingTask_S4,2021.1.4,MacIntel,55.55555556,0,50,50,86,1,DreamStudyImages_rs1000x750g/Water/Sunset 4.jpg,,,
,,5,1.145,1,0.441,7,1.267,1,0.978,6,0.67,0,0,0,0,1,main,12,28,female,L,IMT,2021-07-14_15h18.23.576,ImageRatingTask_S4,2021.1.4,MacIntel,55.55555556,,,,,,,,,
,,,,,,,,,,,,0,1,1,1,1,second,12,28,female,L,IMT,2021-07-14_15h18.23.576,ImageRatingTask_S4,2021.1.4,MacIntel,55.55555556,,,,,,,,,
,,,,,,,,,,,,0,2,2,2,1,third,12,28,female,L,IMT,2021-07-14_15h18.23.576,ImageRatingTask_S4,2021.1.4,MacIntel,55.55555556,,,,,,,,,
,,,,,,,,,,,,0,3,3,3,1,fourth,12,28,female,L,IMT,2021-07-14_15h18.23.576,ImageRatingTask_S4,2021.1.4,MacIntel,55.55555556,,,,,,,,,
,,,,,,,,,,,,0,4,4,4,1,fifth,12,28,female,L,IMT,2021-07-14_15h18.23.576,ImageRatingTask_S4,2021.1.4,MacIntel,55.55555556,,,,,,,,,
,,,,,,,,,,,,0,5,5,5,1,sixth,12,28,female,L,IMT,2021-07-14_15h18.23.576,ImageRatingTask_S4,2021.1.4,MacIntel,55.55555556,,,,,,,,,
,,,,,,,,,,,,0,6,6,6,1,seventh,12,28,female,L,IMT,2021-07-14_15h18.23.576,ImageRatingTask_S4,2021.1.4,MacIntel,55.55555556,,,,,,,,,
,,,,,,,,,,,,0,7,7,7,1,last,12,28,female,L,IMT,2021-07-14_15h18.23.576,ImageRatingTask_S4,2021.1.4,MacIntel,55.55555556,,,,,,,,,
,,,,,,,,,,,,,,,,,,12,28,female,L,IMT,2021-07-14_15h18.23.576,ImageRatingTask_S4,2021.1.4,MacIntel,55.55555556,0,51,51,64,1,DreamStudyImages_rs1000x750g/Houses/Objects_234_h.jpg,,,
,,6,1.116,1,0.434,8,1.56,1,0.872,8,1.114,0,0,0,0,1,main,12,28,female,L,IMT,2021-07-14_15h18.23.576,ImageRatingTask_S4,2021.1.4,MacIntel,55.55555556,,,,,,,,,
,,,,,,,,,,,,0,1,1,1,1,second,12,28,female,L,IMT,2021-07-14_15h18.23.576,ImageRatingTask_S4,2021.1.4,MacIntel,55.55555556,,,,,,,,,
,,,,,,,,,,,,0,2,2,2,1,third,12,28,female,L,IMT,2021-07-14_15h18.23.576,ImageRatingTask_S4,2021.1.4,MacIntel,55.55555556,,,,,,,,,
,,,,,,,,,,,,0,3,3,3,1,fourth,12,28,female,L,IMT,2021-07-14_15h18.23.576,ImageRatingTask_S4,2021.1.4,MacIntel,55.55555556,,,,,,,,,
,,,,,,,,,,,,0,4,4,4,1,fifth,12,28,female,L,IMT,2021-07-14_15h18.23.576,ImageRatingTask_S4,2021.1.4,MacIntel,55.55555556,,,,,,,,,
,,,,,,,,,,,,0,5,5,5,1,sixth,12,28,female,L,IMT,2021-07-14_15h18.23.576,ImageRatingTask_S4,2021.1.4,MacIntel,55.55555556,,,,,,,,,
,,,,,,,,,,,,0,6,6,6,1,seventh,12,28,female,L,IMT,2021-07-14_15h18.23.576,ImageRatingTask_S4,2021.1.4,MacIntel,55.55555556,,,,,,,,,
,,,,,,,,,,,,0,7,7,7,1,last,12,28,female,L,IMT,2021-07-14_15h18.23.576,ImageRatingTask_S4,2021.1.4,MacIntel,55.55555556,,,,,,,,,
,,,,,,,,,,,,,,,,,,12,28,female,L,IMT,2021-07-14_15h18.23.576,ImageRatingTask_S4,2021.1.4,MacIntel,55.55555556,0,52,52,21,1,DreamStudyImages_rs1000x750g/Water/Landscapes_104_h.jpg,,,
,,6,1.415,2,0.434,7,1.857,1,0.672,2,0.242,0,0,0,0,1,main,12,28,female,L,IMT,2021-07-14_15h18.23.576,ImageRatingTask_S4,2021.1.4,MacIntel,55.55555556,,,,,,,,,
,,,,,,,,,,,,0,1,1,1,1,second,12,28,female,L,IMT,2021-07-14_15h18.23.576,ImageRatingTask_S4,2021.1.4,MacIntel,55.55555556,,,,,,,,,
,,,,,,,,,,,,0,2,2,2,1,third,12,28,female,L,IMT,2021-07-14_15h18.23.576,ImageRatingTask_S4,2021.1.4,MacIntel,55.55555556,,,,,,,,,
,,,,,,,,,,,,0,3,3,3,1,fourth,12,28,female,L,IMT,2021-07-14_15h18.23.576,ImageRatingTask_S4,2021.1.4,MacIntel,55.55555556,,,,,,,,,
,,,,,,,,,,,,0,4,4,4,1,fifth,12,28,female,L,IMT,2021-07-14_15h18.23.576,ImageRatingTask_S4,2021.1.4,MacIntel,55.55555556,,,,,,,,,
,,,,,,,,,,,,0,5,5,5,1,sixth,12,28,female,L,IMT,2021-07-14_15h18.23.576,ImageRatingTask_S4,2021.1.4,MacIntel,55.55555556,,,,,,,,,
,,,,,,,,,,,,0,6,6,6,1,seventh,12,28,female,L,IMT,2021-07-14_15h18.23.576,ImageRatingTask_S4,2021.1.4,MacIntel,55.55555556,,,,,,,,,
,,,,,,,,,,,,0,7,7,7,1,last,12,28,female,L,IMT,2021-07-14_15h18.23.576,ImageRatingTask_S4,2021.1.4,MacIntel,55.55555556,,,,,,,,,
,,,,,,,,,,,,,,,,,,12,28,female,L,IMT,2021-07-14_15h18.23.576,ImageRatingTask_S4,2021.1.4,MacIntel,55.55555556,0,53,53,127,1,DreamStudyImages_rs1000x750g/Children/Faces_082_v.jpg,,,
,,5,2.285,1,0.491,5,1.282,1,0.673,2,0.224,0,0,0,0,1,main,12,28,female,L,IMT,2021-07-14_15h18.23.576,ImageRatingTask_S4,2021.1.4,MacIntel,55.55555556,,,,,,,,,
,,,,,,,,,,,,0,1,1,1,1,second,12,28,female,L,IMT,2021-07-14_15h18.23.576,ImageRatingTask_S4,2021.1.4,MacIntel,55.55555556,,,,,,,,,
,,,,,,,,,,,,0,2,2,2,1,third,12,28,female,L,IMT,2021-07-14_15h18.23.576,ImageRatingTask_S4,2021.1.4,MacIntel,55.55555556,,,,,,,,,
,,,,,,,,,,,,0,3,3,3,1,fourth,12,28,female,L,IMT,2021-07-14_15h18.23.576,ImageRatingTask_S4,2021.1.4,MacIntel,55.55555556,,,,,,,,,
,,,,,,,,,,,,0,4,4,4,1,fifth,12,28,female,L,IMT,2021-07-14_15h18.23.576,ImageRatingTask_S4,2021.1.4,MacIntel,55.55555556,,,,,,,,,
,,,,,,,,,,,,0,5,5,5,1,sixth,12,28,female,L,IMT,2021-07-14_15h18.23.576,ImageRatingTask_S4,2021.1.4,MacIntel,55.55555556,,,,,,,,,
,,,,,,,,,,,,0,6,6,6,1,seventh,12,28,female,L,IMT,2021-07-14_15h18.23.576,ImageRatingTask_S4,2021.1.4,MacIntel,55.55555556,,,,,,,,,
,,,,,,,,,,,,0,7,7,7,1,last,12,28,female,L,IMT,2021-07-14_15h18.23.576,ImageRatingTask_S4,2021.1.4,MacIntel,55.55555556,,,,,,,,,
,,,,,,,,,,,,,,,,,,12,28,female,L,IMT,2021-07-14_15h18.23.576,ImageRatingTask_S4,2021.1.4,MacIntel,55.55555556,0,54,54,95,1,DreamStudyImages_rs1000x750g/Children/IAPS9070_child10.jpg,,,
,,6,1.587,2,0.498,7,1.484,1,0.606,2,0.302,0,0,0,0,1,main,12,28,female,L,IMT,2021-07-14_15h18.23.576,ImageRatingTask_S4,2021.1.4,MacIntel,55.55555556,,,,,,,,,
,,,,,,,,,,,,0,1,1,1,1,second,12,28,female,L,IMT,2021-07-14_15h18.23.576,ImageRatingTask_S4,2021.1.4,MacIntel,55.55555556,,,,,,,,,
,,,,,,,,,,,,0,2,2,2,1,third,12,28,female,L,IMT,2021-07-14_15h18.23.576,ImageRatingTask_S4,2021.1.4,MacIntel,55.55555556,,,,,,,,,
,,,,,,,,,,,,0,3,3,3,1,fourth,12,28,female,L,IMT,2021-07-14_15h18.23.576,ImageRatingTask_S4,2021.1.4,MacIntel,55.55555556,,,,,,,,,
,,,,,,,,,,,,0,4,4,4,1,fifth,12,28,female,L,IMT,2021-07-14_15h18.23.576,ImageRatingTask_S4,2021.1.4,MacIntel,55.55555556,,,,,,,,,
,,,,,,,,,,,,0,5,5,5,1,sixth,12,28,female,L,IMT,2021-07-14_15h18.23.576,ImageRatingTask_S4,2021.1.4,MacIntel,55.55555556,,,,,,,,,
,,,,,,,,,,,,0,6,6,6,1,seventh,12,28,female,L,IMT,2021-07-14_15h18.23.576,ImageRatingTask_S4,2021.1.4,MacIntel,55.55555556,,,,,,,,,
,,,,,,,,,,,,0,7,7,7,1,last,12,28,female,L,IMT,2021-07-14_15h18.23.576,ImageRatingTask_S4,2021.1.4,MacIntel,55.55555556,,,,,,,,,
,,,,,,,,,,,,,,,,,,12,28,female,L,IMT,2021-07-14_15h18.23.576,ImageRatingTask_S4,2021.1.4,MacIntel,55.55555556,0,55,55,7,1,DreamStudyImages_rs1000x750g/Children/IAPS2274_children7.jpg,,,
,,5,1.219,1,0.43,5,1.256,1,0.716,7,0.62,0,0,0,0,1,main,12,28,female,L,IMT,2021-07-14_15h18.23.576,ImageRatingTask_S4,2021.1.4,MacIntel,55.55555556,,,,,,,,,
,,,,,,,,,,,,0,1,1,1,1,second,12,28,female,L,IMT,2021-07-14_15h18.23.576,ImageRatingTask_S4,2021.1.4,MacIntel,55.55555556,,,,,,,,,
,,,,,,,,,,,,0,2,2,2,1,third,12,28,female,L,IMT,2021-07-14_15h18.23.576,ImageRatingTask_S4,2021.1.4,MacIntel,55.55555556,,,,,,,,,
,,,,,,,,,,,,0,3,3,3,1,fourth,12,28,female,L,IMT,2021-07-14_15h18.23.576,ImageRatingTask_S4,2021.1.4,MacIntel,55.55555556,,,,,,,,,
,,,,,,,,,,,,0,4,4,4,1,fifth,12,28,female,L,IMT,2021-07-14_15h18.23.576,ImageRatingTask_S4,2021.1.4,MacIntel,55.55555556,,,,,,,,,
,,,,,,,,,,,,0,5,5,5,1,sixth,12,28,female,L,IMT,2021-07-14_15h18.23.576,ImageRatingTask_S4,2021.1.4,MacIntel,55.55555556,,,,,,,,,
,,,,,,,,,,,,0,6,6,6,1,seventh,12,28,female,L,IMT,2021-07-14_15h18.23.576,ImageRatingTask_S4,2021.1.4,MacIntel,55.55555556,,,,,,,,,
,,,,,,,,,,,,0,7,7,7,1,last,12,28,female,L,IMT,2021-07-14_15h18.23.576,ImageRatingTask_S4,2021.1.4,MacIntel,55.55555556,,,,,,,,,
,,,,,,,,,,,,,,,,,,12,28,female,L,IMT,2021-07-14_15h18.23.576,ImageRatingTask_S4,2021.1.4,MacIntel,55.55555556,0,56,56,100,1,DreamStudyImages_rs1000x750g/Vehicles/Plane crash 2.jpg,,,
,,2,3.444,1,0.623,5,6.349,1,0.731,2,0.312,0,0,0,0,1,main,12,28,female,L,IMT,2021-07-14_15h18.23.576,ImageRatingTask_S4,2021.1.4,MacIntel,55.55555556,,,,,,,,,
,,,,,,,,,,,,0,1,1,1,1,second,12,28,female,L,IMT,2021-07-14_15h18.23.576,ImageRatingTask_S4,2021.1.4,MacIntel,55.55555556,,,,,,,,,
,,,,,,,,,,,,0,2,2,2,1,third,12,28,female,L,IMT,2021-07-14_15h18.23.576,ImageRatingTask_S4,2021.1.4,MacIntel,55.55555556,,,,,,,,,
,,,,,,,,,,,,0,3,3,3,1,fourth,12,28,female,L,IMT,2021-07-14_15h18.23.576,ImageRatingTask_S4,2021.1.4,MacIntel,55.55555556,,,,,,,,,
,,,,,,,,,,,,0,4,4,4,1,fifth,12,28,female,L,IMT,2021-07-14_15h18.23.576,ImageRatingTask_S4,2021.1.4,MacIntel,55.55555556,,,,,,,,,
,,,,,,,,,,,,0,5,5,5,1,sixth,12,28,female,L,IMT,2021-07-14_15h18.23.576,ImageRatingTask_S4,2021.1.4,MacIntel,55.55555556,,,,,,,,,
,,,,,,,,,,,,0,6,6,6,1,seventh,12,28,female,L,IMT,2021-07-14_15h18.23.576,ImageRatingTask_S4,2021.1.4,MacIntel,55.55555556,,,,,,,,,
,,,,,,,,,,,,0,7,7,7,1,last,12,28,female,L,IMT,2021-07-14_15h18.23.576,ImageRatingTask_S4,2021.1.4,MacIntel,55.55555556,,,,,,,,,
,,,,,,,,,,,,,,,,,,12,28,female,L,IMT,2021-07-14_15h18.23.576,ImageRatingTask_S4,2021.1.4,MacIntel,55.55555556,0,57,57,130,1,DreamStudyImages_rs1000x750g/Children/IAPS2345.1_boy7.jpg,,,
,,6,2.339,1,0.739,4,2.135,1,0.693,5,0.791,0,0,0,0,1,main,12,28,female,L,IMT,2021-07-14_15h18.23.576,ImageRatingTask_S4,2021.1.4,MacIntel,55.55555556,,,,,,,,,
,,,,,,,,,,,,0,1,1,1,1,second,12,28,female,L,IMT,2021-07-14_15h18.23.576,ImageRatingTask_S4,2021.1.4,MacIntel,55.55555556,,,,,,,,,
,,,,,,,,,,,,0,2,2,2,1,third,12,28,female,L,IMT,2021-07-14_15h18.23.576,ImageRatingTask_S4,2021.1.4,MacIntel,55.55555556,,,,,,,,,
,,,,,,,,,,,,0,3,3,3,1,fourth,12,28,female,L,IMT,2021-07-14_15h18.23.576,ImageRatingTask_S4,2021.1.4,MacIntel,55.55555556,,,,,,,,,
,,,,,,,,,,,,0,4,4,4,1,fifth,12,28,female,L,IMT,2021-07-14_15h18.23.576,ImageRatingTask_S4,2021.1.4,MacIntel,55.55555556,,,,,,,,,
,,,,,,,,,,,,0,5,5,5,1,sixth,12,28,female,L,IMT,2021-07-14_15h18.23.576,ImageRatingTask_S4,2021.1.4,MacIntel,55.55555556,,,,,,,,,
,,,,,,,,,,,,0,6,6,6,1,seventh,12,28,female,L,IMT,2021-07-14_15h18.23.576,ImageRatingTask_S4,2021.1.4,MacIntel,55.55555556,,,,,,,,,
,,,,,,,,,,,,0,7,7,7,1,last,12,28,female,L,IMT,2021-07-14_15h18.23.576,ImageRatingTask_S4,2021.1.4,MacIntel,55.55555556,,,,,,,,,
,,,,,,,,,,,,,,,,,,12,28,female,L,IMT,2021-07-14_15h18.23.576,ImageRatingTask_S4,2021.1.4,MacIntel,55.55555556,0,58,58,94,1,DreamStudyImages_rs1000x750g/Food/IAPS7400_chocolate.jpg,,,
,,7,1.023,2,0.64,7,3.207,1,0.906,3,0.501,0,0,0,0,1,main,12,28,female,L,IMT,2021-07-14_15h18.23.576,ImageRatingTask_S4,2021.1.4,MacIntel,55.55555556,,,,,,,,,
,,,,,,,,,,,,0,1,1,1,1,second,12,28,female,L,IMT,2021-07-14_15h18.23.576,ImageRatingTask_S4,2021.1.4,MacIntel,55.55555556,,,,,,,,,
,,,,,,,,,,,,0,2,2,2,1,third,12,28,female,L,IMT,2021-07-14_15h18.23.576,ImageRatingTask_S4,2021.1.4,MacIntel,55.55555556,,,,,,,,,
,,,,,,,,,,,,0,3,3,3,1,fourth,12,28,female,L,IMT,2021-07-14_15h18.23.576,ImageRatingTask_S4,2021.1.4,MacIntel,55.55555556,,,,,,,,,
,,,,,,,,,,,,0,4,4,4,1,fifth,12,28,female,L,IMT,2021-07-14_15h18.23.576,ImageRatingTask_S4,2021.1.4,MacIntel,55.55555556,,,,,,,,,
,,,,,,,,,,,,0,5,5,5,1,sixth,12,28,female,L,IMT,2021-07-14_15h18.23.576,ImageRatingTask_S4,2021.1.4,MacIntel,55.55555556,,,,,,,,,
,,,,,,,,,,,,0,6,6,6,1,seventh,12,28,female,L,IMT,2021-07-14_15h18.23.576,ImageRatingTask_S4,2021.1.4,MacIntel,55.55555556,,,,,,,,,
,,,,,,,,,,,,0,7,7,7,1,last,12,28,female,L,IMT,2021-07-14_15h18.23.576,ImageRatingTask_S4,2021.1.4,MacIntel,55.55555556,,,,,,,,,
,,,,,,,,,,,,,,,,,,12,28,female,L,IMT,2021-07-14_15h18.23.576,ImageRatingTask_S4,2021.1.4,MacIntel,55.55555556,0,59,59,152,1,DreamStudyImages_rs1000x750g/Mammals/IAPS1500_dog6.jpg,,,
,,6,1.248,2,0.549,7,2.282,1,0.891,3,0.337,0,0,0,0,1,main,12,28,female,L,IMT,2021-07-14_15h18.23.576,ImageRatingTask_S4,2021.1.4,MacIntel,55.55555556,,,,,,,,,
,,,,,,,,,,,,0,1,1,1,1,second,12,28,female,L,IMT,2021-07-14_15h18.23.576,ImageRatingTask_S4,2021.1.4,MacIntel,55.55555556,,,,,,,,,
,,,,,,,,,,,,0,2,2,2,1,third,12,28,female,L,IMT,2021-07-14_15h18.23.576,ImageRatingTask_S4,2021.1.4,MacIntel,55.55555556,,,,,,,,,
,,,,,,,,,,,,0,3,3,3,1,fourth,12,28,female,L,IMT,2021-07-14_15h18.23.576,ImageRatingTask_S4,2021.1.4,MacIntel,55.55555556,,,,,,,,,
,,,,,,,,,,,,0,4,4,4,1,fifth,12,28,female,L,IMT,2021-07-14_15h18.23.576,ImageRatingTask_S4,2021.1.4,MacIntel,55.55555556,,,,,,,,,
,,,,,,,,,,,,0,5,5,5,1,sixth,12,28,female,L,IMT,2021-07-14_15h18.23.576,ImageRatingTask_S4,2021.1.4,MacIntel,55.55555556,,,,,,,,,
,,,,,,,,,,,,0,6,6,6,1,seventh,12,28,female,L,IMT,2021-07-14_15h18.23.576,ImageRatingTask_S4,2021.1.4,MacIntel,55.55555556,,,,,,,,,
,,,,,,,,,,,,0,7,7,7,1,last,12,28,female,L,IMT,2021-07-14_15h18.23.576,ImageRatingTask_S4,2021.1.4,MacIntel,55.55555556,,,,,,,,,
,,,,,,,,,,,,,,,,,,12,28,female,L,IMT,2021-07-14_15h18.23.576,ImageRatingTask_S4,2021.1.4,MacIntel,55.55555556,0,60,60,84,1,DreamStudyImages_rs1000x750g/Mammals/Chipmunk 2.jpg,,,
,,6,1.06,2,0.606,7,1.392,1,0.608,3,0.306,0,0,0,0,1,main,12,28,female,L,IMT,2021-07-14_15h18.23.576,ImageRatingTask_S4,2021.1.4,MacIntel,55.55555556,,,,,,,,,
,,,,,,,,,,,,0,1,1,1,1,second,12,28,female,L,IMT,2021-07-14_15h18.23.576,ImageRatingTask_S4,2021.1.4,MacIntel,55.55555556,,,,,,,,,
,,,,,,,,,,,,0,2,2,2,1,third,12,28,female,L,IMT,2021-07-14_15h18.23.576,ImageRatingTask_S4,2021.1.4,MacIntel,55.55555556,,,,,,,,,
,,,,,,,,,,,,0,3,3,3,1,fourth,12,28,female,L,IMT,2021-07-14_15h18.23.576,ImageRatingTask_S4,2021.1.4,MacIntel,55.55555556,,,,,,,,,
,,,,,,,,,,,,0,4,4,4,1,fifth,12,28,female,L,IMT,2021-07-14_15h18.23.576,ImageRatingTask_S4,2021.1.4,MacIntel,55.55555556,,,,,,,,,
,,,,,,,,,,,,0,5,5,5,1,sixth,12,28,female,L,IMT,2021-07-14_15h18.23.576,ImageRatingTask_S4,2021.1.4,MacIntel,55.55555556,,,,,,,,,
,,,,,,,,,,,,0,6,6,6,1,seventh,12,28,female,L,IMT,2021-07-14_15h18.23.576,ImageRatingTask_S4,2021.1.4,MacIntel,55.55555556,,,,,,,,,
,,,,,,,,,,,,0,7,7,7,1,last,12,28,female,L,IMT,2021-07-14_15h18.23.576,ImageRatingTask_S4,2021.1.4,MacIntel,55.55555556,,,,,,,,,
,,,,,,,,,,,,,,,,,,12,28,female,L,IMT,2021-07-14_15h18.23.576,ImageRatingTask_S4,2021.1.4,MacIntel,55.55555556,0,61,61,70,1,DreamStudyImages_rs1000x750g/Mammals/Animals_176_h.jpg,,,
,,5,1.042,1,0.453,5,1.491,1,0.634,5,0.354,0,0,0,0,1,main,12,28,female,L,IMT,2021-07-14_15h18.23.576,ImageRatingTask_S4,2021.1.4,MacIntel,55.55555556,,,,,,,,,
,,,,,,,,,,,,0,1,1,1,1,second,12,28,female,L,IMT,2021-07-14_15h18.23.576,ImageRatingTask_S4,2021.1.4,MacIntel,55.55555556,,,,,,,,,
,,,,,,,,,,,,0,2,2,2,1,third,12,28,female,L,IMT,2021-07-14_15h18.23.576,ImageRatingTask_S4,2021.1.4,MacIntel,55.55555556,,,,,,,,,
,,,,,,,,,,,,0,3,3,3,1,fourth,12,28,female,L,IMT,2021-07-14_15h18.23.576,ImageRatingTask_S4,2021.1.4,MacIntel,55.55555556,,,,,,,,,
,,,,,,,,,,,,0,4,4,4,1,fifth,12,28,female,L,IMT,2021-07-14_15h18.23.576,ImageRatingTask_S4,2021.1.4,MacIntel,55.55555556,,,,,,,,,
,,,,,,,,,,,,0,5,5,5,1,sixth,12,28,female,L,IMT,2021-07-14_15h18.23.576,ImageRatingTask_S4,2021.1.4,MacIntel,55.55555556,,,,,,,,,
,,,,,,,,,,,,0,6,6,6,1,seventh,12,28,female,L,IMT,2021-07-14_15h18.23.576,ImageRatingTask_S4,2021.1.4,MacIntel,55.55555556,,,,,,,,,
,,,,,,,,,,,,0,7,7,7,1,last,12,28,female,L,IMT,2021-07-14_15h18.23.576,ImageRatingTask_S4,2021.1.4,MacIntel,55.55555556,,,,,,,,,
,,,,,,,,,,,,,,,,,,12,28,female,L,IMT,2021-07-14_15h18.23.576,ImageRatingTask_S4,2021.1.4,MacIntel,55.55555556,0,62,62,119,1,DreamStudyImages_rs1000x750g/Food/Dessert 1.jpg,,,
,,4,1.697,1,0.692,6,1.93,1,0.757,2,0.774,0,0,0,0,1,main,12,28,female,L,IMT,2021-07-14_15h18.23.576,ImageRatingTask_S4,2021.1.4,MacIntel,55.55555556,,,,,,,,,
,,,,,,,,,,,,0,1,1,1,1,second,12,28,female,L,IMT,2021-07-14_15h18.23.576,ImageRatingTask_S4,2021.1.4,MacIntel,55.55555556,,,,,,,,,
,,,,,,,,,,,,0,2,2,2,1,third,12,28,female,L,IMT,2021-07-14_15h18.23.576,ImageRatingTask_S4,2021.1.4,MacIntel,55.55555556,,,,,,,,,
,,,,,,,,,,,,0,3,3,3,1,fourth,12,28,female,L,IMT,2021-07-14_15h18.23.576,ImageRatingTask_S4,2021.1.4,MacIntel,55.55555556,,,,,,,,,
,,,,,,,,,,,,0,4,4,4,1,fifth,12,28,female,L,IMT,2021-07-14_15h18.23.576,ImageRatingTask_S4,2021.1.4,MacIntel,55.55555556,,,,,,,,,
,,,,,,,,,,,,0,5,5,5,1,sixth,12,28,female,L,IMT,2021-07-14_15h18.23.576,ImageRatingTask_S4,2021.1.4,MacIntel,55.55555556,,,,,,,,,
,,,,,,,,,,,,0,6,6,6,1,seventh,12,28,female,L,IMT,2021-07-14_15h18.23.576,ImageRatingTask_S4,2021.1.4,MacIntel,55.55555556,,,,,,,,,
,,,,,,,,,,,,0,7,7,7,1,last,12,28,female,L,IMT,2021-07-14_15h18.23.576,ImageRatingTask_S4,2021.1.4,MacIntel,55.55555556,,,,,,,,,
,,,,,,,,,,,,,,,,,,12,28,female,L,IMT,2021-07-14_15h18.23.576,ImageRatingTask_S4,2021.1.4,MacIntel,55.55555556,0,63,63,111,1,DreamStudyImages_rs1000x750g/Children/Sad face 8.jpg,,,
,,5,1.839,1,0.525,6,1.296,1,0.782,2,0.293,0,0,0,0,1,main,12,28,female,L,IMT,2021-07-14_15h18.23.576,ImageRatingTask_S4,2021.1.4,MacIntel,55.55555556,,,,,,,,,
,,,,,,,,,,,,0,1,1,1,1,second,12,28,female,L,IMT,2021-07-14_15h18.23.576,ImageRatingTask_S4,2021.1.4,MacIntel,55.55555556,,,,,,,,,
,,,,,,,,,,,,0,2,2,2,1,third,12,28,female,L,IMT,2021-07-14_15h18.23.576,ImageRatingTask_S4,2021.1.4,MacIntel,55.55555556,,,,,,,,,
,,,,,,,,,,,,0,3,3,3,1,fourth,12,28,female,L,IMT,2021-07-14_15h18.23.576,ImageRatingTask_S4,2021.1.4,MacIntel,55.55555556,,,,,,,,,
,,,,,,,,,,,,0,4,4,4,1,fifth,12,28,female,L,IMT,2021-07-14_15h18.23.576,ImageRatingTask_S4,2021.1.4,MacIntel,55.55555556,,,,,,,,,
,,,,,,,,,,,,0,5,5,5,1,sixth,12,28,female,L,IMT,2021-07-14_15h18.23.576,ImageRatingTask_S4,2021.1.4,MacIntel,55.55555556,,,,,,,,,
,,,,,,,,,,,,0,6,6,6,1,seventh,12,28,female,L,IMT,2021-07-14_15h18.23.576,ImageRatingTask_S4,2021.1.4,MacIntel,55.55555556,,,,,,,,,
,,,,,,,,,,,,0,7,7,7,1,last,12,28,female,L,IMT,2021-07-14_15h18.23.576,ImageRatingTask_S4,2021.1.4,MacIntel,55.55555556,,,,,,,,,
,,,,,,,,,,,,,,,,,,12,28,female,L,IMT,2021-07-14_15h18.23.576,ImageRatingTask_S4,2021.1.4,MacIntel,55.55555556,0,64,64,59,1,DreamStudyImages_rs1000x750g/Children/Faces_062_v.jpg,,,
,,6,3.164,1,0.564,5,1.165,1,0.462,5,0.36,0,0,0,0,1,main,12,28,female,L,IMT,2021-07-14_15h18.23.576,ImageRatingTask_S4,2021.1.4,MacIntel,55.55555556,,,,,,,,,
,,,,,,,,,,,,0,1,1,1,1,second,12,28,female,L,IMT,2021-07-14_15h18.23.576,ImageRatingTask_S4,2021.1.4,MacIntel,55.55555556,,,,,,,,,
,,,,,,,,,,,,0,2,2,2,1,third,12,28,female,L,IMT,2021-07-14_15h18.23.576,ImageRatingTask_S4,2021.1.4,MacIntel,55.55555556,,,,,,,,,
,,,,,,,,,,,,0,3,3,3,1,fourth,12,28,female,L,IMT,2021-07-14_15h18.23.576,ImageRatingTask_S4,2021.1.4,MacIntel,55.55555556,,,,,,,,,
,,,,,,,,,,,,0,4,4,4,1,fifth,12,28,female,L,IMT,2021-07-14_15h18.23.576,ImageRatingTask_S4,2021.1.4,MacIntel,55.55555556,,,,,,,,,
,,,,,,,,,,,,0,5,5,5,1,sixth,12,28,female,L,IMT,2021-07-14_15h18.23.576,ImageRatingTask_S4,2021.1.4,MacIntel,55.55555556,,,,,,,,,
,,,,,,,,,,,,0,6,6,6,1,seventh,12,28,female,L,IMT,2021-07-14_15h18.23.576,ImageRatingTask_S4,2021.1.4,MacIntel,55.55555556,,,,,,,,,
,,,,,,,,,,,,0,7,7,7,1,last,12,28,female,L,IMT,2021-07-14_15h18.23.576,ImageRatingTask_S4,2021.1.4,MacIntel,55.55555556,,,,,,,,,
,,,,,,,,,,,,,,,,,,12,28,female,L,IMT,2021-07-14_15h18.23.576,ImageRatingTask_S4,2021.1.4,MacIntel,55.55555556,0,65,65,78,1,DreamStudyImages_rs1000x750g/Food/IAPS7286_dessert2.jpg,,,
,,4,1.288,1,0.381,6,3.19,1,0.611,2,0.227,0,0,0,0,1,main,12,28,female,L,IMT,2021-07-14_15h18.23.576,ImageRatingTask_S4,2021.1.4,MacIntel,55.55555556,,,,,,,,,
,,,,,,,,,,,,0,1,1,1,1,second,12,28,female,L,IMT,2021-07-14_15h18.23.576,ImageRatingTask_S4,2021.1.4,MacIntel,55.55555556,,,,,,,,,
,,,,,,,,,,,,0,2,2,2,1,third,12,28,female,L,IMT,2021-07-14_15h18.23.576,ImageRatingTask_S4,2021.1.4,MacIntel,55.55555556,,,,,,,,,
,,,,,,,,,,,,0,3,3,3,1,fourth,12,28,female,L,IMT,2021-07-14_15h18.23.576,ImageRatingTask_S4,2021.1.4,MacIntel,55.55555556,,,,,,,,,
,,,,,,,,,,,,0,4,4,4,1,fifth,12,28,female,L,IMT,2021-07-14_15h18.23.576,ImageRatingTask_S4,2021.1.4,MacIntel,55.55555556,,,,,,,,,
,,,,,,,,,,,,0,5,5,5,1,sixth,12,28,female,L,IMT,2021-07-14_15h18.23.576,ImageRatingTask_S4,2021.1.4,MacIntel,55.55555556,,,,,,,,,
,,,,,,,,,,,,0,6,6,6,1,seventh,12,28,female,L,IMT,2021-07-14_15h18.23.576,ImageRatingTask_S4,2021.1.4,MacIntel,55.55555556,,,,,,,,,
,,,,,,,,,,,,0,7,7,7,1,last,12,28,female,L,IMT,2021-07-14_15h18.23.576,ImageRatingTask_S4,2021.1.4,MacIntel,55.55555556,,,,,,,,,
,,,,,,,,,,,,,,,,,,12,28,female,L,IMT,2021-07-14_15h18.23.576,ImageRatingTask_S4,2021.1.4,MacIntel,55.55555556,0,66,66,144,1,DreamStudyImages_rs1000x750g/Children/Miserable face 2.jpg,,,
,,6,1.69,2,0.55,6,2.68,1,0.932,5,0.364,0,0,0,0,1,main,12,28,female,L,IMT,2021-07-14_15h18.23.576,ImageRatingTask_S4,2021.1.4,MacIntel,55.55555556,,,,,,,,,
,,,,,,,,,,,,0,1,1,1,1,second,12,28,female,L,IMT,2021-07-14_15h18.23.576,ImageRatingTask_S4,2021.1.4,MacIntel,55.55555556,,,,,,,,,
,,,,,,,,,,,,0,2,2,2,1,third,12,28,female,L,IMT,2021-07-14_15h18.23.576,ImageRatingTask_S4,2021.1.4,MacIntel,55.55555556,,,,,,,,,
,,,,,,,,,,,,0,3,3,3,1,fourth,12,28,female,L,IMT,2021-07-14_15h18.23.576,ImageRatingTask_S4,2021.1.4,MacIntel,55.55555556,,,,,,,,,
,,,,,,,,,,,,0,4,4,4,1,fifth,12,28,female,L,IMT,2021-07-14_15h18.23.576,ImageRatingTask_S4,2021.1.4,MacIntel,55.55555556,,,,,,,,,
,,,,,,,,,,,,0,5,5,5,1,sixth,12,28,female,L,IMT,2021-07-14_15h18.23.576,ImageRatingTask_S4,2021.1.4,MacIntel,55.55555556,,,,,,,,,
,,,,,,,,,,,,0,6,6,6,1,seventh,12,28,female,L,IMT,2021-07-14_15h18.23.576,ImageRatingTask_S4,2021.1.4,MacIntel,55.55555556,,,,,,,,,
,,,,,,,,,,,,0,7,7,7,1,last,12,28,female,L,IMT,2021-07-14_15h18.23.576,ImageRatingTask_S4,2021.1.4,MacIntel,55.55555556,,,,,,,,,
,,,,,,,,,,,,,,,,,,12,28,female,L,IMT,2021-07-14_15h18.23.576,ImageRatingTask_S4,2021.1.4,MacIntel,55.55555556,0,67,67,112,1,DreamStudyImages_rs1000x750g/Food/IAPS7482_diner4.jpg,,,
,,7,1.18,2,0.656,7,1.28,1,0.812,8,1.593,0,0,0,0,1,main,12,28,female,L,IMT,2021-07-14_15h18.23.576,ImageRatingTask_S4,2021.1.4,MacIntel,55.55555556,,,,,,,,,
,,,,,,,,,,,,0,1,1,1,1,second,12,28,female,L,IMT,2021-07-14_15h18.23.576,ImageRatingTask_S4,2021.1.4,MacIntel,55.55555556,,,,,,,,,
,,,,,,,,,,,,0,2,2,2,1,third,12,28,female,L,IMT,2021-07-14_15h18.23.576,ImageRatingTask_S4,2021.1.4,MacIntel,55.55555556,,,,,,,,,
,,,,,,,,,,,,0,3,3,3,1,fourth,12,28,female,L,IMT,2021-07-14_15h18.23.576,ImageRatingTask_S4,2021.1.4,MacIntel,55.55555556,,,,,,,,,
,,,,,,,,,,,,0,4,4,4,1,fifth,12,28,female,L,IMT,2021-07-14_15h18.23.576,ImageRatingTask_S4,2021.1.4,MacIntel,55.55555556,,,,,,,,,
,,,,,,,,,,,,0,5,5,5,1,sixth,12,28,female,L,IMT,2021-07-14_15h18.23.576,ImageRatingTask_S4,2021.1.4,MacIntel,55.55555556,,,,,,,,,
,,,,,,,,,,,,0,6,6,6,1,seventh,12,28,female,L,IMT,2021-07-14_15h18.23.576,ImageRatingTask_S4,2021.1.4,MacIntel,55.55555556,,,,,,,,,
,,,,,,,,,,,,0,7,7,7,1,last,12,28,female,L,IMT,2021-07-14_15h18.23.576,ImageRatingTask_S4,2021.1.4,MacIntel,55.55555556,,,,,,,,,
,,,,,,,,,,,,,,,,,,12,28,female,L,IMT,2021-07-14_15h18.23.576,ImageRatingTask_S4,2021.1.4,MacIntel,55.55555556,0,68,68,19,1,DreamStudyImages_rs1000x750g/Water/waterfall.jpg,,,
,,5,1.037,1,0.43,8,1.863,1,0.991,6,1.879,0,0,0,0,1,main,12,28,female,L,IMT,2021-07-14_15h18.23.576,ImageRatingTask_S4,2021.1.4,MacIntel,55.55555556,,,,,,,,,
,,,,,,,,,,,,0,1,1,1,1,second,12,28,female,L,IMT,2021-07-14_15h18.23.576,ImageRatingTask_S4,2021.1.4,MacIntel,55.55555556,,,,,,,,,
,,,,,,,,,,,,0,2,2,2,1,third,12,28,female,L,IMT,2021-07-14_15h18.23.576,ImageRatingTask_S4,2021.1.4,MacIntel,55.55555556,,,,,,,,,
,,,,,,,,,,,,0,3,3,3,1,fourth,12,28,female,L,IMT,2021-07-14_15h18.23.576,ImageRatingTask_S4,2021.1.4,MacIntel,55.55555556,,,,,,,,,
,,,,,,,,,,,,0,4,4,4,1,fifth,12,28,female,L,IMT,2021-07-14_15h18.23.576,ImageRatingTask_S4,2021.1.4,MacIntel,55.55555556,,,,,,,,,
,,,,,,,,,,,,0,5,5,5,1,sixth,12,28,female,L,IMT,2021-07-14_15h18.23.576,ImageRatingTask_S4,2021.1.4,MacIntel,55.55555556,,,,,,,,,
,,,,,,,,,,,,0,6,6,6,1,seventh,12,28,female,L,IMT,2021-07-14_15h18.23.576,ImageRatingTask_S4,2021.1.4,MacIntel,55.55555556,,,,,,,,,
,,,,,,,,,,,,0,7,7,7,1,last,12,28,female,L,IMT,2021-07-14_15h18.23.576,ImageRatingTask_S4,2021.1.4,MacIntel,55.55555556,,,,,,,,,
,,,,,,,,,,,,,,,,,,12,28,female,L,IMT,2021-07-14_15h18.23.576,ImageRatingTask_S4,2021.1.4,MacIntel,55.55555556,0,69,69,156,1,DreamStudyImages_rs1000x750g/Houses/Landscapes_010_h.jpg,,,
,,1,4.021,6,1.122,8,1.816,1,1.455,5,0.403,0,0,0,0,1,main,12,28,female,L,IMT,2021-07-14_15h18.23.576,ImageRatingTask_S4,2021.1.4,MacIntel,55.55555556,,,,,,,,,
,,,,,,,,,,,,0,1,1,1,1,second,12,28,female,L,IMT,2021-07-14_15h18.23.576,ImageRatingTask_S4,2021.1.4,MacIntel,55.55555556,,,,,,,,,
,,,,,,,,,,,,0,2,2,2,1,third,12,28,female,L,IMT,2021-07-14_15h18.23.576,ImageRatingTask_S4,2021.1.4,MacIntel,55.55555556,,,,,,,,,
,,,,,,,,,,,,0,3,3,3,1,fourth,12,28,female,L,IMT,2021-07-14_15h18.23.576,ImageRatingTask_S4,2021.1.4,MacIntel,55.55555556,,,,,,,,,
,,,,,,,,,,,,0,4,4,4,1,fifth,12,28,female,L,IMT,2021-07-14_15h18.23.576,ImageRatingTask_S4,2021.1.4,MacIntel,55.55555556,,,,,,,,,
,,,,,,,,,,,,0,5,5,5,1,sixth,12,28,female,L,IMT,2021-07-14_15h18.23.576,ImageRatingTask_S4,2021.1.4,MacIntel,55.55555556,,,,,,,,,
,,,,,,,,,,,,0,6,6,6,1,seventh,12,28,female,L,IMT,2021-07-14_15h18.23.576,ImageRatingTask_S4,2021.1.4,MacIntel,55.55555556,,,,,,,,,
,,,,,,,,,,,,0,7,7,7,1,last,12,28,female,L,IMT,2021-07-14_15h18.23.576,ImageRatingTask_S4,2021.1.4,MacIntel,55.55555556,,,,,,,,,
,,,,,,,,,,,,,,,,,,12,28,female,L,IMT,2021-07-14_15h18.23.576,ImageRatingTask_S4,2021.1.4,MacIntel,55.55555556,0,70,70,93,1,DreamStudyImages_rs1000x750g/Food/food_neg_4bis.jpg,,,
,,6,1.818,2,0.498,6,2.242,1,0.625,2,0.381,0,0,0,0,1,main,12,28,female,L,IMT,2021-07-14_15h18.23.576,ImageRatingTask_S4,2021.1.4,MacIntel,55.55555556,,,,,,,,,
,,,,,,,,,,,,0,1,1,1,1,second,12,28,female,L,IMT,2021-07-14_15h18.23.576,ImageRatingTask_S4,2021.1.4,MacIntel,55.55555556,,,,,,,,,
,,,,,,,,,,,,0,2,2,2,1,third,12,28,female,L,IMT,2021-07-14_15h18.23.576,ImageRatingTask_S4,2021.1.4,MacIntel,55.55555556,,,,,,,,,
,,,,,,,,,,,,0,3,3,3,1,fourth,12,28,female,L,IMT,2021-07-14_15h18.23.576,ImageRatingTask_S4,2021.1.4,MacIntel,55.55555556,,,,,,,,,
,,,,,,,,,,,,0,4,4,4,1,fifth,12,28,female,L,IMT,2021-07-14_15h18.23.576,ImageRatingTask_S4,2021.1.4,MacIntel,55.55555556,,,,,,,,,
,,,,,,,,,,,,0,5,5,5,1,sixth,12,28,female,L,IMT,2021-07-14_15h18.23.576,ImageRatingTask_S4,2021.1.4,MacIntel,55.55555556,,,,,,,,,
,,,,,,,,,,,,0,6,6,6,1,seventh,12,28,female,L,IMT,2021-07-14_15h18.23.576,ImageRatingTask_S4,2021.1.4,MacIntel,55.55555556,,,,,,,,,
,,,,,,,,,,,,0,7,7,7,1,last,12,28,female,L,IMT,2021-07-14_15h18.23.576,ImageRatingTask_S4,2021.1.4,MacIntel,55.55555556,,,,,,,,,
,,,,,,,,,,,,,,,,,,12,28,female,L,IMT,2021-07-14_15h18.23.576,ImageRatingTask_S4,2021.1.4,MacIntel,55.55555556,0,71,71,140,1,DreamStudyImages_rs1000x750g/Children/Excited face 5.jpg,,,
,,6,1.812,2,0.49,5,1.151,1,0.492,5,0.388,0,0,0,0,1,main,12,28,female,L,IMT,2021-07-14_15h18.23.576,ImageRatingTask_S4,2021.1.4,MacIntel,55.55555556,,,,,,,,,
,,,,,,,,,,,,0,1,1,1,1,second,12,28,female,L,IMT,2021-07-14_15h18.23.576,ImageRatingTask_S4,2021.1.4,MacIntel,55.55555556,,,,,,,,,
,,,,,,,,,,,,0,2,2,2,1,third,12,28,female,L,IMT,2021-07-14_15h18.23.576,ImageRatingTask_S4,2021.1.4,MacIntel,55.55555556,,,,,,,,,
,,,,,,,,,,,,0,3,3,3,1,fourth,12,28,female,L,IMT,2021-07-14_15h18.23.576,ImageRatingTask_S4,2021.1.4,MacIntel,55.55555556,,,,,,,,,
,,,,,,,,,,,,0,4,4,4,1,fifth,12,28,female,L,IMT,2021-07-14_15h18.23.576,ImageRatingTask_S4,2021.1.4,MacIntel,55.55555556,,,,,,,,,
,,,,,,,,,,,,0,5,5,5,1,sixth,12,28,female,L,IMT,2021-07-14_15h18.23.576,ImageRatingTask_S4,2021.1.4,MacIntel,55.55555556,,,,,,,,,
,,,,,,,,,,,,0,6,6,6,1,seventh,12,28,female,L,IMT,2021-07-14_15h18.23.576,ImageRatingTask_S4,2021.1.4,MacIntel,55.55555556,,,,,,,,,
,,,,,,,,,,,,0,7,7,7,1,last,12,28,female,L,IMT,2021-07-14_15h18.23.576,ImageRatingTask_S4,2021.1.4,MacIntel,55.55555556,,,,,,,,,
,,,,,,,,,,,,,,,,,,12,28,female,L,IMT,2021-07-14_15h18.23.576,ImageRatingTask_S4,2021.1.4,MacIntel,55.55555556,0,72,72,150,1,DreamStudyImages_rs1000x750g/Food/IAPS7230_diner.jpg,,,
,,5,1.589,1,0.691,7,1.867,1,0.591,5,0.471,0,0,0,0,1,main,12,28,female,L,IMT,2021-07-14_15h18.23.576,ImageRatingTask_S4,2021.1.4,MacIntel,55.55555556,,,,,,,,,
,,,,,,,,,,,,0,1,1,1,1,second,12,28,female,L,IMT,2021-07-14_15h18.23.576,ImageRatingTask_S4,2021.1.4,MacIntel,55.55555556,,,,,,,,,
,,,,,,,,,,,,0,2,2,2,1,third,12,28,female,L,IMT,2021-07-14_15h18.23.576,ImageRatingTask_S4,2021.1.4,MacIntel,55.55555556,,,,,,,,,
,,,,,,,,,,,,0,3,3,3,1,fourth,12,28,female,L,IMT,2021-07-14_15h18.23.576,ImageRatingTask_S4,2021.1.4,MacIntel,55.55555556,,,,,,,,,
,,,,,,,,,,,,0,4,4,4,1,fifth,12,28,female,L,IMT,2021-07-14_15h18.23.576,ImageRatingTask_S4,2021.1.4,MacIntel,55.55555556,,,,,,,,,
,,,,,,,,,,,,0,5,5,5,1,sixth,12,28,female,L,IMT,2021-07-14_15h18.23.576,ImageRatingTask_S4,2021.1.4,MacIntel,55.55555556,,,,,,,,,
,,,,,,,,,,,,0,6,6,6,1,seventh,12,28,female,L,IMT,2021-07-14_15h18.23.576,ImageRatingTask_S4,2021.1.4,MacIntel,55.55555556,,,,,,,,,
,,,,,,,,,,,,0,7,7,7,1,last,12,28,female,L,IMT,2021-07-14_15h18.23.576,ImageRatingTask_S4,2021.1.4,MacIntel,55.55555556,,,,,,,,,
,,,,,,,,,,,,,,,,,,12,28,female,L,IMT,2021-07-14_15h18.23.576,ImageRatingTask_S4,2021.1.4,MacIntel,55.55555556,0,73,73,38,1,DreamStudyImages_rs1000x750g/Food/IAPS7365_mincedmeat.jpg,,,
,,5,1.706,1,0.567,5,1.139,1,0.43,5,1.062,0,0,0,0,1,main,12,28,female,L,IMT,2021-07-14_15h18.23.576,ImageRatingTask_S4,2021.1.4,MacIntel,55.55555556,,,,,,,,,
,,,,,,,,,,,,0,1,1,1,1,second,12,28,female,L,IMT,2021-07-14_15h18.23.576,ImageRatingTask_S4,2021.1.4,MacIntel,55.55555556,,,,,,,,,
,,,,,,,,,,,,0,2,2,2,1,third,12,28,female,L,IMT,2021-07-14_15h18.23.576,ImageRatingTask_S4,2021.1.4,MacIntel,55.55555556,,,,,,,,,
,,,,,,,,,,,,0,3,3,3,1,fourth,12,28,female,L,IMT,2021-07-14_15h18.23.576,ImageRatingTask_S4,2021.1.4,MacIntel,55.55555556,,,,,,,,,
,,,,,,,,,,,,0,4,4,4,1,fifth,12,28,female,L,IMT,2021-07-14_15h18.23.576,ImageRatingTask_S4,2021.1.4,MacIntel,55.55555556,,,,,,,,,
,,,,,,,,,,,,0,5,5,5,1,sixth,12,28,female,L,IMT,2021-07-14_15h18.23.576,ImageRatingTask_S4,2021.1.4,MacIntel,55.55555556,,,,,,,,,
,,,,,,,,,,,,0,6,6,6,1,seventh,12,28,female,L,IMT,2021-07-14_15h18.23.576,ImageRatingTask_S4,2021.1.4,MacIntel,55.55555556,,,,,,,,,
,,,,,,,,,,,,0,7,7,7,1,last,12,28,female,L,IMT,2021-07-14_15h18.23.576,ImageRatingTask_S4,2021.1.4,MacIntel,55.55555556,,,,,,,,,
,,,,,,,,,,,,,,,,,,12,28,female,L,IMT,2021-07-14_15h18.23.576,ImageRatingTask_S4,2021.1.4,MacIntel,55.55555556,0,74,74,138,1,DreamStudyImages_rs1000x750g/Food/IAPS7281_skewers.jpg,,,
,,4,1.237,1,0.399,7,1.68,1,0.857,7,0.853,0,0,0,0,1,main,12,28,female,L,IMT,2021-07-14_15h18.23.576,ImageRatingTask_S4,2021.1.4,MacIntel,55.55555556,,,,,,,,,
,,,,,,,,,,,,0,1,1,1,1,second,12,28,female,L,IMT,2021-07-14_15h18.23.576,ImageRatingTask_S4,2021.1.4,MacIntel,55.55555556,,,,,,,,,
,,,,,,,,,,,,0,2,2,2,1,third,12,28,female,L,IMT,2021-07-14_15h18.23.576,ImageRatingTask_S4,2021.1.4,MacIntel,55.55555556,,,,,,,,,
,,,,,,,,,,,,0,3,3,3,1,fourth,12,28,female,L,IMT,2021-07-14_15h18.23.576,ImageRatingTask_S4,2021.1.4,MacIntel,55.55555556,,,,,,,,,
,,,,,,,,,,,,0,4,4,4,1,fifth,12,28,female,L,IMT,2021-07-14_15h18.23.576,ImageRatingTask_S4,2021.1.4,MacIntel,55.55555556,,,,,,,,,
,,,,,,,,,,,,0,5,5,5,1,sixth,12,28,female,L,IMT,2021-07-14_15h18.23.576,ImageRatingTask_S4,2021.1.4,MacIntel,55.55555556,,,,,,,,,
,,,,,,,,,,,,0,6,6,6,1,seventh,12,28,female,L,IMT,2021-07-14_15h18.23.576,ImageRatingTask_S4,2021.1.4,MacIntel,55.55555556,,,,,,,,,
,,,,,,,,,,,,0,7,7,7,1,last,12,28,female,L,IMT,2021-07-14_15h18.23.576,ImageRatingTask_S4,2021.1.4,MacIntel,55.55555556,,,,,,,,,
,,,,,,,,,,,,,,,,,,12,28,female,L,IMT,2021-07-14_15h18.23.576,ImageRatingTask_S4,2021.1.4,MacIntel,55.55555556,0,75,75,131,1,DreamStudyImages_rs1000x750g/Vehicles/IAPS9909_carcrash6.jpg,,,
,,5,2.05,1,0.432,5,1.76,1,0.695,2,1.195,0,0,0,0,1,main,12,28,female,L,IMT,2021-07-14_15h18.23.576,ImageRatingTask_S4,2021.1.4,MacIntel,55.55555556,,,,,,,,,
,,,,,,,,,,,,0,1,1,1,1,second,12,28,female,L,IMT,2021-07-14_15h18.23.576,ImageRatingTask_S4,2021.1.4,MacIntel,55.55555556,,,,,,,,,
,,,,,,,,,,,,0,2,2,2,1,third,12,28,female,L,IMT,2021-07-14_15h18.23.576,ImageRatingTask_S4,2021.1.4,MacIntel,55.55555556,,,,,,,,,
,,,,,,,,,,,,0,3,3,3,1,fourth,12,28,female,L,IMT,2021-07-14_15h18.23.576,ImageRatingTask_S4,2021.1.4,MacIntel,55.55555556,,,,,,,,,
,,,,,,,,,,,,0,4,4,4,1,fifth,12,28,female,L,IMT,2021-07-14_15h18.23.576,ImageRatingTask_S4,2021.1.4,MacIntel,55.55555556,,,,,,,,,
,,,,,,,,,,,,0,5,5,5,1,sixth,12,28,female,L,IMT,2021-07-14_15h18.23.576,ImageRatingTask_S4,2021.1.4,MacIntel,55.55555556,,,,,,,,,
,,,,,,,,,,,,0,6,6,6,1,seventh,12,28,female,L,IMT,2021-07-14_15h18.23.576,ImageRatingTask_S4,2021.1.4,MacIntel,55.55555556,,,,,,,,,
,,,,,,,,,,,,0,7,7,7,1,last,12,28,female,L,IMT,2021-07-14_15h18.23.576,ImageRatingTask_S4,2021.1.4,MacIntel,55.55555556,,,,,,,,,
,,,,,,,,,,,,,,,,,,12,28,female,L,IMT,2021-07-14_15h18.23.576,ImageRatingTask_S4,2021.1.4,MacIntel,55.55555556,0,76,76,132,1,DreamStudyImages_rs1000x750g/Children/Faces_012_v.jpg,,,
,,7,1.309,2,0.566,7,1.698,1,0.614,8,0.456,0,0,0,0,1,main,12,28,female,L,IMT,2021-07-14_15h18.23.576,ImageRatingTask_S4,2021.1.4,MacIntel,55.55555556,,,,,,,,,
,,,,,,,,,,,,0,1,1,1,1,second,12,28,female,L,IMT,2021-07-14_15h18.23.576,ImageRatingTask_S4,2021.1.4,MacIntel,55.55555556,,,,,,,,,
,,,,,,,,,,,,0,2,2,2,1,third,12,28,female,L,IMT,2021-07-14_15h18.23.576,ImageRatingTask_S4,2021.1.4,MacIntel,55.55555556,,,,,,,,,
,,,,,,,,,,,,0,3,3,3,1,fourth,12,28,female,L,IMT,2021-07-14_15h18.23.576,ImageRatingTask_S4,2021.1.4,MacIntel,55.55555556,,,,,,,,,
,,,,,,,,,,,,0,4,4,4,1,fifth,12,28,female,L,IMT,2021-07-14_15h18.23.576,ImageRatingTask_S4,2021.1.4,MacIntel,55.55555556,,,,,,,,,
,,,,,,,,,,,,0,5,5,5,1,sixth,12,28,female,L,IMT,2021-07-14_15h18.23.576,ImageRatingTask_S4,2021.1.4,MacIntel,55.55555556,,,,,,,,,
,,,,,,,,,,,,0,6,6,6,1,seventh,12,28,female,L,IMT,2021-07-14_15h18.23.576,ImageRatingTask_S4,2021.1.4,MacIntel,55.55555556,,,,,,,,,
,,,,,,,,,,,,0,7,7,7,1,last,12,28,female,L,IMT,2021-07-14_15h18.23.576,ImageRatingTask_S4,2021.1.4,MacIntel,55.55555556,,,,,,,,,
,,,,,,,,,,,,,,,,,,12,28,female,L,IMT,2021-07-14_15h18.23.576,ImageRatingTask_S4,2021.1.4,MacIntel,55.55555556,0,77,77,48,1,DreamStudyImages_rs1000x750g/Water/Sunset 5.jpg,,,
,,6,1.391,3,0.607,7,2.766,1,0.713,3,0.362,0,0,0,0,1,main,12,28,female,L,IMT,2021-07-14_15h18.23.576,ImageRatingTask_S4,2021.1.4,MacIntel,55.55555556,,,,,,,,,
,,,,,,,,,,,,0,1,1,1,1,second,12,28,female,L,IMT,2021-07-14_15h18.23.576,ImageRatingTask_S4,2021.1.4,MacIntel,55.55555556,,,,,,,,,
,,,,,,,,,,,,0,2,2,2,1,third,12,28,female,L,IMT,2021-07-14_15h18.23.576,ImageRatingTask_S4,2021.1.4,MacIntel,55.55555556,,,,,,,,,
,,,,,,,,,,,,0,3,3,3,1,fourth,12,28,female,L,IMT,2021-07-14_15h18.23.576,ImageRatingTask_S4,2021.1.4,MacIntel,55.55555556,,,,,,,,,
,,,,,,,,,,,,0,4,4,4,1,fifth,12,28,female,L,IMT,2021-07-14_15h18.23.576,ImageRatingTask_S4,2021.1.4,MacIntel,55.55555556,,,,,,,,,
,,,,,,,,,,,,0,5,5,5,1,sixth,12,28,female,L,IMT,2021-07-14_15h18.23.576,ImageRatingTask_S4,2021.1.4,MacIntel,55.55555556,,,,,,,,,
,,,,,,,,,,,,0,6,6,6,1,seventh,12,28,female,L,IMT,2021-07-14_15h18.23.576,ImageRatingTask_S4,2021.1.4,MacIntel,55.55555556,,,,,,,,,
,,,,,,,,,,,,0,7,7,7,1,last,12,28,female,L,IMT,2021-07-14_15h18.23.576,ImageRatingTask_S4,2021.1.4,MacIntel,55.55555556,,,,,,,,,
,,,,,,,,,,,,,,,,,,12,28,female,L,IMT,2021-07-14_15h18.23.576,ImageRatingTask_S4,2021.1.4,MacIntel,55.55555556,0,78,78,102,1,DreamStudyImages_rs1000x750g/Mammals/Dog 14.jpg,,,
,,5,1.234,1,0.506,7,1.324,1,3.099,2,0.833,0,0,0,0,1,main,12,28,female,L,IMT,2021-07-14_15h18.23.576,ImageRatingTask_S4,2021.1.4,MacIntel,55.55555556,,,,,,,,,
,,,,,,,,,,,,0,1,1,1,1,second,12,28,female,L,IMT,2021-07-14_15h18.23.576,ImageRatingTask_S4,2021.1.4,MacIntel,55.55555556,,,,,,,,,
,,,,,,,,,,,,0,2,2,2,1,third,12,28,female,L,IMT,2021-07-14_15h18.23.576,ImageRatingTask_S4,2021.1.4,MacIntel,55.55555556,,,,,,,,,
,,,,,,,,,,,,0,3,3,3,1,fourth,12,28,female,L,IMT,2021-07-14_15h18.23.576,ImageRatingTask_S4,2021.1.4,MacIntel,55.55555556,,,,,,,,,
,,,,,,,,,,,,0,4,4,4,1,fifth,12,28,female,L,IMT,2021-07-14_15h18.23.576,ImageRatingTask_S4,2021.1.4,MacIntel,55.55555556,,,,,,,,,
,,,,,,,,,,,,0,5,5,5,1,sixth,12,28,female,L,IMT,2021-07-14_15h18.23.576,ImageRatingTask_S4,2021.1.4,MacIntel,55.55555556,,,,,,,,,
,,,,,,,,,,,,0,6,6,6,1,seventh,12,28,female,L,IMT,2021-07-14_15h18.23.576,ImageRatingTask_S4,2021.1.4,MacIntel,55.55555556,,,,,,,,,
,,,,,,,,,,,,0,7,7,7,1,last,12,28,female,L,IMT,2021-07-14_15h18.23.576,ImageRatingTask_S4,2021.1.4,MacIntel,55.55555556,,,,,,,,,
