test_key_val.keys,test_key_val.rt,test_key_aro.keys,test_key_aro.rt,test_key_qual.keys,test_key_qual.rt,test_key_ncat.keys,test_key_ncat.rt,test_key_cats.keys,test_key_cats.rt,test_ncat_order.thisRepN,test_ncat_order.thisTrialN,test_ncat_order.thisN,test_ncat_order.thisIndex,test_ncat_order.ran,cond_cat,participant,age,gender,handedness (L/R),site (IMT/Donders),date,expName,psychopyVersion,OS,frameRate,test_trials.thisRepN,test_trials.thisTrialN,test_trials.thisN,test_trials.thisIndex,test_trials.ran,test_filename,link,copyright,slider_pre.response,slider_pre.rt,key_val.keys,key_val.rt,key_aro.keys,key_aro.rt,key_qual.keys,key_qual.rt,key_ncat.keys,key_ncat.rt,key_cats.keys,key_cats.rt,ncat_order.thisRepN,ncat_order.thisTrialN,ncat_order.thisN,ncat_order.thisIndex,ncat_order.ran,img_trials.thisRepN,img_trials.thisTrialN,img_trials.thisN,img_trials.thisIndex,img_trials.ran,filename,slider_post.response,slider_post.rt,textbox_openfb.text
6,6.558,1,2.662,9,2.167,2,4.779,1,4.408,0,0,0,0,1,main,12,28,female,L,IMT ,2021-07-09_14h41.55.735,ImageRatingTask_S1,2021.1.4,MacIntel,58.82352941,,,,,,,,,,,,,,,,,,,,,,,,,,,,,,,,,,
,,,,,,,,4,1.946,0,1,1,1,1,second,12,28,female,L,IMT ,2021-07-09_14h41.55.735,ImageRatingTask_S1,2021.1.4,MacIntel,58.82352941,,,,,,,,,,,,,,,,,,,,,,,,,,,,,,,,,,
,,,,,,,,,,0,2,2,2,1,third,12,28,female,L,IMT ,2021-07-09_14h41.55.735,ImageRatingTask_S1,2021.1.4,MacIntel,58.82352941,,,,,,,,,,,,,,,,,,,,,,,,,,,,,,,,,,
,,,,,,,,,,0,3,3,3,1,fourth,12,28,female,L,IMT ,2021-07-09_14h41.55.735,ImageRatingTask_S1,2021.1.4,MacIntel,58.82352941,,,,,,,,,,,,,,,,,,,,,,,,,,,,,,,,,,
,,,,,,,,,,0,4,4,4,1,fifth,12,28,female,L,IMT ,2021-07-09_14h41.55.735,ImageRatingTask_S1,2021.1.4,MacIntel,58.82352941,,,,,,,,,,,,,,,,,,,,,,,,,,,,,,,,,,
,,,,,,,,,,0,5,5,5,1,sixth,12,28,female,L,IMT ,2021-07-09_14h41.55.735,ImageRatingTask_S1,2021.1.4,MacIntel,58.82352941,,,,,,,,,,,,,,,,,,,,,,,,,,,,,,,,,,
,,,,,,,,,,0,6,6,6,1,seventh,12,28,female,L,IMT ,2021-07-09_14h41.55.735,ImageRatingTask_S1,2021.1.4,MacIntel,58.82352941,,,,,,,,,,,,,,,,,,,,,,,,,,,,,,,,,,
,,,,,,,,,,0,7,7,7,1,last,12,28,female,L,IMT ,2021-07-09_14h41.55.735,ImageRatingTask_S1,2021.1.4,MacIntel,58.82352941,,,,,,,,,,,,,,,,,,,,,,,,,,,,,,,,,,
,,,,,,,,,,,,,,,,12,28,female,L,IMT ,2021-07-09_14h41.55.735,ImageRatingTask_S1,2021.1.4,MacIntel,58.82352941,0,0,0,2,1,test3.jpg,https://www.flickr.com/photos/7487886@N04/35810127921/in/photolist-WyqgqD-DQSoP-6SrFCE-39ywib-39Bezs-9gt8aT-9gt83Z-eEgA9B-KnLx9-9gt8dK-HXwdie-2b6FA2g-4ekt5k-9ECfRg-2Zr5GQ-2Zr5mC-2Zr6kW-2Zr5Xu-2Zmyac-98TgbK-7U5XRj-am4oXb-98ThEB-2Bw3gh-vXo6D-Wt9U8o-DGiErb-DGiEqE-2m3CpV6-6E2aGG-6DXgqc-4PC3pQ-6HwMbx-dHYvkg-a2ycs-JLvMv-7k6DhM-bA81AL-8zwPFe-5nMrZu-3Ep2da-nhhd2L-DvDkr-81RkjZ-E1HXA-GzGH8Z-83vZYf-9krgXK-5nMxuU-DGiEqu,CC BY-NC 2.0,,,,,,,,,,,,,,,,,,,,,,,,,,
6,6.587,1,2.878,9,2.309,0,16.779,,,0,0,0,0,1,main,12,28,female,L,IMT ,2021-07-09_14h41.55.735,ImageRatingTask_S1,2021.1.4,MacIntel,58.82352941,,,,,,,,,,,,,,,,,,,,,,,,,,,,,,,,,,
,,,,,,,,,,0,1,1,1,1,second,12,28,female,L,IMT ,2021-07-09_14h41.55.735,ImageRatingTask_S1,2021.1.4,MacIntel,58.82352941,,,,,,,,,,,,,,,,,,,,,,,,,,,,,,,,,,
,,,,,,,,,,0,2,2,2,1,third,12,28,female,L,IMT ,2021-07-09_14h41.55.735,ImageRatingTask_S1,2021.1.4,MacIntel,58.82352941,,,,,,,,,,,,,,,,,,,,,,,,,,,,,,,,,,
,,,,,,,,,,0,3,3,3,1,fourth,12,28,female,L,IMT ,2021-07-09_14h41.55.735,ImageRatingTask_S1,2021.1.4,MacIntel,58.82352941,,,,,,,,,,,,,,,,,,,,,,,,,,,,,,,,,,
,,,,,,,,,,0,4,4,4,1,fifth,12,28,female,L,IMT ,2021-07-09_14h41.55.735,ImageRatingTask_S1,2021.1.4,MacIntel,58.82352941,,,,,,,,,,,,,,,,,,,,,,,,,,,,,,,,,,
,,,,,,,,,,0,5,5,5,1,sixth,12,28,female,L,IMT ,2021-07-09_14h41.55.735,ImageRatingTask_S1,2021.1.4,MacIntel,58.82352941,,,,,,,,,,,,,,,,,,,,,,,,,,,,,,,,,,
,,,,,,,,,,0,6,6,6,1,seventh,12,28,female,L,IMT ,2021-07-09_14h41.55.735,ImageRatingTask_S1,2021.1.4,MacIntel,58.82352941,,,,,,,,,,,,,,,,,,,,,,,,,,,,,,,,,,
,,,,,,,,,,0,7,7,7,1,last,12,28,female,L,IMT ,2021-07-09_14h41.55.735,ImageRatingTask_S1,2021.1.4,MacIntel,58.82352941,,,,,,,,,,,,,,,,,,,,,,,,,,,,,,,,,,
,,,,,,,,,,,,,,,,12,28,female,L,IMT ,2021-07-09_14h41.55.735,ImageRatingTask_S1,2021.1.4,MacIntel,58.82352941,0,1,1,4,1,test5.jpg,https://www.flickr.com/photos/silkebaron/2778692021/in/photolist-5exwk8-CeHF3S-5gg796-95cM2x-LGUrp7-oFgB6-2k7B5QN-aufKzz-hn8Di-8A3htc-8EagiU-4Hvk3Y-2b7s1f8-KSEPr-KSseq-KSrU3-KSu4o-KSsS3-Tp6nDS-KSCUM-VpC5Br-4j8meK-bdrepT-7GRM78-e6Zw96-8cCPed-9ANgBi-oFg73-2GGRxm-5dcivP-7sa8oG-2GGRzW-7CFUnh-3giGx-5Bz4op-3gTuGh-5cSvq6-pUnXj-hwTpWT-48n3iY-e5zg7q-7u7zP8-49195x-3iQDe9-aL7cWX-5exvLk-48n2Yy-toytsg-rw5VR-78NSA2,CC BY 2.0,,,,,,,,,,,,,,,,,,,,,,,,,,
5,5.215,1,2.528,5,1.757,2,3.806,5,2.906,0,0,0,0,1,main,12,28,female,L,IMT ,2021-07-09_14h41.55.735,ImageRatingTask_S1,2021.1.4,MacIntel,58.82352941,,,,,,,,,,,,,,,,,,,,,,,,,,,,,,,,,,
,,,,,,,,2,0.783,0,1,1,1,1,second,12,28,female,L,IMT ,2021-07-09_14h41.55.735,ImageRatingTask_S1,2021.1.4,MacIntel,58.82352941,,,,,,,,,,,,,,,,,,,,,,,,,,,,,,,,,,
,,,,,,,,,,0,2,2,2,1,third,12,28,female,L,IMT ,2021-07-09_14h41.55.735,ImageRatingTask_S1,2021.1.4,MacIntel,58.82352941,,,,,,,,,,,,,,,,,,,,,,,,,,,,,,,,,,
,,,,,,,,,,0,3,3,3,1,fourth,12,28,female,L,IMT ,2021-07-09_14h41.55.735,ImageRatingTask_S1,2021.1.4,MacIntel,58.82352941,,,,,,,,,,,,,,,,,,,,,,,,,,,,,,,,,,
,,,,,,,,,,0,4,4,4,1,fifth,12,28,female,L,IMT ,2021-07-09_14h41.55.735,ImageRatingTask_S1,2021.1.4,MacIntel,58.82352941,,,,,,,,,,,,,,,,,,,,,,,,,,,,,,,,,,
,,,,,,,,,,0,5,5,5,1,sixth,12,28,female,L,IMT ,2021-07-09_14h41.55.735,ImageRatingTask_S1,2021.1.4,MacIntel,58.82352941,,,,,,,,,,,,,,,,,,,,,,,,,,,,,,,,,,
,,,,,,,,,,0,6,6,6,1,seventh,12,28,female,L,IMT ,2021-07-09_14h41.55.735,ImageRatingTask_S1,2021.1.4,MacIntel,58.82352941,,,,,,,,,,,,,,,,,,,,,,,,,,,,,,,,,,
,,,,,,,,,,0,7,7,7,1,last,12,28,female,L,IMT ,2021-07-09_14h41.55.735,ImageRatingTask_S1,2021.1.4,MacIntel,58.82352941,,,,,,,,,,,,,,,,,,,,,,,,,,,,,,,,,,
,,,,,,,,,,,,,,,,12,28,female,L,IMT ,2021-07-09_14h41.55.735,ImageRatingTask_S1,2021.1.4,MacIntel,58.82352941,0,2,2,1,1,test2.jpg,https://www.flickr.com/photos/cavalier92/16036265548/,CC BY-NC-ND 2.0,,,,,,,,,,,,,,,,,,,,,,,,,,
7,8.47,2,2.694,8,1.92,2,6.228,8,1.683,0,0,0,0,1,main,12,28,female,L,IMT ,2021-07-09_14h41.55.735,ImageRatingTask_S1,2021.1.4,MacIntel,58.82352941,,,,,,,,,,,,,,,,,,,,,,,,,,,,,,,,,,
,,,,,,,,7,0.799,0,1,1,1,1,second,12,28,female,L,IMT ,2021-07-09_14h41.55.735,ImageRatingTask_S1,2021.1.4,MacIntel,58.82352941,,,,,,,,,,,,,,,,,,,,,,,,,,,,,,,,,,
,,,,,,,,,,0,2,2,2,1,third,12,28,female,L,IMT ,2021-07-09_14h41.55.735,ImageRatingTask_S1,2021.1.4,MacIntel,58.82352941,,,,,,,,,,,,,,,,,,,,,,,,,,,,,,,,,,
,,,,,,,,,,0,3,3,3,1,fourth,12,28,female,L,IMT ,2021-07-09_14h41.55.735,ImageRatingTask_S1,2021.1.4,MacIntel,58.82352941,,,,,,,,,,,,,,,,,,,,,,,,,,,,,,,,,,
,,,,,,,,,,0,4,4,4,1,fifth,12,28,female,L,IMT ,2021-07-09_14h41.55.735,ImageRatingTask_S1,2021.1.4,MacIntel,58.82352941,,,,,,,,,,,,,,,,,,,,,,,,,,,,,,,,,,
,,,,,,,,,,0,5,5,5,1,sixth,12,28,female,L,IMT ,2021-07-09_14h41.55.735,ImageRatingTask_S1,2021.1.4,MacIntel,58.82352941,,,,,,,,,,,,,,,,,,,,,,,,,,,,,,,,,,
,,,,,,,,,,0,6,6,6,1,seventh,12,28,female,L,IMT ,2021-07-09_14h41.55.735,ImageRatingTask_S1,2021.1.4,MacIntel,58.82352941,,,,,,,,,,,,,,,,,,,,,,,,,,,,,,,,,,
,,,,,,,,,,0,7,7,7,1,last,12,28,female,L,IMT ,2021-07-09_14h41.55.735,ImageRatingTask_S1,2021.1.4,MacIntel,58.82352941,,,,,,,,,,,,,,,,,,,,,,,,,,,,,,,,,,
,,,,,,,,,,,,,,,,12,28,female,L,IMT ,2021-07-09_14h41.55.735,ImageRatingTask_S1,2021.1.4,MacIntel,58.82352941,0,3,3,0,1,test1.jpg,https://www.flickr.com/photos/julzyax1/8713189147/in/photolist-egXnz6-Kg97g6-paYQjg-cDWcvy-e84vQU-fyRQKZ-dzuwVL-nzCPJw-dzp3r6-SXXSvw-aEgXGF-dzp1D8-aEgZ6F-prcoQG-aEgYd8-dt9EJ8-qTHZUL-dX8ut3-6eqh7x-aEkMyA-avjf71-6eqgKg-pNpDbJ-6euqa5-bo2EMC-q8hCLb-od8yyX-daaz4w-26cjVxB-CXaGmV-C7hSHf-aqmunq-9ek8a1-YcbBUe-apPWHB-HnB8rt-pHQLfh-8YgHaC-aqHteN-d5THbj-5dgTxP-afp2aV-8hNoSm-qhSjJS-d5TqoA-98WoKM-cjnSxo-9b4u7a-d5Tnzf-f7AETL,CC BY-NC 2.0,,,,,,,,,,,,,,,,,,,,,,,,,,
5,36.423,1,1.495,6,4.745,2,2.859,7,1.655,0,0,0,0,1,main,12,28,female,L,IMT ,2021-07-09_14h41.55.735,ImageRatingTask_S1,2021.1.4,MacIntel,58.82352941,,,,,,,,,,,,,,,,,,,,,,,,,,,,,,,,,,
,,,,,,,,3,2.566,0,1,1,1,1,second,12,28,female,L,IMT ,2021-07-09_14h41.55.735,ImageRatingTask_S1,2021.1.4,MacIntel,58.82352941,,,,,,,,,,,,,,,,,,,,,,,,,,,,,,,,,,
,,,,,,,,,,0,2,2,2,1,third,12,28,female,L,IMT ,2021-07-09_14h41.55.735,ImageRatingTask_S1,2021.1.4,MacIntel,58.82352941,,,,,,,,,,,,,,,,,,,,,,,,,,,,,,,,,,
,,,,,,,,,,0,3,3,3,1,fourth,12,28,female,L,IMT ,2021-07-09_14h41.55.735,ImageRatingTask_S1,2021.1.4,MacIntel,58.82352941,,,,,,,,,,,,,,,,,,,,,,,,,,,,,,,,,,
,,,,,,,,,,0,4,4,4,1,fifth,12,28,female,L,IMT ,2021-07-09_14h41.55.735,ImageRatingTask_S1,2021.1.4,MacIntel,58.82352941,,,,,,,,,,,,,,,,,,,,,,,,,,,,,,,,,,
,,,,,,,,,,0,5,5,5,1,sixth,12,28,female,L,IMT ,2021-07-09_14h41.55.735,ImageRatingTask_S1,2021.1.4,MacIntel,58.82352941,,,,,,,,,,,,,,,,,,,,,,,,,,,,,,,,,,
,,,,,,,,,,0,6,6,6,1,seventh,12,28,female,L,IMT ,2021-07-09_14h41.55.735,ImageRatingTask_S1,2021.1.4,MacIntel,58.82352941,,,,,,,,,,,,,,,,,,,,,,,,,,,,,,,,,,
,,,,,,,,,,0,7,7,7,1,last,12,28,female,L,IMT ,2021-07-09_14h41.55.735,ImageRatingTask_S1,2021.1.4,MacIntel,58.82352941,,,,,,,,,,,,,,,,,,,,,,,,,,,,,,,,,,
,,,,,,,,,,,,,,,,12,28,female,L,IMT ,2021-07-09_14h41.55.735,ImageRatingTask_S1,2021.1.4,MacIntel,58.82352941,0,4,4,3,1,test4.jpg,https://www.flickr.com/photos/8782469@N05/33550256294/in/photolist-T7HQjJ-6bL62X-gQ2ptt-eARbhf-dbgLvQ-uKUpgG-e6GNPD-e6iDuV-RwYJie-Ur28At-u6Dvwk-fwts3x-CgqS5E-dgJSNE-fwHPg9-bFQoWv-9qgCN-TQZT7E-475QF-v3ZBG9-v5TFQL-aQVeNV-49XCzE-e5Va7j-v3WosE-5jvzS-cBxjA5-fwJ2P3-TP86kq-eREpVC-rMTQZx-Um3k-ajziHj-CgqSzN-dgP2Ci-e6putY-652ZqG-eARzQm-6ikz1-vrGjvh-Chgvpm-pFFnYq-8bKoVw-eAsukg-daANXC-MwMMfW-5ArWsa-GMcDmn-bLo6CH-9KgagR,CC BY 2.0,,,,,,,,,,,,,,,,,,,,,,,,,,
,,,,,,,,,,,,,,,main,12,28,female,L,IMT ,2021-07-09_14h41.55.735,ImageRatingTask_S1,2021.1.4,MacIntel,58.82352941,,,,,,,,,5,6.712,4,6.833,3,4.541,7,4.337,1,2.72,3,1.004,0,0,0,0,1,,,,,,,,,
,,,,,,,,,,,,,,,second,12,28,female,L,IMT ,2021-07-09_14h41.55.735,ImageRatingTask_S1,2021.1.4,MacIntel,58.82352941,,,,,,,,,,,,,,,,,,,,,0,1,1,1,1,,,,,,,,,
,,,,,,,,,,,,,,,third,12,28,female,L,IMT ,2021-07-09_14h41.55.735,ImageRatingTask_S1,2021.1.4,MacIntel,58.82352941,,,,,,,,,,,,,,,,,,,,,0,2,2,2,1,,,,,,,,,
,,,,,,,,,,,,,,,fourth,12,28,female,L,IMT ,2021-07-09_14h41.55.735,ImageRatingTask_S1,2021.1.4,MacIntel,58.82352941,,,,,,,,,,,,,,,,,,,,,0,3,3,3,1,,,,,,,,,
,,,,,,,,,,,,,,,fifth,12,28,female,L,IMT ,2021-07-09_14h41.55.735,ImageRatingTask_S1,2021.1.4,MacIntel,58.82352941,,,,,,,,,,,,,,,,,,,,,0,4,4,4,1,,,,,,,,,
,,,,,,,,,,,,,,,sixth,12,28,female,L,IMT ,2021-07-09_14h41.55.735,ImageRatingTask_S1,2021.1.4,MacIntel,58.82352941,,,,,,,,,,,,,,,,,,,,,0,5,5,5,1,,,,,,,,,
,,,,,,,,,,,,,,,seventh,12,28,female,L,IMT ,2021-07-09_14h41.55.735,ImageRatingTask_S1,2021.1.4,MacIntel,58.82352941,,,,,,,,,,,,,,,,,,,,,0,6,6,6,1,,,,,,,,,
,,,,,,,,,,,,,,,last,12,28,female,L,IMT ,2021-07-09_14h41.55.735,ImageRatingTask_S1,2021.1.4,MacIntel,58.82352941,,,,,,,,,,,,,,,,,,,,,0,7,7,7,1,,,,,,,,,
,,,,,,,,,,,,,,,,12,28,female,L,IMT ,2021-07-09_14h41.55.735,ImageRatingTask_S1,2021.1.4,MacIntel,58.82352941,,,,,,,,,,,,,,,,,,,,,,,,,,0,0,0,53,1,DreamStudyImages_rs1000x750g/Mammals/Animals_019_h.jpg,,,
,,,,,,,,,,,,,,,main,12,28,female,L,IMT ,2021-07-09_14h41.55.735,ImageRatingTask_S1,2021.1.4,MacIntel,58.82352941,,,,,,,,,,,5,3.717,1,2.312,7,2.854,1,9.015,8,0.915,0,0,0,0,1,,,,,,,,,
,,,,,,,,,,,,,,,second,12,28,female,L,IMT ,2021-07-09_14h41.55.735,ImageRatingTask_S1,2021.1.4,MacIntel,58.82352941,,,,,,,,,,,,,,,,,,,,,0,1,1,1,1,,,,,,,,,
,,,,,,,,,,,,,,,third,12,28,female,L,IMT ,2021-07-09_14h41.55.735,ImageRatingTask_S1,2021.1.4,MacIntel,58.82352941,,,,,,,,,,,,,,,,,,,,,0,2,2,2,1,,,,,,,,,
,,,,,,,,,,,,,,,fourth,12,28,female,L,IMT ,2021-07-09_14h41.55.735,ImageRatingTask_S1,2021.1.4,MacIntel,58.82352941,,,,,,,,,,,,,,,,,,,,,0,3,3,3,1,,,,,,,,,
,,,,,,,,,,,,,,,fifth,12,28,female,L,IMT ,2021-07-09_14h41.55.735,ImageRatingTask_S1,2021.1.4,MacIntel,58.82352941,,,,,,,,,,,,,,,,,,,,,0,4,4,4,1,,,,,,,,,
,,,,,,,,,,,,,,,sixth,12,28,female,L,IMT ,2021-07-09_14h41.55.735,ImageRatingTask_S1,2021.1.4,MacIntel,58.82352941,,,,,,,,,,,,,,,,,,,,,0,5,5,5,1,,,,,,,,,
,,,,,,,,,,,,,,,seventh,12,28,female,L,IMT ,2021-07-09_14h41.55.735,ImageRatingTask_S1,2021.1.4,MacIntel,58.82352941,,,,,,,,,,,,,,,,,,,,,0,6,6,6,1,,,,,,,,,
,,,,,,,,,,,,,,,last,12,28,female,L,IMT ,2021-07-09_14h41.55.735,ImageRatingTask_S1,2021.1.4,MacIntel,58.82352941,,,,,,,,,,,,,,,,,,,,,0,7,7,7,1,,,,,,,,,
,,,,,,,,,,,,,,,,12,28,female,L,IMT ,2021-07-09_14h41.55.735,ImageRatingTask_S1,2021.1.4,MacIntel,58.82352941,,,,,,,,,,,,,,,,,,,,,,,,,,0,1,1,60,1,DreamStudyImages_rs1000x750g/Water/Landscapes_111_h.jpg,,,
,,,,,,,,,,,,,,,main,12,28,female,L,IMT ,2021-07-09_14h41.55.735,ImageRatingTask_S1,2021.1.4,MacIntel,58.82352941,,,,,,,,,,,5,3.124,1,1.296,9,3.841,1,2.897,2,1.109,0,0,0,0,1,,,,,,,,,
,,,,,,,,,,,,,,,second,12,28,female,L,IMT ,2021-07-09_14h41.55.735,ImageRatingTask_S1,2021.1.4,MacIntel,58.82352941,,,,,,,,,,,,,,,,,,,,,0,1,1,1,1,,,,,,,,,
,,,,,,,,,,,,,,,third,12,28,female,L,IMT ,2021-07-09_14h41.55.735,ImageRatingTask_S1,2021.1.4,MacIntel,58.82352941,,,,,,,,,,,,,,,,,,,,,0,2,2,2,1,,,,,,,,,
,,,,,,,,,,,,,,,fourth,12,28,female,L,IMT ,2021-07-09_14h41.55.735,ImageRatingTask_S1,2021.1.4,MacIntel,58.82352941,,,,,,,,,,,,,,,,,,,,,0,3,3,3,1,,,,,,,,,
,,,,,,,,,,,,,,,fifth,12,28,female,L,IMT ,2021-07-09_14h41.55.735,ImageRatingTask_S1,2021.1.4,MacIntel,58.82352941,,,,,,,,,,,,,,,,,,,,,0,4,4,4,1,,,,,,,,,
,,,,,,,,,,,,,,,sixth,12,28,female,L,IMT ,2021-07-09_14h41.55.735,ImageRatingTask_S1,2021.1.4,MacIntel,58.82352941,,,,,,,,,,,,,,,,,,,,,0,5,5,5,1,,,,,,,,,
,,,,,,,,,,,,,,,seventh,12,28,female,L,IMT ,2021-07-09_14h41.55.735,ImageRatingTask_S1,2021.1.4,MacIntel,58.82352941,,,,,,,,,,,,,,,,,,,,,0,6,6,6,1,,,,,,,,,
,,,,,,,,,,,,,,,last,12,28,female,L,IMT ,2021-07-09_14h41.55.735,ImageRatingTask_S1,2021.1.4,MacIntel,58.82352941,,,,,,,,,,,,,,,,,,,,,0,7,7,7,1,,,,,,,,,
,,,,,,,,,,,,,,,,12,28,female,L,IMT ,2021-07-09_14h41.55.735,ImageRatingTask_S1,2021.1.4,MacIntel,58.82352941,,,,,,,,,,,,,,,,,,,,,,,,,,0,2,2,40,1,DreamStudyImages_rs1000x750g/Children/IAPS2314_girl8.jpg,,,
,,,,,,,,,,,,,,,main,12,28,female,L,IMT ,2021-07-09_14h41.55.735,ImageRatingTask_S1,2021.1.4,MacIntel,58.82352941,,,,,,,,,,,3,5.831,2,1.488,7,2.181,1,3.731,6,1.106,0,0,0,0,1,,,,,,,,,
,,,,,,,,,,,,,,,second,12,28,female,L,IMT ,2021-07-09_14h41.55.735,ImageRatingTask_S1,2021.1.4,MacIntel,58.82352941,,,,,,,,,,,,,,,,,,,,,0,1,1,1,1,,,,,,,,,
,,,,,,,,,,,,,,,third,12,28,female,L,IMT ,2021-07-09_14h41.55.735,ImageRatingTask_S1,2021.1.4,MacIntel,58.82352941,,,,,,,,,,,,,,,,,,,,,0,2,2,2,1,,,,,,,,,
,,,,,,,,,,,,,,,fourth,12,28,female,L,IMT ,2021-07-09_14h41.55.735,ImageRatingTask_S1,2021.1.4,MacIntel,58.82352941,,,,,,,,,,,,,,,,,,,,,0,3,3,3,1,,,,,,,,,
,,,,,,,,,,,,,,,fifth,12,28,female,L,IMT ,2021-07-09_14h41.55.735,ImageRatingTask_S1,2021.1.4,MacIntel,58.82352941,,,,,,,,,,,,,,,,,,,,,0,4,4,4,1,,,,,,,,,
,,,,,,,,,,,,,,,sixth,12,28,female,L,IMT ,2021-07-09_14h41.55.735,ImageRatingTask_S1,2021.1.4,MacIntel,58.82352941,,,,,,,,,,,,,,,,,,,,,0,5,5,5,1,,,,,,,,,
,,,,,,,,,,,,,,,seventh,12,28,female,L,IMT ,2021-07-09_14h41.55.735,ImageRatingTask_S1,2021.1.4,MacIntel,58.82352941,,,,,,,,,,,,,,,,,,,,,0,6,6,6,1,,,,,,,,,
,,,,,,,,,,,,,,,last,12,28,female,L,IMT ,2021-07-09_14h41.55.735,ImageRatingTask_S1,2021.1.4,MacIntel,58.82352941,,,,,,,,,,,,,,,,,,,,,0,7,7,7,1,,,,,,,,,
,,,,,,,,,,,,,,,,12,28,female,L,IMT ,2021-07-09_14h41.55.735,ImageRatingTask_S1,2021.1.4,MacIntel,58.82352941,,,,,,,,,,,,,,,,,,,,,,,,,,0,3,3,101,1,DreamStudyImages_rs1000x750g/Houses/Landscapes_025_h.jpg,,,
,,,,,,,,,,,,,,,main,12,28,female,L,IMT ,2021-07-09_14h41.55.735,ImageRatingTask_S1,2021.1.4,MacIntel,58.82352941,,,,,,,,,,,4,10.613,3,1.839,5,1.778,1,8.33,6,0.856,0,0,0,0,1,,,,,,,,,
,,,,,,,,,,,,,,,second,12,28,female,L,IMT ,2021-07-09_14h41.55.735,ImageRatingTask_S1,2021.1.4,MacIntel,58.82352941,,,,,,,,,,,,,,,,,,,,,0,1,1,1,1,,,,,,,,,
,,,,,,,,,,,,,,,third,12,28,female,L,IMT ,2021-07-09_14h41.55.735,ImageRatingTask_S1,2021.1.4,MacIntel,58.82352941,,,,,,,,,,,,,,,,,,,,,0,2,2,2,1,,,,,,,,,
,,,,,,,,,,,,,,,fourth,12,28,female,L,IMT ,2021-07-09_14h41.55.735,ImageRatingTask_S1,2021.1.4,MacIntel,58.82352941,,,,,,,,,,,,,,,,,,,,,0,3,3,3,1,,,,,,,,,
,,,,,,,,,,,,,,,fifth,12,28,female,L,IMT ,2021-07-09_14h41.55.735,ImageRatingTask_S1,2021.1.4,MacIntel,58.82352941,,,,,,,,,,,,,,,,,,,,,0,4,4,4,1,,,,,,,,,
,,,,,,,,,,,,,,,sixth,12,28,female,L,IMT ,2021-07-09_14h41.55.735,ImageRatingTask_S1,2021.1.4,MacIntel,58.82352941,,,,,,,,,,,,,,,,,,,,,0,5,5,5,1,,,,,,,,,
,,,,,,,,,,,,,,,seventh,12,28,female,L,IMT ,2021-07-09_14h41.55.735,ImageRatingTask_S1,2021.1.4,MacIntel,58.82352941,,,,,,,,,,,,,,,,,,,,,0,6,6,6,1,,,,,,,,,
,,,,,,,,,,,,,,,last,12,28,female,L,IMT ,2021-07-09_14h41.55.735,ImageRatingTask_S1,2021.1.4,MacIntel,58.82352941,,,,,,,,,,,,,,,,,,,,,0,7,7,7,1,,,,,,,,,
,,,,,,,,,,,,,,,,12,28,female,L,IMT ,2021-07-09_14h41.55.735,ImageRatingTask_S1,2021.1.4,MacIntel,58.82352941,,,,,,,,,,,,,,,,,,,,,,,,,,0,4,4,133,1,DreamStudyImages_rs1000x750g/Houses/Jail 3.jpg,,,
,,,,,,,,,,,,,,,main,12,28,female,L,IMT ,2021-07-09_14h41.55.735,ImageRatingTask_S1,2021.1.4,MacIntel,58.82352941,,,,,,,,,,,5,3.772,1,1.369,7,1.938,1,2.049,8,1.227,0,0,0,0,1,,,,,,,,,
,,,,,,,,,,,,,,,second,12,28,female,L,IMT ,2021-07-09_14h41.55.735,ImageRatingTask_S1,2021.1.4,MacIntel,58.82352941,,,,,,,,,,,,,,,,,,,,,0,1,1,1,1,,,,,,,,,
,,,,,,,,,,,,,,,third,12,28,female,L,IMT ,2021-07-09_14h41.55.735,ImageRatingTask_S1,2021.1.4,MacIntel,58.82352941,,,,,,,,,,,,,,,,,,,,,0,2,2,2,1,,,,,,,,,
,,,,,,,,,,,,,,,fourth,12,28,female,L,IMT ,2021-07-09_14h41.55.735,ImageRatingTask_S1,2021.1.4,MacIntel,58.82352941,,,,,,,,,,,,,,,,,,,,,0,3,3,3,1,,,,,,,,,
,,,,,,,,,,,,,,,fifth,12,28,female,L,IMT ,2021-07-09_14h41.55.735,ImageRatingTask_S1,2021.1.4,MacIntel,58.82352941,,,,,,,,,,,,,,,,,,,,,0,4,4,4,1,,,,,,,,,
,,,,,,,,,,,,,,,sixth,12,28,female,L,IMT ,2021-07-09_14h41.55.735,ImageRatingTask_S1,2021.1.4,MacIntel,58.82352941,,,,,,,,,,,,,,,,,,,,,0,5,5,5,1,,,,,,,,,
,,,,,,,,,,,,,,,seventh,12,28,female,L,IMT ,2021-07-09_14h41.55.735,ImageRatingTask_S1,2021.1.4,MacIntel,58.82352941,,,,,,,,,,,,,,,,,,,,,0,6,6,6,1,,,,,,,,,
,,,,,,,,,,,,,,,last,12,28,female,L,IMT ,2021-07-09_14h41.55.735,ImageRatingTask_S1,2021.1.4,MacIntel,58.82352941,,,,,,,,,,,,,,,,,,,,,0,7,7,7,1,,,,,,,,,
,,,,,,,,,,,,,,,,12,28,female,L,IMT ,2021-07-09_14h41.55.735,ImageRatingTask_S1,2021.1.4,MacIntel,58.82352941,,,,,,,,,,,,,,,,,,,,,,,,,,0,5,5,75,1,DreamStudyImages_rs1000x750g/Water/waterneutral4.jpg,,,
,,,,,,,,,,,,,,,main,12,28,female,L,IMT ,2021-07-09_14h41.55.735,ImageRatingTask_S1,2021.1.4,MacIntel,58.82352941,,,,,,,,,,,6,20.242,2,1.615,9,2.309,1,1.931,2,0.872,0,0,0,0,1,,,,,,,,,
,,,,,,,,,,,,,,,second,12,28,female,L,IMT ,2021-07-09_14h41.55.735,ImageRatingTask_S1,2021.1.4,MacIntel,58.82352941,,,,,,,,,,,,,,,,,,,,,0,1,1,1,1,,,,,,,,,
,,,,,,,,,,,,,,,third,12,28,female,L,IMT ,2021-07-09_14h41.55.735,ImageRatingTask_S1,2021.1.4,MacIntel,58.82352941,,,,,,,,,,,,,,,,,,,,,0,2,2,2,1,,,,,,,,,
,,,,,,,,,,,,,,,fourth,12,28,female,L,IMT ,2021-07-09_14h41.55.735,ImageRatingTask_S1,2021.1.4,MacIntel,58.82352941,,,,,,,,,,,,,,,,,,,,,0,3,3,3,1,,,,,,,,,
,,,,,,,,,,,,,,,fifth,12,28,female,L,IMT ,2021-07-09_14h41.55.735,ImageRatingTask_S1,2021.1.4,MacIntel,58.82352941,,,,,,,,,,,,,,,,,,,,,0,4,4,4,1,,,,,,,,,
,,,,,,,,,,,,,,,sixth,12,28,female,L,IMT ,2021-07-09_14h41.55.735,ImageRatingTask_S1,2021.1.4,MacIntel,58.82352941,,,,,,,,,,,,,,,,,,,,,0,5,5,5,1,,,,,,,,,
,,,,,,,,,,,,,,,seventh,12,28,female,L,IMT ,2021-07-09_14h41.55.735,ImageRatingTask_S1,2021.1.4,MacIntel,58.82352941,,,,,,,,,,,,,,,,,,,,,0,6,6,6,1,,,,,,,,,
,,,,,,,,,,,,,,,last,12,28,female,L,IMT ,2021-07-09_14h41.55.735,ImageRatingTask_S1,2021.1.4,MacIntel,58.82352941,,,,,,,,,,,,,,,,,,,,,0,7,7,7,1,,,,,,,,,
,,,,,,,,,,,,,,,,12,28,female,L,IMT ,2021-07-09_14h41.55.735,ImageRatingTask_S1,2021.1.4,MacIntel,58.82352941,,,,,,,,,,,,,,,,,,,,,,,,,,0,6,6,104,1,DreamStudyImages_rs1000x750g/Children/People_055_h.jpg,,,
,,,,,,,,,,,,,,,main,12,28,female,L,IMT ,2021-07-09_14h41.55.735,ImageRatingTask_S1,2021.1.4,MacIntel,58.82352941,,,,,,,,,,,5,71.197,1,0.826,5,1.458,1,2.773,3,1.034,0,0,0,0,1,,,,,,,,,
,,,,,,,,,,,,,,,second,12,28,female,L,IMT ,2021-07-09_14h41.55.735,ImageRatingTask_S1,2021.1.4,MacIntel,58.82352941,,,,,,,,,,,,,,,,,,,,,0,1,1,1,1,,,,,,,,,
,,,,,,,,,,,,,,,third,12,28,female,L,IMT ,2021-07-09_14h41.55.735,ImageRatingTask_S1,2021.1.4,MacIntel,58.82352941,,,,,,,,,,,,,,,,,,,,,0,2,2,2,1,,,,,,,,,
,,,,,,,,,,,,,,,fourth,12,28,female,L,IMT ,2021-07-09_14h41.55.735,ImageRatingTask_S1,2021.1.4,MacIntel,58.82352941,,,,,,,,,,,,,,,,,,,,,0,3,3,3,1,,,,,,,,,
,,,,,,,,,,,,,,,fifth,12,28,female,L,IMT ,2021-07-09_14h41.55.735,ImageRatingTask_S1,2021.1.4,MacIntel,58.82352941,,,,,,,,,,,,,,,,,,,,,0,4,4,4,1,,,,,,,,,
,,,,,,,,,,,,,,,sixth,12,28,female,L,IMT ,2021-07-09_14h41.55.735,ImageRatingTask_S1,2021.1.4,MacIntel,58.82352941,,,,,,,,,,,,,,,,,,,,,0,5,5,5,1,,,,,,,,,
,,,,,,,,,,,,,,,seventh,12,28,female,L,IMT ,2021-07-09_14h41.55.735,ImageRatingTask_S1,2021.1.4,MacIntel,58.82352941,,,,,,,,,,,,,,,,,,,,,0,6,6,6,1,,,,,,,,,
,,,,,,,,,,,,,,,last,12,28,female,L,IMT ,2021-07-09_14h41.55.735,ImageRatingTask_S1,2021.1.4,MacIntel,58.82352941,,,,,,,,,,,,,,,,,,,,,0,7,7,7,1,,,,,,,,,
,,,,,,,,,,,,,,,,12,28,female,L,IMT ,2021-07-09_14h41.55.735,ImageRatingTask_S1,2021.1.4,MacIntel,58.82352941,,,,,,,,,,,,,,,,,,,,,,,,,,0,7,7,76,1,DreamStudyImages_rs1000x750g/Mammals/IAPS1310_bigcat.jpg,,,
,,,,,,,,,,,,,,,main,12,28,female,L,IMT ,2021-07-09_14h41.55.735,ImageRatingTask_S1,2021.1.4,MacIntel,58.82352941,,,,,,,,,,,3,3.237,3,1.663,7,2.029,1,2.105,6,1.126,0,0,0,0,1,,,,,,,,,
,,,,,,,,,,,,,,,second,12,28,female,L,IMT ,2021-07-09_14h41.55.735,ImageRatingTask_S1,2021.1.4,MacIntel,58.82352941,,,,,,,,,,,,,,,,,,,,,0,1,1,1,1,,,,,,,,,
,,,,,,,,,,,,,,,third,12,28,female,L,IMT ,2021-07-09_14h41.55.735,ImageRatingTask_S1,2021.1.4,MacIntel,58.82352941,,,,,,,,,,,,,,,,,,,,,0,2,2,2,1,,,,,,,,,
,,,,,,,,,,,,,,,fourth,12,28,female,L,IMT ,2021-07-09_14h41.55.735,ImageRatingTask_S1,2021.1.4,MacIntel,58.82352941,,,,,,,,,,,,,,,,,,,,,0,3,3,3,1,,,,,,,,,
,,,,,,,,,,,,,,,fifth,12,28,female,L,IMT ,2021-07-09_14h41.55.735,ImageRatingTask_S1,2021.1.4,MacIntel,58.82352941,,,,,,,,,,,,,,,,,,,,,0,4,4,4,1,,,,,,,,,
,,,,,,,,,,,,,,,sixth,12,28,female,L,IMT ,2021-07-09_14h41.55.735,ImageRatingTask_S1,2021.1.4,MacIntel,58.82352941,,,,,,,,,,,,,,,,,,,,,0,5,5,5,1,,,,,,,,,
,,,,,,,,,,,,,,,seventh,12,28,female,L,IMT ,2021-07-09_14h41.55.735,ImageRatingTask_S1,2021.1.4,MacIntel,58.82352941,,,,,,,,,,,,,,,,,,,,,0,6,6,6,1,,,,,,,,,
,,,,,,,,,,,,,,,last,12,28,female,L,IMT ,2021-07-09_14h41.55.735,ImageRatingTask_S1,2021.1.4,MacIntel,58.82352941,,,,,,,,,,,,,,,,,,,,,0,7,7,7,1,,,,,,,,,
,,,,,,,,,,,,,,,,12,28,female,L,IMT ,2021-07-09_14h41.55.735,ImageRatingTask_S1,2021.1.4,MacIntel,58.82352941,,,,,,,,,,,,,,,,,,,,,,,,,,0,8,8,57,1,DreamStudyImages_rs1000x750g/Houses/NDPS6_buildings3.jpg,,,
,,,,,,,,,,,,,,,main,12,28,female,L,IMT ,2021-07-09_14h41.55.735,ImageRatingTask_S1,2021.1.4,MacIntel,58.82352941,,,,,,,,,,,2,39.492,2,4.211,9,1.978,1,2.42,3,1.518,0,0,0,0,1,,,,,,,,,
,,,,,,,,,,,,,,,second,12,28,female,L,IMT ,2021-07-09_14h41.55.735,ImageRatingTask_S1,2021.1.4,MacIntel,58.82352941,,,,,,,,,,,,,,,,,,,,,0,1,1,1,1,,,,,,,,,
,,,,,,,,,,,,,,,third,12,28,female,L,IMT ,2021-07-09_14h41.55.735,ImageRatingTask_S1,2021.1.4,MacIntel,58.82352941,,,,,,,,,,,,,,,,,,,,,0,2,2,2,1,,,,,,,,,
,,,,,,,,,,,,,,,fourth,12,28,female,L,IMT ,2021-07-09_14h41.55.735,ImageRatingTask_S1,2021.1.4,MacIntel,58.82352941,,,,,,,,,,,,,,,,,,,,,0,3,3,3,1,,,,,,,,,
,,,,,,,,,,,,,,,fifth,12,28,female,L,IMT ,2021-07-09_14h41.55.735,ImageRatingTask_S1,2021.1.4,MacIntel,58.82352941,,,,,,,,,,,,,,,,,,,,,0,4,4,4,1,,,,,,,,,
,,,,,,,,,,,,,,,sixth,12,28,female,L,IMT ,2021-07-09_14h41.55.735,ImageRatingTask_S1,2021.1.4,MacIntel,58.82352941,,,,,,,,,,,,,,,,,,,,,0,5,5,5,1,,,,,,,,,
,,,,,,,,,,,,,,,seventh,12,28,female,L,IMT ,2021-07-09_14h41.55.735,ImageRatingTask_S1,2021.1.4,MacIntel,58.82352941,,,,,,,,,,,,,,,,,,,,,0,6,6,6,1,,,,,,,,,
,,,,,,,,,,,,,,,last,12,28,female,L,IMT ,2021-07-09_14h41.55.735,ImageRatingTask_S1,2021.1.4,MacIntel,58.82352941,,,,,,,,,,,,,,,,,,,,,0,7,7,7,1,,,,,,,,,
,,,,,,,,,,,,,,,,12,28,female,L,IMT ,2021-07-09_14h41.55.735,ImageRatingTask_S1,2021.1.4,MacIntel,58.82352941,,,,,,,,,,,,,,,,,,,,,,,,,,0,9,9,136,1,DreamStudyImages_rs1000x750g/Mammals/Animals_078_h.jpg,,,
,,,,,,,,,,,,,,,main,12,28,female,L,IMT ,2021-07-09_14h41.55.735,ImageRatingTask_S1,2021.1.4,MacIntel,58.82352941,,,,,,,,,,,7,3.125,4,2.03,9,1.679,1,4.111,5,1.158,0,0,0,0,1,,,,,,,,,
,,,,,,,,,,,,,,,second,12,28,female,L,IMT ,2021-07-09_14h41.55.735,ImageRatingTask_S1,2021.1.4,MacIntel,58.82352941,,,,,,,,,,,,,,,,,,,,,0,1,1,1,1,,,,,,,,,
,,,,,,,,,,,,,,,third,12,28,female,L,IMT ,2021-07-09_14h41.55.735,ImageRatingTask_S1,2021.1.4,MacIntel,58.82352941,,,,,,,,,,,,,,,,,,,,,0,2,2,2,1,,,,,,,,,
,,,,,,,,,,,,,,,fourth,12,28,female,L,IMT ,2021-07-09_14h41.55.735,ImageRatingTask_S1,2021.1.4,MacIntel,58.82352941,,,,,,,,,,,,,,,,,,,,,0,3,3,3,1,,,,,,,,,
,,,,,,,,,,,,,,,fifth,12,28,female,L,IMT ,2021-07-09_14h41.55.735,ImageRatingTask_S1,2021.1.4,MacIntel,58.82352941,,,,,,,,,,,,,,,,,,,,,0,4,4,4,1,,,,,,,,,
,,,,,,,,,,,,,,,sixth,12,28,female,L,IMT ,2021-07-09_14h41.55.735,ImageRatingTask_S1,2021.1.4,MacIntel,58.82352941,,,,,,,,,,,,,,,,,,,,,0,5,5,5,1,,,,,,,,,
,,,,,,,,,,,,,,,seventh,12,28,female,L,IMT ,2021-07-09_14h41.55.735,ImageRatingTask_S1,2021.1.4,MacIntel,58.82352941,,,,,,,,,,,,,,,,,,,,,0,6,6,6,1,,,,,,,,,
,,,,,,,,,,,,,,,last,12,28,female,L,IMT ,2021-07-09_14h41.55.735,ImageRatingTask_S1,2021.1.4,MacIntel,58.82352941,,,,,,,,,,,,,,,,,,,,,0,7,7,7,1,,,,,,,,,
,,,,,,,,,,,,,,,,12,28,female,L,IMT ,2021-07-09_14h41.55.735,ImageRatingTask_S1,2021.1.4,MacIntel,58.82352941,,,,,,,,,,,,,,,,,,,,,,,,,,0,10,10,22,1,DreamStudyImages_rs1000x750g/Food/Objects_014_h.jpg,,,
,,,,,,,,,,,,,,,main,12,28,female,L,IMT ,2021-07-09_14h41.55.735,ImageRatingTask_S1,2021.1.4,MacIntel,58.82352941,,,,,,,,,,,5,26.83,1,1.091,8,1.738,1,2.181,7,0.824,0,0,0,0,1,,,,,,,,,
,,,,,,,,,,,,,,,second,12,28,female,L,IMT ,2021-07-09_14h41.55.735,ImageRatingTask_S1,2021.1.4,MacIntel,58.82352941,,,,,,,,,,,,,,,,,,,,,0,1,1,1,1,,,,,,,,,
,,,,,,,,,,,,,,,third,12,28,female,L,IMT ,2021-07-09_14h41.55.735,ImageRatingTask_S1,2021.1.4,MacIntel,58.82352941,,,,,,,,,,,,,,,,,,,,,0,2,2,2,1,,,,,,,,,
,,,,,,,,,,,,,,,fourth,12,28,female,L,IMT ,2021-07-09_14h41.55.735,ImageRatingTask_S1,2021.1.4,MacIntel,58.82352941,,,,,,,,,,,,,,,,,,,,,0,3,3,3,1,,,,,,,,,
,,,,,,,,,,,,,,,fifth,12,28,female,L,IMT ,2021-07-09_14h41.55.735,ImageRatingTask_S1,2021.1.4,MacIntel,58.82352941,,,,,,,,,,,,,,,,,,,,,0,4,4,4,1,,,,,,,,,
,,,,,,,,,,,,,,,sixth,12,28,female,L,IMT ,2021-07-09_14h41.55.735,ImageRatingTask_S1,2021.1.4,MacIntel,58.82352941,,,,,,,,,,,,,,,,,,,,,0,5,5,5,1,,,,,,,,,
,,,,,,,,,,,,,,,seventh,12,28,female,L,IMT ,2021-07-09_14h41.55.735,ImageRatingTask_S1,2021.1.4,MacIntel,58.82352941,,,,,,,,,,,,,,,,,,,,,0,6,6,6,1,,,,,,,,,
,,,,,,,,,,,,,,,last,12,28,female,L,IMT ,2021-07-09_14h41.55.735,ImageRatingTask_S1,2021.1.4,MacIntel,58.82352941,,,,,,,,,,,,,,,,,,,,,0,7,7,7,1,,,,,,,,,
,,,,,,,,,,,,,,,,12,28,female,L,IMT ,2021-07-09_14h41.55.735,ImageRatingTask_S1,2021.1.4,MacIntel,58.82352941,,,,,,,,,,,,,,,,,,,,,,,,,,0,11,11,131,1,DreamStudyImages_rs1000x750g/Vehicles/militarytruck.jpg,,,
,,,,,,,,,,,,,,,main,12,28,female,L,IMT ,2021-07-09_14h41.55.735,ImageRatingTask_S1,2021.1.4,MacIntel,58.82352941,,,,,,,,,,,6,4.423,3,5.655,5,1.631,1,1.949,2,0.691,0,0,0,0,1,,,,,,,,,
,,,,,,,,,,,,,,,second,12,28,female,L,IMT ,2021-07-09_14h41.55.735,ImageRatingTask_S1,2021.1.4,MacIntel,58.82352941,,,,,,,,,,,,,,,,,,,,,0,1,1,1,1,,,,,,,,,
,,,,,,,,,,,,,,,third,12,28,female,L,IMT ,2021-07-09_14h41.55.735,ImageRatingTask_S1,2021.1.4,MacIntel,58.82352941,,,,,,,,,,,,,,,,,,,,,0,2,2,2,1,,,,,,,,,
,,,,,,,,,,,,,,,fourth,12,28,female,L,IMT ,2021-07-09_14h41.55.735,ImageRatingTask_S1,2021.1.4,MacIntel,58.82352941,,,,,,,,,,,,,,,,,,,,,0,3,3,3,1,,,,,,,,,
,,,,,,,,,,,,,,,fifth,12,28,female,L,IMT ,2021-07-09_14h41.55.735,ImageRatingTask_S1,2021.1.4,MacIntel,58.82352941,,,,,,,,,,,,,,,,,,,,,0,4,4,4,1,,,,,,,,,
,,,,,,,,,,,,,,,sixth,12,28,female,L,IMT ,2021-07-09_14h41.55.735,ImageRatingTask_S1,2021.1.4,MacIntel,58.82352941,,,,,,,,,,,,,,,,,,,,,0,5,5,5,1,,,,,,,,,
,,,,,,,,,,,,,,,seventh,12,28,female,L,IMT ,2021-07-09_14h41.55.735,ImageRatingTask_S1,2021.1.4,MacIntel,58.82352941,,,,,,,,,,,,,,,,,,,,,0,6,6,6,1,,,,,,,,,
,,,,,,,,,,,,,,,last,12,28,female,L,IMT ,2021-07-09_14h41.55.735,ImageRatingTask_S1,2021.1.4,MacIntel,58.82352941,,,,,,,,,,,,,,,,,,,,,0,7,7,7,1,,,,,,,,,
,,,,,,,,,,,,,,,,12,28,female,L,IMT ,2021-07-09_14h41.55.735,ImageRatingTask_S1,2021.1.4,MacIntel,58.82352941,,,,,,,,,,,,,,,,,,,,,,,,,,0,12,12,28,1,DreamStudyImages_rs1000x750g/Children/IAPS2900.2_girl12.jpg,,,
,,,,,,,,,,,,,,,main,12,28,female,L,IMT ,2021-07-09_14h41.55.735,ImageRatingTask_S1,2021.1.4,MacIntel,58.82352941,,,,,,,,,,,4,23.954,1,1.181,8,1.891,1,2.163,6,0.858,0,0,0,0,1,,,,,,,,,
,,,,,,,,,,,,,,,second,12,28,female,L,IMT ,2021-07-09_14h41.55.735,ImageRatingTask_S1,2021.1.4,MacIntel,58.82352941,,,,,,,,,,,,,,,,,,,,,0,1,1,1,1,,,,,,,,,
,,,,,,,,,,,,,,,third,12,28,female,L,IMT ,2021-07-09_14h41.55.735,ImageRatingTask_S1,2021.1.4,MacIntel,58.82352941,,,,,,,,,,,,,,,,,,,,,0,2,2,2,1,,,,,,,,,
,,,,,,,,,,,,,,,fourth,12,28,female,L,IMT ,2021-07-09_14h41.55.735,ImageRatingTask_S1,2021.1.4,MacIntel,58.82352941,,,,,,,,,,,,,,,,,,,,,0,3,3,3,1,,,,,,,,,
,,,,,,,,,,,,,,,fifth,12,28,female,L,IMT ,2021-07-09_14h41.55.735,ImageRatingTask_S1,2021.1.4,MacIntel,58.82352941,,,,,,,,,,,,,,,,,,,,,0,4,4,4,1,,,,,,,,,
,,,,,,,,,,,,,,,sixth,12,28,female,L,IMT ,2021-07-09_14h41.55.735,ImageRatingTask_S1,2021.1.4,MacIntel,58.82352941,,,,,,,,,,,,,,,,,,,,,0,5,5,5,1,,,,,,,,,
,,,,,,,,,,,,,,,seventh,12,28,female,L,IMT ,2021-07-09_14h41.55.735,ImageRatingTask_S1,2021.1.4,MacIntel,58.82352941,,,,,,,,,,,,,,,,,,,,,0,6,6,6,1,,,,,,,,,
,,,,,,,,,,,,,,,last,12,28,female,L,IMT ,2021-07-09_14h41.55.735,ImageRatingTask_S1,2021.1.4,MacIntel,58.82352941,,,,,,,,,,,,,,,,,,,,,0,7,7,7,1,,,,,,,,,
,,,,,,,,,,,,,,,,12,28,female,L,IMT ,2021-07-09_14h41.55.735,ImageRatingTask_S1,2021.1.4,MacIntel,58.82352941,,,,,,,,,,,,,,,,,,,,,,,,,,0,13,13,99,1,DreamStudyImages_rs1000x750g/Houses/Landscapes_067_h.jpg,,,
,,,,,,,,,,,,,,,main,12,28,female,L,IMT ,2021-07-09_14h41.55.735,ImageRatingTask_S1,2021.1.4,MacIntel,58.82352941,,,,,,,,,,,6,2.102,2,1.548,7,3.263,1,1.319,2,0.772,0,0,0,0,1,,,,,,,,,
,,,,,,,,,,,,,,,second,12,28,female,L,IMT ,2021-07-09_14h41.55.735,ImageRatingTask_S1,2021.1.4,MacIntel,58.82352941,,,,,,,,,,,,,,,,,,,,,0,1,1,1,1,,,,,,,,,
,,,,,,,,,,,,,,,third,12,28,female,L,IMT ,2021-07-09_14h41.55.735,ImageRatingTask_S1,2021.1.4,MacIntel,58.82352941,,,,,,,,,,,,,,,,,,,,,0,2,2,2,1,,,,,,,,,
,,,,,,,,,,,,,,,fourth,12,28,female,L,IMT ,2021-07-09_14h41.55.735,ImageRatingTask_S1,2021.1.4,MacIntel,58.82352941,,,,,,,,,,,,,,,,,,,,,0,3,3,3,1,,,,,,,,,
,,,,,,,,,,,,,,,fifth,12,28,female,L,IMT ,2021-07-09_14h41.55.735,ImageRatingTask_S1,2021.1.4,MacIntel,58.82352941,,,,,,,,,,,,,,,,,,,,,0,4,4,4,1,,,,,,,,,
,,,,,,,,,,,,,,,sixth,12,28,female,L,IMT ,2021-07-09_14h41.55.735,ImageRatingTask_S1,2021.1.4,MacIntel,58.82352941,,,,,,,,,,,,,,,,,,,,,0,5,5,5,1,,,,,,,,,
,,,,,,,,,,,,,,,seventh,12,28,female,L,IMT ,2021-07-09_14h41.55.735,ImageRatingTask_S1,2021.1.4,MacIntel,58.82352941,,,,,,,,,,,,,,,,,,,,,0,6,6,6,1,,,,,,,,,
,,,,,,,,,,,,,,,last,12,28,female,L,IMT ,2021-07-09_14h41.55.735,ImageRatingTask_S1,2021.1.4,MacIntel,58.82352941,,,,,,,,,,,,,,,,,,,,,0,7,7,7,1,,,,,,,,,
,,,,,,,,,,,,,,,,12,28,female,L,IMT ,2021-07-09_14h41.55.735,ImageRatingTask_S1,2021.1.4,MacIntel,58.82352941,,,,,,,,,,,,,,,,,,,,,,,,,,0,14,14,54,1,DreamStudyImages_rs1000x750g/Children/Baby 6.jpg,,,
,,,,,,,,,,,,,,,main,12,28,female,L,IMT ,2021-07-09_14h41.55.735,ImageRatingTask_S1,2021.1.4,MacIntel,58.82352941,,,,,,,,,,,5,3.116,1,0.634,6,1.65,1,2.007,6,1.025,0,0,0,0,1,,,,,,,,,
,,,,,,,,,,,,,,,second,12,28,female,L,IMT ,2021-07-09_14h41.55.735,ImageRatingTask_S1,2021.1.4,MacIntel,58.82352941,,,,,,,,,,,,,,,,,,,,,0,1,1,1,1,,,,,,,,,
,,,,,,,,,,,,,,,third,12,28,female,L,IMT ,2021-07-09_14h41.55.735,ImageRatingTask_S1,2021.1.4,MacIntel,58.82352941,,,,,,,,,,,,,,,,,,,,,0,2,2,2,1,,,,,,,,,
,,,,,,,,,,,,,,,fourth,12,28,female,L,IMT ,2021-07-09_14h41.55.735,ImageRatingTask_S1,2021.1.4,MacIntel,58.82352941,,,,,,,,,,,,,,,,,,,,,0,3,3,3,1,,,,,,,,,
,,,,,,,,,,,,,,,fifth,12,28,female,L,IMT ,2021-07-09_14h41.55.735,ImageRatingTask_S1,2021.1.4,MacIntel,58.82352941,,,,,,,,,,,,,,,,,,,,,0,4,4,4,1,,,,,,,,,
,,,,,,,,,,,,,,,sixth,12,28,female,L,IMT ,2021-07-09_14h41.55.735,ImageRatingTask_S1,2021.1.4,MacIntel,58.82352941,,,,,,,,,,,,,,,,,,,,,0,5,5,5,1,,,,,,,,,
,,,,,,,,,,,,,,,seventh,12,28,female,L,IMT ,2021-07-09_14h41.55.735,ImageRatingTask_S1,2021.1.4,MacIntel,58.82352941,,,,,,,,,,,,,,,,,,,,,0,6,6,6,1,,,,,,,,,
,,,,,,,,,,,,,,,last,12,28,female,L,IMT ,2021-07-09_14h41.55.735,ImageRatingTask_S1,2021.1.4,MacIntel,58.82352941,,,,,,,,,,,,,,,,,,,,,0,7,7,7,1,,,,,,,,,
,,,,,,,,,,,,,,,,12,28,female,L,IMT ,2021-07-09_14h41.55.735,ImageRatingTask_S1,2021.1.4,MacIntel,58.82352941,,,,,,,,,,,,,,,,,,,,,,,,,,0,15,15,26,1,DreamStudyImages_rs1000x750g/Houses/IAPS9468_doortag.jpg,,,
,,,,,,,,,,,,,,,main,12,28,female,L,IMT ,2021-07-09_14h41.55.735,ImageRatingTask_S1,2021.1.4,MacIntel,58.82352941,,,,,,,,,,,5,6.92,1,1.214,7,2.203,1,2.04,8,1.142,0,0,0,0,1,,,,,,,,,
,,,,,,,,,,,,,,,second,12,28,female,L,IMT ,2021-07-09_14h41.55.735,ImageRatingTask_S1,2021.1.4,MacIntel,58.82352941,,,,,,,,,,,,,,,,,,,,,0,1,1,1,1,,,,,,,,,
,,,,,,,,,,,,,,,third,12,28,female,L,IMT ,2021-07-09_14h41.55.735,ImageRatingTask_S1,2021.1.4,MacIntel,58.82352941,,,,,,,,,,,,,,,,,,,,,0,2,2,2,1,,,,,,,,,
,,,,,,,,,,,,,,,fourth,12,28,female,L,IMT ,2021-07-09_14h41.55.735,ImageRatingTask_S1,2021.1.4,MacIntel,58.82352941,,,,,,,,,,,,,,,,,,,,,0,3,3,3,1,,,,,,,,,
,,,,,,,,,,,,,,,fifth,12,28,female,L,IMT ,2021-07-09_14h41.55.735,ImageRatingTask_S1,2021.1.4,MacIntel,58.82352941,,,,,,,,,,,,,,,,,,,,,0,4,4,4,1,,,,,,,,,
,,,,,,,,,,,,,,,sixth,12,28,female,L,IMT ,2021-07-09_14h41.55.735,ImageRatingTask_S1,2021.1.4,MacIntel,58.82352941,,,,,,,,,,,,,,,,,,,,,0,5,5,5,1,,,,,,,,,
,,,,,,,,,,,,,,,seventh,12,28,female,L,IMT ,2021-07-09_14h41.55.735,ImageRatingTask_S1,2021.1.4,MacIntel,58.82352941,,,,,,,,,,,,,,,,,,,,,0,6,6,6,1,,,,,,,,,
,,,,,,,,,,,,,,,last,12,28,female,L,IMT ,2021-07-09_14h41.55.735,ImageRatingTask_S1,2021.1.4,MacIntel,58.82352941,,,,,,,,,,,,,,,,,,,,,0,7,7,7,1,,,,,,,,,
,,,,,,,,,,,,,,,,12,28,female,L,IMT ,2021-07-09_14h41.55.735,ImageRatingTask_S1,2021.1.4,MacIntel,58.82352941,,,,,,,,,,,,,,,,,,,,,,,,,,0,16,16,115,1,DreamStudyImages_rs1000x750g/Water/Landscapes_136_h.jpg,,,
,,,,,,,,,,,,,,,main,12,28,female,L,IMT ,2021-07-09_14h41.55.735,ImageRatingTask_S1,2021.1.4,MacIntel,58.82352941,,,,,,,,,,,6,2.942,3,3.163,7,3.792,1,1.924,5,1.123,0,0,0,0,1,,,,,,,,,
,,,,,,,,,,,,,,,second,12,28,female,L,IMT ,2021-07-09_14h41.55.735,ImageRatingTask_S1,2021.1.4,MacIntel,58.82352941,,,,,,,,,,,,,,,,,,,,,0,1,1,1,1,,,,,,,,,
,,,,,,,,,,,,,,,third,12,28,female,L,IMT ,2021-07-09_14h41.55.735,ImageRatingTask_S1,2021.1.4,MacIntel,58.82352941,,,,,,,,,,,,,,,,,,,,,0,2,2,2,1,,,,,,,,,
,,,,,,,,,,,,,,,fourth,12,28,female,L,IMT ,2021-07-09_14h41.55.735,ImageRatingTask_S1,2021.1.4,MacIntel,58.82352941,,,,,,,,,,,,,,,,,,,,,0,3,3,3,1,,,,,,,,,
,,,,,,,,,,,,,,,fifth,12,28,female,L,IMT ,2021-07-09_14h41.55.735,ImageRatingTask_S1,2021.1.4,MacIntel,58.82352941,,,,,,,,,,,,,,,,,,,,,0,4,4,4,1,,,,,,,,,
,,,,,,,,,,,,,,,sixth,12,28,female,L,IMT ,2021-07-09_14h41.55.735,ImageRatingTask_S1,2021.1.4,MacIntel,58.82352941,,,,,,,,,,,,,,,,,,,,,0,5,5,5,1,,,,,,,,,
,,,,,,,,,,,,,,,seventh,12,28,female,L,IMT ,2021-07-09_14h41.55.735,ImageRatingTask_S1,2021.1.4,MacIntel,58.82352941,,,,,,,,,,,,,,,,,,,,,0,6,6,6,1,,,,,,,,,
,,,,,,,,,,,,,,,last,12,28,female,L,IMT ,2021-07-09_14h41.55.735,ImageRatingTask_S1,2021.1.4,MacIntel,58.82352941,,,,,,,,,,,,,,,,,,,,,0,7,7,7,1,,,,,,,,,
,,,,,,,,,,,,,,,,12,28,female,L,IMT ,2021-07-09_14h41.55.735,ImageRatingTask_S1,2021.1.4,MacIntel,58.82352941,,,,,,,,,,,,,,,,,,,,,,,,,,0,17,17,93,1,DreamStudyImages_rs1000x750g/Food/IAPS7488_diner5.jpg,,,
,,,,,,,,,,,,,,,main,12,28,female,L,IMT ,2021-07-09_14h41.55.735,ImageRatingTask_S1,2021.1.4,MacIntel,58.82352941,,,,,,,,,,,5,12.243,1,1.045,8,5.673,1,1.712,2,0.748,0,0,0,0,1,,,,,,,,,
,,,,,,,,,,,,,,,second,12,28,female,L,IMT ,2021-07-09_14h41.55.735,ImageRatingTask_S1,2021.1.4,MacIntel,58.82352941,,,,,,,,,,,,,,,,,,,,,0,1,1,1,1,,,,,,,,,
,,,,,,,,,,,,,,,third,12,28,female,L,IMT ,2021-07-09_14h41.55.735,ImageRatingTask_S1,2021.1.4,MacIntel,58.82352941,,,,,,,,,,,,,,,,,,,,,0,2,2,2,1,,,,,,,,,
,,,,,,,,,,,,,,,fourth,12,28,female,L,IMT ,2021-07-09_14h41.55.735,ImageRatingTask_S1,2021.1.4,MacIntel,58.82352941,,,,,,,,,,,,,,,,,,,,,0,3,3,3,1,,,,,,,,,
,,,,,,,,,,,,,,,fifth,12,28,female,L,IMT ,2021-07-09_14h41.55.735,ImageRatingTask_S1,2021.1.4,MacIntel,58.82352941,,,,,,,,,,,,,,,,,,,,,0,4,4,4,1,,,,,,,,,
,,,,,,,,,,,,,,,sixth,12,28,female,L,IMT ,2021-07-09_14h41.55.735,ImageRatingTask_S1,2021.1.4,MacIntel,58.82352941,,,,,,,,,,,,,,,,,,,,,0,5,5,5,1,,,,,,,,,
,,,,,,,,,,,,,,,seventh,12,28,female,L,IMT ,2021-07-09_14h41.55.735,ImageRatingTask_S1,2021.1.4,MacIntel,58.82352941,,,,,,,,,,,,,,,,,,,,,0,6,6,6,1,,,,,,,,,
,,,,,,,,,,,,,,,last,12,28,female,L,IMT ,2021-07-09_14h41.55.735,ImageRatingTask_S1,2021.1.4,MacIntel,58.82352941,,,,,,,,,,,,,,,,,,,,,0,7,7,7,1,,,,,,,,,
,,,,,,,,,,,,,,,,12,28,female,L,IMT ,2021-07-09_14h41.55.735,ImageRatingTask_S1,2021.1.4,MacIntel,58.82352941,,,,,,,,,,,,,,,,,,,,,,,,,,0,18,18,79,1,DreamStudyImages_rs1000x750g/Children/IAPS2060_baby7.jpg,,,
,,,,,,,,,,,,,,,main,12,28,female,L,IMT ,2021-07-09_14h41.55.735,ImageRatingTask_S1,2021.1.4,MacIntel,58.82352941,,,,,,,,,,,4,2.864,2,1.514,7,12.482,1,2.006,8,1.025,0,0,0,0,1,,,,,,,,,
,,,,,,,,,,,,,,,second,12,28,female,L,IMT ,2021-07-09_14h41.55.735,ImageRatingTask_S1,2021.1.4,MacIntel,58.82352941,,,,,,,,,,,,,,,,,,,,,0,1,1,1,1,,,,,,,,,
,,,,,,,,,,,,,,,third,12,28,female,L,IMT ,2021-07-09_14h41.55.735,ImageRatingTask_S1,2021.1.4,MacIntel,58.82352941,,,,,,,,,,,,,,,,,,,,,0,2,2,2,1,,,,,,,,,
,,,,,,,,,,,,,,,fourth,12,28,female,L,IMT ,2021-07-09_14h41.55.735,ImageRatingTask_S1,2021.1.4,MacIntel,58.82352941,,,,,,,,,,,,,,,,,,,,,0,3,3,3,1,,,,,,,,,
,,,,,,,,,,,,,,,fifth,12,28,female,L,IMT ,2021-07-09_14h41.55.735,ImageRatingTask_S1,2021.1.4,MacIntel,58.82352941,,,,,,,,,,,,,,,,,,,,,0,4,4,4,1,,,,,,,,,
,,,,,,,,,,,,,,,sixth,12,28,female,L,IMT ,2021-07-09_14h41.55.735,ImageRatingTask_S1,2021.1.4,MacIntel,58.82352941,,,,,,,,,,,,,,,,,,,,,0,5,5,5,1,,,,,,,,,
,,,,,,,,,,,,,,,seventh,12,28,female,L,IMT ,2021-07-09_14h41.55.735,ImageRatingTask_S1,2021.1.4,MacIntel,58.82352941,,,,,,,,,,,,,,,,,,,,,0,6,6,6,1,,,,,,,,,
,,,,,,,,,,,,,,,last,12,28,female,L,IMT ,2021-07-09_14h41.55.735,ImageRatingTask_S1,2021.1.4,MacIntel,58.82352941,,,,,,,,,,,,,,,,,,,,,0,7,7,7,1,,,,,,,,,
,,,,,,,,,,,,,,,,12,28,female,L,IMT ,2021-07-09_14h41.55.735,ImageRatingTask_S1,2021.1.4,MacIntel,58.82352941,,,,,,,,,,,,,,,,,,,,,,,,,,0,19,19,58,1,DreamStudyImages_rs1000x750g/Water/Objects_233_h.jpg,,,
,,,,,,,,,,,,,,,main,12,28,female,L,IMT ,2021-07-09_14h41.55.735,ImageRatingTask_S1,2021.1.4,MacIntel,58.82352941,,,,,,,,,,,5,11.654,1,0.894,5,1.661,1,19.296,7,2.342,0,0,0,0,1,,,,,,,,,
,,,,,,,,,,,,,,,second,12,28,female,L,IMT ,2021-07-09_14h41.55.735,ImageRatingTask_S1,2021.1.4,MacIntel,58.82352941,,,,,,,,,,,,,,,,,,,,,0,1,1,1,1,,,,,,,,,
,,,,,,,,,,,,,,,third,12,28,female,L,IMT ,2021-07-09_14h41.55.735,ImageRatingTask_S1,2021.1.4,MacIntel,58.82352941,,,,,,,,,,,,,,,,,,,,,0,2,2,2,1,,,,,,,,,
,,,,,,,,,,,,,,,fourth,12,28,female,L,IMT ,2021-07-09_14h41.55.735,ImageRatingTask_S1,2021.1.4,MacIntel,58.82352941,,,,,,,,,,,,,,,,,,,,,0,3,3,3,1,,,,,,,,,
,,,,,,,,,,,,,,,fifth,12,28,female,L,IMT ,2021-07-09_14h41.55.735,ImageRatingTask_S1,2021.1.4,MacIntel,58.82352941,,,,,,,,,,,,,,,,,,,,,0,4,4,4,1,,,,,,,,,
,,,,,,,,,,,,,,,sixth,12,28,female,L,IMT ,2021-07-09_14h41.55.735,ImageRatingTask_S1,2021.1.4,MacIntel,58.82352941,,,,,,,,,,,,,,,,,,,,,0,5,5,5,1,,,,,,,,,
,,,,,,,,,,,,,,,seventh,12,28,female,L,IMT ,2021-07-09_14h41.55.735,ImageRatingTask_S1,2021.1.4,MacIntel,58.82352941,,,,,,,,,,,,,,,,,,,,,0,6,6,6,1,,,,,,,,,
,,,,,,,,,,,,,,,last,12,28,female,L,IMT ,2021-07-09_14h41.55.735,ImageRatingTask_S1,2021.1.4,MacIntel,58.82352941,,,,,,,,,,,,,,,,,,,,,0,7,7,7,1,,,,,,,,,
,,,,,,,,,,,,,,,,12,28,female,L,IMT ,2021-07-09_14h41.55.735,ImageRatingTask_S1,2021.1.4,MacIntel,58.82352941,,,,,,,,,,,,,,,,,,,,,,,,,,0,20,20,61,1,DreamStudyImages_rs1000x750g/Vehicles/Fire 7.jpg,,,
,,,,,,,,,,,,,,,main,12,28,female,L,IMT ,2021-07-09_14h41.55.735,ImageRatingTask_S1,2021.1.4,MacIntel,58.82352941,,,,,,,,,,,5,2.461,1,1.232,6,1.402,1,2.118,2,0.838,0,0,0,0,1,,,,,,,,,
,,,,,,,,,,,,,,,second,12,28,female,L,IMT ,2021-07-09_14h41.55.735,ImageRatingTask_S1,2021.1.4,MacIntel,58.82352941,,,,,,,,,,,,,,,,,,,,,0,1,1,1,1,,,,,,,,,
,,,,,,,,,,,,,,,third,12,28,female,L,IMT ,2021-07-09_14h41.55.735,ImageRatingTask_S1,2021.1.4,MacIntel,58.82352941,,,,,,,,,,,,,,,,,,,,,0,2,2,2,1,,,,,,,,,
,,,,,,,,,,,,,,,fourth,12,28,female,L,IMT ,2021-07-09_14h41.55.735,ImageRatingTask_S1,2021.1.4,MacIntel,58.82352941,,,,,,,,,,,,,,,,,,,,,0,3,3,3,1,,,,,,,,,
,,,,,,,,,,,,,,,fifth,12,28,female,L,IMT ,2021-07-09_14h41.55.735,ImageRatingTask_S1,2021.1.4,MacIntel,58.82352941,,,,,,,,,,,,,,,,,,,,,0,4,4,4,1,,,,,,,,,
,,,,,,,,,,,,,,,sixth,12,28,female,L,IMT ,2021-07-09_14h41.55.735,ImageRatingTask_S1,2021.1.4,MacIntel,58.82352941,,,,,,,,,,,,,,,,,,,,,0,5,5,5,1,,,,,,,,,
,,,,,,,,,,,,,,,seventh,12,28,female,L,IMT ,2021-07-09_14h41.55.735,ImageRatingTask_S1,2021.1.4,MacIntel,58.82352941,,,,,,,,,,,,,,,,,,,,,0,6,6,6,1,,,,,,,,,
,,,,,,,,,,,,,,,last,12,28,female,L,IMT ,2021-07-09_14h41.55.735,ImageRatingTask_S1,2021.1.4,MacIntel,58.82352941,,,,,,,,,,,,,,,,,,,,,0,7,7,7,1,,,,,,,,,
,,,,,,,,,,,,,,,,12,28,female,L,IMT ,2021-07-09_14h41.55.735,ImageRatingTask_S1,2021.1.4,MacIntel,58.82352941,,,,,,,,,,,,,,,,,,,,,,,,,,0,21,21,51,1,DreamStudyImages_rs1000x750g/Children/Faces_005_h.jpg,,,
,,,,,,,,,,,,,,,main,12,28,female,L,IMT ,2021-07-09_14h41.55.735,ImageRatingTask_S1,2021.1.4,MacIntel,58.82352941,,,,,,,,,,,5,13.834,3,1.08,7,1.996,1,1.248,2,0.889,0,0,0,0,1,,,,,,,,,
,,,,,,,,,,,,,,,second,12,28,female,L,IMT ,2021-07-09_14h41.55.735,ImageRatingTask_S1,2021.1.4,MacIntel,58.82352941,,,,,,,,,,,,,,,,,,,,,0,1,1,1,1,,,,,,,,,
,,,,,,,,,,,,,,,third,12,28,female,L,IMT ,2021-07-09_14h41.55.735,ImageRatingTask_S1,2021.1.4,MacIntel,58.82352941,,,,,,,,,,,,,,,,,,,,,0,2,2,2,1,,,,,,,,,
,,,,,,,,,,,,,,,fourth,12,28,female,L,IMT ,2021-07-09_14h41.55.735,ImageRatingTask_S1,2021.1.4,MacIntel,58.82352941,,,,,,,,,,,,,,,,,,,,,0,3,3,3,1,,,,,,,,,
,,,,,,,,,,,,,,,fifth,12,28,female,L,IMT ,2021-07-09_14h41.55.735,ImageRatingTask_S1,2021.1.4,MacIntel,58.82352941,,,,,,,,,,,,,,,,,,,,,0,4,4,4,1,,,,,,,,,
,,,,,,,,,,,,,,,sixth,12,28,female,L,IMT ,2021-07-09_14h41.55.735,ImageRatingTask_S1,2021.1.4,MacIntel,58.82352941,,,,,,,,,,,,,,,,,,,,,0,5,5,5,1,,,,,,,,,
,,,,,,,,,,,,,,,seventh,12,28,female,L,IMT ,2021-07-09_14h41.55.735,ImageRatingTask_S1,2021.1.4,MacIntel,58.82352941,,,,,,,,,,,,,,,,,,,,,0,6,6,6,1,,,,,,,,,
,,,,,,,,,,,,,,,last,12,28,female,L,IMT ,2021-07-09_14h41.55.735,ImageRatingTask_S1,2021.1.4,MacIntel,58.82352941,,,,,,,,,,,,,,,,,,,,,0,7,7,7,1,,,,,,,,,
,,,,,,,,,,,,,,,,12,28,female,L,IMT ,2021-07-09_14h41.55.735,ImageRatingTask_S1,2021.1.4,MacIntel,58.82352941,,,,,,,,,,,,,,,,,,,,,,,,,,0,22,22,38,1,DreamStudyImages_rs1000x750g/Children/Faces_122_h.jpg,,,
,,,,,,,,,,,,,,,main,12,28,female,L,IMT ,2021-07-09_14h41.55.735,ImageRatingTask_S1,2021.1.4,MacIntel,58.82352941,,,,,,,,,,,5,2.453,1,0.789,6,2.35,1,128.148,6,0.999,0,0,0,0,1,,,,,,,,,
,,,,,,,,,,,,,,,second,12,28,female,L,IMT ,2021-07-09_14h41.55.735,ImageRatingTask_S1,2021.1.4,MacIntel,58.82352941,,,,,,,,,,,,,,,,,,,,,0,1,1,1,1,,,,,,,,,
,,,,,,,,,,,,,,,third,12,28,female,L,IMT ,2021-07-09_14h41.55.735,ImageRatingTask_S1,2021.1.4,MacIntel,58.82352941,,,,,,,,,,,,,,,,,,,,,0,2,2,2,1,,,,,,,,,
,,,,,,,,,,,,,,,fourth,12,28,female,L,IMT ,2021-07-09_14h41.55.735,ImageRatingTask_S1,2021.1.4,MacIntel,58.82352941,,,,,,,,,,,,,,,,,,,,,0,3,3,3,1,,,,,,,,,
,,,,,,,,,,,,,,,fifth,12,28,female,L,IMT ,2021-07-09_14h41.55.735,ImageRatingTask_S1,2021.1.4,MacIntel,58.82352941,,,,,,,,,,,,,,,,,,,,,0,4,4,4,1,,,,,,,,,
,,,,,,,,,,,,,,,sixth,12,28,female,L,IMT ,2021-07-09_14h41.55.735,ImageRatingTask_S1,2021.1.4,MacIntel,58.82352941,,,,,,,,,,,,,,,,,,,,,0,5,5,5,1,,,,,,,,,
,,,,,,,,,,,,,,,seventh,12,28,female,L,IMT ,2021-07-09_14h41.55.735,ImageRatingTask_S1,2021.1.4,MacIntel,58.82352941,,,,,,,,,,,,,,,,,,,,,0,6,6,6,1,,,,,,,,,
,,,,,,,,,,,,,,,last,12,28,female,L,IMT ,2021-07-09_14h41.55.735,ImageRatingTask_S1,2021.1.4,MacIntel,58.82352941,,,,,,,,,,,,,,,,,,,,,0,7,7,7,1,,,,,,,,,
,,,,,,,,,,,,,,,,12,28,female,L,IMT ,2021-07-09_14h41.55.735,ImageRatingTask_S1,2021.1.4,MacIntel,58.82352941,,,,,,,,,,,,,,,,,,,,,,,,,,0,23,23,106,1,DreamStudyImages_rs1000x750g/Houses/Landscapes_090_h_CROPPED.jpg,,,
,,,,,,,,,,,,,,,main,12,28,female,L,IMT ,2021-07-09_14h41.55.735,ImageRatingTask_S1,2021.1.4,MacIntel,58.82352941,,,,,,,,,,,5,55.302,1,1.074,7,1.688,1,1.975,5,0.887,0,0,0,0,1,,,,,,,,,
,,,,,,,,,,,,,,,second,12,28,female,L,IMT ,2021-07-09_14h41.55.735,ImageRatingTask_S1,2021.1.4,MacIntel,58.82352941,,,,,,,,,,,,,,,,,,,,,0,1,1,1,1,,,,,,,,,
,,,,,,,,,,,,,,,third,12,28,female,L,IMT ,2021-07-09_14h41.55.735,ImageRatingTask_S1,2021.1.4,MacIntel,58.82352941,,,,,,,,,,,,,,,,,,,,,0,2,2,2,1,,,,,,,,,
,,,,,,,,,,,,,,,fourth,12,28,female,L,IMT ,2021-07-09_14h41.55.735,ImageRatingTask_S1,2021.1.4,MacIntel,58.82352941,,,,,,,,,,,,,,,,,,,,,0,3,3,3,1,,,,,,,,,
,,,,,,,,,,,,,,,fifth,12,28,female,L,IMT ,2021-07-09_14h41.55.735,ImageRatingTask_S1,2021.1.4,MacIntel,58.82352941,,,,,,,,,,,,,,,,,,,,,0,4,4,4,1,,,,,,,,,
,,,,,,,,,,,,,,,sixth,12,28,female,L,IMT ,2021-07-09_14h41.55.735,ImageRatingTask_S1,2021.1.4,MacIntel,58.82352941,,,,,,,,,,,,,,,,,,,,,0,5,5,5,1,,,,,,,,,
,,,,,,,,,,,,,,,seventh,12,28,female,L,IMT ,2021-07-09_14h41.55.735,ImageRatingTask_S1,2021.1.4,MacIntel,58.82352941,,,,,,,,,,,,,,,,,,,,,0,6,6,6,1,,,,,,,,,
,,,,,,,,,,,,,,,last,12,28,female,L,IMT ,2021-07-09_14h41.55.735,ImageRatingTask_S1,2021.1.4,MacIntel,58.82352941,,,,,,,,,,,,,,,,,,,,,0,7,7,7,1,,,,,,,,,
,,,,,,,,,,,,,,,,12,28,female,L,IMT ,2021-07-09_14h41.55.735,ImageRatingTask_S1,2021.1.4,MacIntel,58.82352941,,,,,,,,,,,,,,,,,,,,,,,,,,0,24,24,126,1,DreamStudyImages_rs1000x750g/Food/Objects_086_h.jpg,,,
,,,,,,,,,,,,,,,main,12,28,female,L,IMT ,2021-07-09_14h41.55.735,ImageRatingTask_S1,2021.1.4,MacIntel,58.82352941,,,,,,,,,,,5,42.513,1,0.661,8,1.763,1,1.576,7,0.806,0,0,0,0,1,,,,,,,,,
,,,,,,,,,,,,,,,second,12,28,female,L,IMT ,2021-07-09_14h41.55.735,ImageRatingTask_S1,2021.1.4,MacIntel,58.82352941,,,,,,,,,,,,,,,,,,,,,0,1,1,1,1,,,,,,,,,
,,,,,,,,,,,,,,,third,12,28,female,L,IMT ,2021-07-09_14h41.55.735,ImageRatingTask_S1,2021.1.4,MacIntel,58.82352941,,,,,,,,,,,,,,,,,,,,,0,2,2,2,1,,,,,,,,,
,,,,,,,,,,,,,,,fourth,12,28,female,L,IMT ,2021-07-09_14h41.55.735,ImageRatingTask_S1,2021.1.4,MacIntel,58.82352941,,,,,,,,,,,,,,,,,,,,,0,3,3,3,1,,,,,,,,,
,,,,,,,,,,,,,,,fifth,12,28,female,L,IMT ,2021-07-09_14h41.55.735,ImageRatingTask_S1,2021.1.4,MacIntel,58.82352941,,,,,,,,,,,,,,,,,,,,,0,4,4,4,1,,,,,,,,,
,,,,,,,,,,,,,,,sixth,12,28,female,L,IMT ,2021-07-09_14h41.55.735,ImageRatingTask_S1,2021.1.4,MacIntel,58.82352941,,,,,,,,,,,,,,,,,,,,,0,5,5,5,1,,,,,,,,,
,,,,,,,,,,,,,,,seventh,12,28,female,L,IMT ,2021-07-09_14h41.55.735,ImageRatingTask_S1,2021.1.4,MacIntel,58.82352941,,,,,,,,,,,,,,,,,,,,,0,6,6,6,1,,,,,,,,,
,,,,,,,,,,,,,,,last,12,28,female,L,IMT ,2021-07-09_14h41.55.735,ImageRatingTask_S1,2021.1.4,MacIntel,58.82352941,,,,,,,,,,,,,,,,,,,,,0,7,7,7,1,,,,,,,,,
,,,,,,,,,,,,,,,,12,28,female,L,IMT ,2021-07-09_14h41.55.735,ImageRatingTask_S1,2021.1.4,MacIntel,58.82352941,,,,,,,,,,,,,,,,,,,,,,,,,,0,25,25,0,1,DreamStudyImages_rs1000x750g/Vehicles/truckfleet.jpg,,,
,,,,,,,,,,,,,,,main,12,28,female,L,IMT ,2021-07-09_14h41.55.735,ImageRatingTask_S1,2021.1.4,MacIntel,58.82352941,,,,,,,,,,,3,21.58,3,1.553,5,1.73,1,1.123,8,10.634,0,0,0,0,1,,,,,,,,,
,,,,,,,,,,,,,,,second,12,28,female,L,IMT ,2021-07-09_14h41.55.735,ImageRatingTask_S1,2021.1.4,MacIntel,58.82352941,,,,,,,,,,,,,,,,,,,,,0,1,1,1,1,,,,,,,,,
,,,,,,,,,,,,,,,third,12,28,female,L,IMT ,2021-07-09_14h41.55.735,ImageRatingTask_S1,2021.1.4,MacIntel,58.82352941,,,,,,,,,,,,,,,,,,,,,0,2,2,2,1,,,,,,,,,
,,,,,,,,,,,,,,,fourth,12,28,female,L,IMT ,2021-07-09_14h41.55.735,ImageRatingTask_S1,2021.1.4,MacIntel,58.82352941,,,,,,,,,,,,,,,,,,,,,0,3,3,3,1,,,,,,,,,
,,,,,,,,,,,,,,,fifth,12,28,female,L,IMT ,2021-07-09_14h41.55.735,ImageRatingTask_S1,2021.1.4,MacIntel,58.82352941,,,,,,,,,,,,,,,,,,,,,0,4,4,4,1,,,,,,,,,
,,,,,,,,,,,,,,,sixth,12,28,female,L,IMT ,2021-07-09_14h41.55.735,ImageRatingTask_S1,2021.1.4,MacIntel,58.82352941,,,,,,,,,,,,,,,,,,,,,0,5,5,5,1,,,,,,,,,
,,,,,,,,,,,,,,,seventh,12,28,female,L,IMT ,2021-07-09_14h41.55.735,ImageRatingTask_S1,2021.1.4,MacIntel,58.82352941,,,,,,,,,,,,,,,,,,,,,0,6,6,6,1,,,,,,,,,
,,,,,,,,,,,,,,,last,12,28,female,L,IMT ,2021-07-09_14h41.55.735,ImageRatingTask_S1,2021.1.4,MacIntel,58.82352941,,,,,,,,,,,,,,,,,,,,,0,7,7,7,1,,,,,,,,,
,,,,,,,,,,,,,,,,12,28,female,L,IMT ,2021-07-09_14h41.55.735,ImageRatingTask_S1,2021.1.4,MacIntel,58.82352941,,,,,,,,,,,,,,,,,,,,,,,,,,0,26,26,117,1,DreamStudyImages_rs1000x750g/Water/IAPS5814_tropicalbeach.jpg,,,
,,,,,,,,,,,,,,,main,12,28,female,L,IMT ,2021-07-09_14h41.55.735,ImageRatingTask_S1,2021.1.4,MacIntel,58.82352941,,,,,,,,,,,5,42.682,1,1.562,7,8.275,1,3.226,3,1.19,0,0,0,0,1,,,,,,,,,
,,,,,,,,,,,,,,,second,12,28,female,L,IMT ,2021-07-09_14h41.55.735,ImageRatingTask_S1,2021.1.4,MacIntel,58.82352941,,,,,,,,,,,,,,,,,,,,,0,1,1,1,1,,,,,,,,,
,,,,,,,,,,,,,,,third,12,28,female,L,IMT ,2021-07-09_14h41.55.735,ImageRatingTask_S1,2021.1.4,MacIntel,58.82352941,,,,,,,,,,,,,,,,,,,,,0,2,2,2,1,,,,,,,,,
,,,,,,,,,,,,,,,fourth,12,28,female,L,IMT ,2021-07-09_14h41.55.735,ImageRatingTask_S1,2021.1.4,MacIntel,58.82352941,,,,,,,,,,,,,,,,,,,,,0,3,3,3,1,,,,,,,,,
,,,,,,,,,,,,,,,fifth,12,28,female,L,IMT ,2021-07-09_14h41.55.735,ImageRatingTask_S1,2021.1.4,MacIntel,58.82352941,,,,,,,,,,,,,,,,,,,,,0,4,4,4,1,,,,,,,,,
,,,,,,,,,,,,,,,sixth,12,28,female,L,IMT ,2021-07-09_14h41.55.735,ImageRatingTask_S1,2021.1.4,MacIntel,58.82352941,,,,,,,,,,,,,,,,,,,,,0,5,5,5,1,,,,,,,,,
,,,,,,,,,,,,,,,seventh,12,28,female,L,IMT ,2021-07-09_14h41.55.735,ImageRatingTask_S1,2021.1.4,MacIntel,58.82352941,,,,,,,,,,,,,,,,,,,,,0,6,6,6,1,,,,,,,,,
,,,,,,,,,,,,,,,last,12,28,female,L,IMT ,2021-07-09_14h41.55.735,ImageRatingTask_S1,2021.1.4,MacIntel,58.82352941,,,,,,,,,,,,,,,,,,,,,0,7,7,7,1,,,,,,,,,
,,,,,,,,,,,,,,,,12,28,female,L,IMT ,2021-07-09_14h41.55.735,ImageRatingTask_S1,2021.1.4,MacIntel,58.82352941,,,,,,,,,,,,,,,,,,,,,,,,,,0,27,27,56,1,DreamStudyImages_rs1000x750g/Mammals/Wolf 2.jpg,,,
,,,,,,,,,,,,,,,main,12,28,female,L,IMT ,2021-07-09_14h41.55.735,ImageRatingTask_S1,2021.1.4,MacIntel,58.82352941,,,,,,,,,,,5,1.867,1,1.434,5,1.83,1,2.324,7,0.717,0,0,0,0,1,,,,,,,,,
,,,,,,,,,,,,,,,second,12,28,female,L,IMT ,2021-07-09_14h41.55.735,ImageRatingTask_S1,2021.1.4,MacIntel,58.82352941,,,,,,,,,,,,,,,,,,,,,0,1,1,1,1,,,,,,,,,
,,,,,,,,,,,,,,,third,12,28,female,L,IMT ,2021-07-09_14h41.55.735,ImageRatingTask_S1,2021.1.4,MacIntel,58.82352941,,,,,,,,,,,,,,,,,,,,,0,2,2,2,1,,,,,,,,,
,,,,,,,,,,,,,,,fourth,12,28,female,L,IMT ,2021-07-09_14h41.55.735,ImageRatingTask_S1,2021.1.4,MacIntel,58.82352941,,,,,,,,,,,,,,,,,,,,,0,3,3,3,1,,,,,,,,,
,,,,,,,,,,,,,,,fifth,12,28,female,L,IMT ,2021-07-09_14h41.55.735,ImageRatingTask_S1,2021.1.4,MacIntel,58.82352941,,,,,,,,,,,,,,,,,,,,,0,4,4,4,1,,,,,,,,,
,,,,,,,,,,,,,,,sixth,12,28,female,L,IMT ,2021-07-09_14h41.55.735,ImageRatingTask_S1,2021.1.4,MacIntel,58.82352941,,,,,,,,,,,,,,,,,,,,,0,5,5,5,1,,,,,,,,,
,,,,,,,,,,,,,,,seventh,12,28,female,L,IMT ,2021-07-09_14h41.55.735,ImageRatingTask_S1,2021.1.4,MacIntel,58.82352941,,,,,,,,,,,,,,,,,,,,,0,6,6,6,1,,,,,,,,,
,,,,,,,,,,,,,,,last,12,28,female,L,IMT ,2021-07-09_14h41.55.735,ImageRatingTask_S1,2021.1.4,MacIntel,58.82352941,,,,,,,,,,,,,,,,,,,,,0,7,7,7,1,,,,,,,,,
,,,,,,,,,,,,,,,,12,28,female,L,IMT ,2021-07-09_14h41.55.735,ImageRatingTask_S1,2021.1.4,MacIntel,58.82352941,,,,,,,,,,,,,,,,,,,,,,,,,,0,28,28,135,1,DreamStudyImages_rs1000x750g/Vehicles/Objects_205_h.jpg,,,
,,,,,,,,,,,,,,,main,12,28,female,L,IMT ,2021-07-09_14h41.55.735,ImageRatingTask_S1,2021.1.4,MacIntel,58.82352941,,,,,,,,,,,5,36.285,2,1.196,7,2.913,1,4.34,2,0.7,0,0,0,0,1,,,,,,,,,
,,,,,,,,,,,,,,,second,12,28,female,L,IMT ,2021-07-09_14h41.55.735,ImageRatingTask_S1,2021.1.4,MacIntel,58.82352941,,,,,,,,,,,,,,,,,,,,,0,1,1,1,1,,,,,,,,,
,,,,,,,,,,,,,,,third,12,28,female,L,IMT ,2021-07-09_14h41.55.735,ImageRatingTask_S1,2021.1.4,MacIntel,58.82352941,,,,,,,,,,,,,,,,,,,,,0,2,2,2,1,,,,,,,,,
,,,,,,,,,,,,,,,fourth,12,28,female,L,IMT ,2021-07-09_14h41.55.735,ImageRatingTask_S1,2021.1.4,MacIntel,58.82352941,,,,,,,,,,,,,,,,,,,,,0,3,3,3,1,,,,,,,,,
,,,,,,,,,,,,,,,fifth,12,28,female,L,IMT ,2021-07-09_14h41.55.735,ImageRatingTask_S1,2021.1.4,MacIntel,58.82352941,,,,,,,,,,,,,,,,,,,,,0,4,4,4,1,,,,,,,,,
,,,,,,,,,,,,,,,sixth,12,28,female,L,IMT ,2021-07-09_14h41.55.735,ImageRatingTask_S1,2021.1.4,MacIntel,58.82352941,,,,,,,,,,,,,,,,,,,,,0,5,5,5,1,,,,,,,,,
,,,,,,,,,,,,,,,seventh,12,28,female,L,IMT ,2021-07-09_14h41.55.735,ImageRatingTask_S1,2021.1.4,MacIntel,58.82352941,,,,,,,,,,,,,,,,,,,,,0,6,6,6,1,,,,,,,,,
,,,,,,,,,,,,,,,last,12,28,female,L,IMT ,2021-07-09_14h41.55.735,ImageRatingTask_S1,2021.1.4,MacIntel,58.82352941,,,,,,,,,,,,,,,,,,,,,0,7,7,7,1,,,,,,,,,
,,,,,,,,,,,,,,,,12,28,female,L,IMT ,2021-07-09_14h41.55.735,ImageRatingTask_S1,2021.1.4,MacIntel,58.82352941,,,,,,,,,,,,,,,,,,,,,,,,,,0,29,29,119,1,DreamStudyImages_rs1000x750g/Children/Faces_086_v.jpg,,,
,,,,,,,,,,,,,,,main,12,28,female,L,IMT ,2021-07-09_14h41.55.735,ImageRatingTask_S1,2021.1.4,MacIntel,58.82352941,,,,,,,,,,,5,45.592,1,0.654,8,2.272,1,1.365,7,0.742,0,0,0,0,1,,,,,,,,,
,,,,,,,,,,,,,,,second,12,28,female,L,IMT ,2021-07-09_14h41.55.735,ImageRatingTask_S1,2021.1.4,MacIntel,58.82352941,,,,,,,,,,,,,,,,,,,,,0,1,1,1,1,,,,,,,,,
,,,,,,,,,,,,,,,third,12,28,female,L,IMT ,2021-07-09_14h41.55.735,ImageRatingTask_S1,2021.1.4,MacIntel,58.82352941,,,,,,,,,,,,,,,,,,,,,0,2,2,2,1,,,,,,,,,
,,,,,,,,,,,,,,,fourth,12,28,female,L,IMT ,2021-07-09_14h41.55.735,ImageRatingTask_S1,2021.1.4,MacIntel,58.82352941,,,,,,,,,,,,,,,,,,,,,0,3,3,3,1,,,,,,,,,
,,,,,,,,,,,,,,,fifth,12,28,female,L,IMT ,2021-07-09_14h41.55.735,ImageRatingTask_S1,2021.1.4,MacIntel,58.82352941,,,,,,,,,,,,,,,,,,,,,0,4,4,4,1,,,,,,,,,
,,,,,,,,,,,,,,,sixth,12,28,female,L,IMT ,2021-07-09_14h41.55.735,ImageRatingTask_S1,2021.1.4,MacIntel,58.82352941,,,,,,,,,,,,,,,,,,,,,0,5,5,5,1,,,,,,,,,
,,,,,,,,,,,,,,,seventh,12,28,female,L,IMT ,2021-07-09_14h41.55.735,ImageRatingTask_S1,2021.1.4,MacIntel,58.82352941,,,,,,,,,,,,,,,,,,,,,0,6,6,6,1,,,,,,,,,
,,,,,,,,,,,,,,,last,12,28,female,L,IMT ,2021-07-09_14h41.55.735,ImageRatingTask_S1,2021.1.4,MacIntel,58.82352941,,,,,,,,,,,,,,,,,,,,,0,7,7,7,1,,,,,,,,,
,,,,,,,,,,,,,,,,12,28,female,L,IMT ,2021-07-09_14h41.55.735,ImageRatingTask_S1,2021.1.4,MacIntel,58.82352941,,,,,,,,,,,,,,,,,,,,,,,,,,0,30,30,157,1,DreamStudyImages_rs1000x750g/Vehicles/Objects_309_h.jpg,,,
,,,,,,,,,,,,,,,main,12,28,female,L,IMT ,2021-07-09_14h41.55.735,ImageRatingTask_S1,2021.1.4,MacIntel,58.82352941,,,,,,,,,,,6,80.432,2,1.627,6,1.575,1,1.962,6,0.873,0,0,0,0,1,,,,,,,,,
,,,,,,,,,,,,,,,second,12,28,female,L,IMT ,2021-07-09_14h41.55.735,ImageRatingTask_S1,2021.1.4,MacIntel,58.82352941,,,,,,,,,,,,,,,,,,,,,0,1,1,1,1,,,,,,,,,
,,,,,,,,,,,,,,,third,12,28,female,L,IMT ,2021-07-09_14h41.55.735,ImageRatingTask_S1,2021.1.4,MacIntel,58.82352941,,,,,,,,,,,,,,,,,,,,,0,2,2,2,1,,,,,,,,,
,,,,,,,,,,,,,,,fourth,12,28,female,L,IMT ,2021-07-09_14h41.55.735,ImageRatingTask_S1,2021.1.4,MacIntel,58.82352941,,,,,,,,,,,,,,,,,,,,,0,3,3,3,1,,,,,,,,,
,,,,,,,,,,,,,,,fifth,12,28,female,L,IMT ,2021-07-09_14h41.55.735,ImageRatingTask_S1,2021.1.4,MacIntel,58.82352941,,,,,,,,,,,,,,,,,,,,,0,4,4,4,1,,,,,,,,,
,,,,,,,,,,,,,,,sixth,12,28,female,L,IMT ,2021-07-09_14h41.55.735,ImageRatingTask_S1,2021.1.4,MacIntel,58.82352941,,,,,,,,,,,,,,,,,,,,,0,5,5,5,1,,,,,,,,,
,,,,,,,,,,,,,,,seventh,12,28,female,L,IMT ,2021-07-09_14h41.55.735,ImageRatingTask_S1,2021.1.4,MacIntel,58.82352941,,,,,,,,,,,,,,,,,,,,,0,6,6,6,1,,,,,,,,,
,,,,,,,,,,,,,,,last,12,28,female,L,IMT ,2021-07-09_14h41.55.735,ImageRatingTask_S1,2021.1.4,MacIntel,58.82352941,,,,,,,,,,,,,,,,,,,,,0,7,7,7,1,,,,,,,,,
,,,,,,,,,,,,,,,,12,28,female,L,IMT ,2021-07-09_14h41.55.735,ImageRatingTask_S1,2021.1.4,MacIntel,58.82352941,,,,,,,,,,,,,,,,,,,,,,,,,,0,31,31,128,1,DreamStudyImages_rs1000x750g/Houses/Building 2.jpg,,,
,,,,,,,,,,,,,,,main,12,28,female,L,IMT ,2021-07-09_14h41.55.735,ImageRatingTask_S1,2021.1.4,MacIntel,58.82352941,,,,,,,,,,,3,15.093,3,2.624,9,3.173,1,1.135,3,6.964,0,0,0,0,1,,,,,,,,,
,,,,,,,,,,,,,,,second,12,28,female,L,IMT ,2021-07-09_14h41.55.735,ImageRatingTask_S1,2021.1.4,MacIntel,58.82352941,,,,,,,,,,,,,,,,,,,,,0,1,1,1,1,,,,,,,,,
,,,,,,,,,,,,,,,third,12,28,female,L,IMT ,2021-07-09_14h41.55.735,ImageRatingTask_S1,2021.1.4,MacIntel,58.82352941,,,,,,,,,,,,,,,,,,,,,0,2,2,2,1,,,,,,,,,
,,,,,,,,,,,,,,,fourth,12,28,female,L,IMT ,2021-07-09_14h41.55.735,ImageRatingTask_S1,2021.1.4,MacIntel,58.82352941,,,,,,,,,,,,,,,,,,,,,0,3,3,3,1,,,,,,,,,
,,,,,,,,,,,,,,,fifth,12,28,female,L,IMT ,2021-07-09_14h41.55.735,ImageRatingTask_S1,2021.1.4,MacIntel,58.82352941,,,,,,,,,,,,,,,,,,,,,0,4,4,4,1,,,,,,,,,
,,,,,,,,,,,,,,,sixth,12,28,female,L,IMT ,2021-07-09_14h41.55.735,ImageRatingTask_S1,2021.1.4,MacIntel,58.82352941,,,,,,,,,,,,,,,,,,,,,0,5,5,5,1,,,,,,,,,
,,,,,,,,,,,,,,,seventh,12,28,female,L,IMT ,2021-07-09_14h41.55.735,ImageRatingTask_S1,2021.1.4,MacIntel,58.82352941,,,,,,,,,,,,,,,,,,,,,0,6,6,6,1,,,,,,,,,
,,,,,,,,,,,,,,,last,12,28,female,L,IMT ,2021-07-09_14h41.55.735,ImageRatingTask_S1,2021.1.4,MacIntel,58.82352941,,,,,,,,,,,,,,,,,,,,,0,7,7,7,1,,,,,,,,,
,,,,,,,,,,,,,,,,12,28,female,L,IMT ,2021-07-09_14h41.55.735,ImageRatingTask_S1,2021.1.4,MacIntel,58.82352941,,,,,,,,,,,,,,,,,,,,,,,,,,0,32,32,15,1,DreamStudyImages_rs1000x750g/Mammals/IAPS1617_mole.jpg,,,
,,,,,,,,,,,,,,,main,12,28,female,L,IMT ,2021-07-09_14h41.55.735,ImageRatingTask_S1,2021.1.4,MacIntel,58.82352941,,,,,,,,,,,7,3.673,4,1.871,6,1.812,1,1.072,3,1.236,0,0,0,0,1,,,,,,,,,
,,,,,,,,,,,,,,,second,12,28,female,L,IMT ,2021-07-09_14h41.55.735,ImageRatingTask_S1,2021.1.4,MacIntel,58.82352941,,,,,,,,,,,,,,,,,,,,,0,1,1,1,1,,,,,,,,,
,,,,,,,,,,,,,,,third,12,28,female,L,IMT ,2021-07-09_14h41.55.735,ImageRatingTask_S1,2021.1.4,MacIntel,58.82352941,,,,,,,,,,,,,,,,,,,,,0,2,2,2,1,,,,,,,,,
,,,,,,,,,,,,,,,fourth,12,28,female,L,IMT ,2021-07-09_14h41.55.735,ImageRatingTask_S1,2021.1.4,MacIntel,58.82352941,,,,,,,,,,,,,,,,,,,,,0,3,3,3,1,,,,,,,,,
,,,,,,,,,,,,,,,fifth,12,28,female,L,IMT ,2021-07-09_14h41.55.735,ImageRatingTask_S1,2021.1.4,MacIntel,58.82352941,,,,,,,,,,,,,,,,,,,,,0,4,4,4,1,,,,,,,,,
,,,,,,,,,,,,,,,sixth,12,28,female,L,IMT ,2021-07-09_14h41.55.735,ImageRatingTask_S1,2021.1.4,MacIntel,58.82352941,,,,,,,,,,,,,,,,,,,,,0,5,5,5,1,,,,,,,,,
,,,,,,,,,,,,,,,seventh,12,28,female,L,IMT ,2021-07-09_14h41.55.735,ImageRatingTask_S1,2021.1.4,MacIntel,58.82352941,,,,,,,,,,,,,,,,,,,,,0,6,6,6,1,,,,,,,,,
,,,,,,,,,,,,,,,last,12,28,female,L,IMT ,2021-07-09_14h41.55.735,ImageRatingTask_S1,2021.1.4,MacIntel,58.82352941,,,,,,,,,,,,,,,,,,,,,0,7,7,7,1,,,,,,,,,
,,,,,,,,,,,,,,,,12,28,female,L,IMT ,2021-07-09_14h41.55.735,ImageRatingTask_S1,2021.1.4,MacIntel,58.82352941,,,,,,,,,,,,,,,,,,,,,,,,,,0,33,33,148,1,DreamStudyImages_rs1000x750g/Mammals/Elephant 1.jpg,,,
,,,,,,,,,,,,,,,main,12,28,female,L,IMT ,2021-07-09_14h41.55.735,ImageRatingTask_S1,2021.1.4,MacIntel,58.82352941,,,,,,,,,,,6,2.885,2,1.267,5,2.217,1,1.331,3,1.372,0,0,0,0,1,,,,,,,,,
,,,,,,,,,,,,,,,second,12,28,female,L,IMT ,2021-07-09_14h41.55.735,ImageRatingTask_S1,2021.1.4,MacIntel,58.82352941,,,,,,,,,,,,,,,,,,,,,0,1,1,1,1,,,,,,,,,
,,,,,,,,,,,,,,,third,12,28,female,L,IMT ,2021-07-09_14h41.55.735,ImageRatingTask_S1,2021.1.4,MacIntel,58.82352941,,,,,,,,,,,,,,,,,,,,,0,2,2,2,1,,,,,,,,,
,,,,,,,,,,,,,,,fourth,12,28,female,L,IMT ,2021-07-09_14h41.55.735,ImageRatingTask_S1,2021.1.4,MacIntel,58.82352941,,,,,,,,,,,,,,,,,,,,,0,3,3,3,1,,,,,,,,,
,,,,,,,,,,,,,,,fifth,12,28,female,L,IMT ,2021-07-09_14h41.55.735,ImageRatingTask_S1,2021.1.4,MacIntel,58.82352941,,,,,,,,,,,,,,,,,,,,,0,4,4,4,1,,,,,,,,,
,,,,,,,,,,,,,,,sixth,12,28,female,L,IMT ,2021-07-09_14h41.55.735,ImageRatingTask_S1,2021.1.4,MacIntel,58.82352941,,,,,,,,,,,,,,,,,,,,,0,5,5,5,1,,,,,,,,,
,,,,,,,,,,,,,,,seventh,12,28,female,L,IMT ,2021-07-09_14h41.55.735,ImageRatingTask_S1,2021.1.4,MacIntel,58.82352941,,,,,,,,,,,,,,,,,,,,,0,6,6,6,1,,,,,,,,,
,,,,,,,,,,,,,,,last,12,28,female,L,IMT ,2021-07-09_14h41.55.735,ImageRatingTask_S1,2021.1.4,MacIntel,58.82352941,,,,,,,,,,,,,,,,,,,,,0,7,7,7,1,,,,,,,,,
,,,,,,,,,,,,,,,,12,28,female,L,IMT ,2021-07-09_14h41.55.735,ImageRatingTask_S1,2021.1.4,MacIntel,58.82352941,,,,,,,,,,,,,,,,,,,,,,,,,,0,34,34,3,1,DreamStudyImages_rs1000x750g/Mammals/Goat 1.jpg,,,
,,,,,,,,,,,,,,,main,12,28,female,L,IMT ,2021-07-09_14h41.55.735,ImageRatingTask_S1,2021.1.4,MacIntel,58.82352941,,,,,,,,,,,5,54.53,1,2.561,8,1.831,1,1.11,7,0.806,0,0,0,0,1,,,,,,,,,
,,,,,,,,,,,,,,,second,12,28,female,L,IMT ,2021-07-09_14h41.55.735,ImageRatingTask_S1,2021.1.4,MacIntel,58.82352941,,,,,,,,,,,,,,,,,,,,,0,1,1,1,1,,,,,,,,,
,,,,,,,,,,,,,,,third,12,28,female,L,IMT ,2021-07-09_14h41.55.735,ImageRatingTask_S1,2021.1.4,MacIntel,58.82352941,,,,,,,,,,,,,,,,,,,,,0,2,2,2,1,,,,,,,,,
,,,,,,,,,,,,,,,fourth,12,28,female,L,IMT ,2021-07-09_14h41.55.735,ImageRatingTask_S1,2021.1.4,MacIntel,58.82352941,,,,,,,,,,,,,,,,,,,,,0,3,3,3,1,,,,,,,,,
,,,,,,,,,,,,,,,fifth,12,28,female,L,IMT ,2021-07-09_14h41.55.735,ImageRatingTask_S1,2021.1.4,MacIntel,58.82352941,,,,,,,,,,,,,,,,,,,,,0,4,4,4,1,,,,,,,,,
,,,,,,,,,,,,,,,sixth,12,28,female,L,IMT ,2021-07-09_14h41.55.735,ImageRatingTask_S1,2021.1.4,MacIntel,58.82352941,,,,,,,,,,,,,,,,,,,,,0,5,5,5,1,,,,,,,,,
,,,,,,,,,,,,,,,seventh,12,28,female,L,IMT ,2021-07-09_14h41.55.735,ImageRatingTask_S1,2021.1.4,MacIntel,58.82352941,,,,,,,,,,,,,,,,,,,,,0,6,6,6,1,,,,,,,,,
,,,,,,,,,,,,,,,last,12,28,female,L,IMT ,2021-07-09_14h41.55.735,ImageRatingTask_S1,2021.1.4,MacIntel,58.82352941,,,,,,,,,,,,,,,,,,,,,0,7,7,7,1,,,,,,,,,
,,,,,,,,,,,,,,,,12,28,female,L,IMT ,2021-07-09_14h41.55.735,ImageRatingTask_S1,2021.1.4,MacIntel,58.82352941,,,,,,,,,,,,,,,,,,,,,,,,,,0,35,35,102,1,DreamStudyImages_rs1000x750g/Vehicles/roadrailvehicle.jpg,,,
,,,,,,,,,,,,,,,main,12,28,female,L,IMT ,2021-07-09_14h41.55.735,ImageRatingTask_S1,2021.1.4,MacIntel,58.82352941,,,,,,,,,,,6,2.144,2,1.144,8,1.997,1,3.824,8,4.706,0,0,0,0,1,,,,,,,,,
,,,,,,,,,,,,,,,second,12,28,female,L,IMT ,2021-07-09_14h41.55.735,ImageRatingTask_S1,2021.1.4,MacIntel,58.82352941,,,,,,,,,,,,,,,,,,,,,0,1,1,1,1,,,,,,,,,
,,,,,,,,,,,,,,,third,12,28,female,L,IMT ,2021-07-09_14h41.55.735,ImageRatingTask_S1,2021.1.4,MacIntel,58.82352941,,,,,,,,,,,,,,,,,,,,,0,2,2,2,1,,,,,,,,,
,,,,,,,,,,,,,,,fourth,12,28,female,L,IMT ,2021-07-09_14h41.55.735,ImageRatingTask_S1,2021.1.4,MacIntel,58.82352941,,,,,,,,,,,,,,,,,,,,,0,3,3,3,1,,,,,,,,,
,,,,,,,,,,,,,,,fifth,12,28,female,L,IMT ,2021-07-09_14h41.55.735,ImageRatingTask_S1,2021.1.4,MacIntel,58.82352941,,,,,,,,,,,,,,,,,,,,,0,4,4,4,1,,,,,,,,,
,,,,,,,,,,,,,,,sixth,12,28,female,L,IMT ,2021-07-09_14h41.55.735,ImageRatingTask_S1,2021.1.4,MacIntel,58.82352941,,,,,,,,,,,,,,,,,,,,,0,5,5,5,1,,,,,,,,,
,,,,,,,,,,,,,,,seventh,12,28,female,L,IMT ,2021-07-09_14h41.55.735,ImageRatingTask_S1,2021.1.4,MacIntel,58.82352941,,,,,,,,,,,,,,,,,,,,,0,6,6,6,1,,,,,,,,,
,,,,,,,,,,,,,,,last,12,28,female,L,IMT ,2021-07-09_14h41.55.735,ImageRatingTask_S1,2021.1.4,MacIntel,58.82352941,,,,,,,,,,,,,,,,,,,,,0,7,7,7,1,,,,,,,,,
,,,,,,,,,,,,,,,,12,28,female,L,IMT ,2021-07-09_14h41.55.735,ImageRatingTask_S1,2021.1.4,MacIntel,58.82352941,,,,,,,,,,,,,,,,,,,,,,,,,,0,36,36,29,1,DreamStudyImages_rs1000x750g/Water/NDPS153_lake.jpg,,,
,,,,,,,,,,,,,,,main,12,28,female,L,IMT ,2021-07-09_14h41.55.735,ImageRatingTask_S1,2021.1.4,MacIntel,58.82352941,,,,,,,,,,,4,9.838,2,1.555,5,2.007,1,2.948,3,0.808,0,0,0,0,1,,,,,,,,,
,,,,,,,,,,,,,,,second,12,28,female,L,IMT ,2021-07-09_14h41.55.735,ImageRatingTask_S1,2021.1.4,MacIntel,58.82352941,,,,,,,,,,,,,,,,,,,,,0,1,1,1,1,,,,,,,,,
,,,,,,,,,,,,,,,third,12,28,female,L,IMT ,2021-07-09_14h41.55.735,ImageRatingTask_S1,2021.1.4,MacIntel,58.82352941,,,,,,,,,,,,,,,,,,,,,0,2,2,2,1,,,,,,,,,
,,,,,,,,,,,,,,,fourth,12,28,female,L,IMT ,2021-07-09_14h41.55.735,ImageRatingTask_S1,2021.1.4,MacIntel,58.82352941,,,,,,,,,,,,,,,,,,,,,0,3,3,3,1,,,,,,,,,
,,,,,,,,,,,,,,,fifth,12,28,female,L,IMT ,2021-07-09_14h41.55.735,ImageRatingTask_S1,2021.1.4,MacIntel,58.82352941,,,,,,,,,,,,,,,,,,,,,0,4,4,4,1,,,,,,,,,
,,,,,,,,,,,,,,,sixth,12,28,female,L,IMT ,2021-07-09_14h41.55.735,ImageRatingTask_S1,2021.1.4,MacIntel,58.82352941,,,,,,,,,,,,,,,,,,,,,0,5,5,5,1,,,,,,,,,
,,,,,,,,,,,,,,,seventh,12,28,female,L,IMT ,2021-07-09_14h41.55.735,ImageRatingTask_S1,2021.1.4,MacIntel,58.82352941,,,,,,,,,,,,,,,,,,,,,0,6,6,6,1,,,,,,,,,
,,,,,,,,,,,,,,,last,12,28,female,L,IMT ,2021-07-09_14h41.55.735,ImageRatingTask_S1,2021.1.4,MacIntel,58.82352941,,,,,,,,,,,,,,,,,,,,,0,7,7,7,1,,,,,,,,,
,,,,,,,,,,,,,,,,12,28,female,L,IMT ,2021-07-09_14h41.55.735,ImageRatingTask_S1,2021.1.4,MacIntel,58.82352941,,,,,,,,,,,,,,,,,,,,,,,,,,0,37,37,49,1,DreamStudyImages_rs1000x750g/Mammals/IAPS1726_tiger2.jpg,,,
,,,,,,,,,,,,,,,main,12,28,female,L,IMT ,2021-07-09_14h41.55.735,ImageRatingTask_S1,2021.1.4,MacIntel,58.82352941,,,,,,,,,,,5,7.008,1,0.364,7,1.908,1,1.739,7,0.769,0,0,0,0,1,,,,,,,,,
,,,,,,,,,,,,,,,second,12,28,female,L,IMT ,2021-07-09_14h41.55.735,ImageRatingTask_S1,2021.1.4,MacIntel,58.82352941,,,,,,,,,,,,,,,,,,,,,0,1,1,1,1,,,,,,,,,
,,,,,,,,,,,,,,,third,12,28,female,L,IMT ,2021-07-09_14h41.55.735,ImageRatingTask_S1,2021.1.4,MacIntel,58.82352941,,,,,,,,,,,,,,,,,,,,,0,2,2,2,1,,,,,,,,,
,,,,,,,,,,,,,,,fourth,12,28,female,L,IMT ,2021-07-09_14h41.55.735,ImageRatingTask_S1,2021.1.4,MacIntel,58.82352941,,,,,,,,,,,,,,,,,,,,,0,3,3,3,1,,,,,,,,,
,,,,,,,,,,,,,,,fifth,12,28,female,L,IMT ,2021-07-09_14h41.55.735,ImageRatingTask_S1,2021.1.4,MacIntel,58.82352941,,,,,,,,,,,,,,,,,,,,,0,4,4,4,1,,,,,,,,,
,,,,,,,,,,,,,,,sixth,12,28,female,L,IMT ,2021-07-09_14h41.55.735,ImageRatingTask_S1,2021.1.4,MacIntel,58.82352941,,,,,,,,,,,,,,,,,,,,,0,5,5,5,1,,,,,,,,,
,,,,,,,,,,,,,,,seventh,12,28,female,L,IMT ,2021-07-09_14h41.55.735,ImageRatingTask_S1,2021.1.4,MacIntel,58.82352941,,,,,,,,,,,,,,,,,,,,,0,6,6,6,1,,,,,,,,,
,,,,,,,,,,,,,,,last,12,28,female,L,IMT ,2021-07-09_14h41.55.735,ImageRatingTask_S1,2021.1.4,MacIntel,58.82352941,,,,,,,,,,,,,,,,,,,,,0,7,7,7,1,,,,,,,,,
,,,,,,,,,,,,,,,,12,28,female,L,IMT ,2021-07-09_14h41.55.735,ImageRatingTask_S1,2021.1.4,MacIntel,58.82352941,,,,,,,,,,,,,,,,,,,,,,,,,,0,38,38,87,1,DreamStudyImages_rs1000x750g/Vehicles/muddyjeep.jpg,,,
,,,,,,,,,,,,,,,main,12,28,female,L,IMT ,2021-07-09_14h41.55.735,ImageRatingTask_S1,2021.1.4,MacIntel,58.82352941,,,,,,,,,,,5,6.043,1,0.54,8,1.623,1,1.68,6,0.842,0,0,0,0,1,,,,,,,,,
,,,,,,,,,,,,,,,second,12,28,female,L,IMT ,2021-07-09_14h41.55.735,ImageRatingTask_S1,2021.1.4,MacIntel,58.82352941,,,,,,,,,,,,,,,,,,,,,0,1,1,1,1,,,,,,,,,
,,,,,,,,,,,,,,,third,12,28,female,L,IMT ,2021-07-09_14h41.55.735,ImageRatingTask_S1,2021.1.4,MacIntel,58.82352941,,,,,,,,,,,,,,,,,,,,,0,2,2,2,1,,,,,,,,,
,,,,,,,,,,,,,,,fourth,12,28,female,L,IMT ,2021-07-09_14h41.55.735,ImageRatingTask_S1,2021.1.4,MacIntel,58.82352941,,,,,,,,,,,,,,,,,,,,,0,3,3,3,1,,,,,,,,,
,,,,,,,,,,,,,,,fifth,12,28,female,L,IMT ,2021-07-09_14h41.55.735,ImageRatingTask_S1,2021.1.4,MacIntel,58.82352941,,,,,,,,,,,,,,,,,,,,,0,4,4,4,1,,,,,,,,,
,,,,,,,,,,,,,,,sixth,12,28,female,L,IMT ,2021-07-09_14h41.55.735,ImageRatingTask_S1,2021.1.4,MacIntel,58.82352941,,,,,,,,,,,,,,,,,,,,,0,5,5,5,1,,,,,,,,,
,,,,,,,,,,,,,,,seventh,12,28,female,L,IMT ,2021-07-09_14h41.55.735,ImageRatingTask_S1,2021.1.4,MacIntel,58.82352941,,,,,,,,,,,,,,,,,,,,,0,6,6,6,1,,,,,,,,,
,,,,,,,,,,,,,,,last,12,28,female,L,IMT ,2021-07-09_14h41.55.735,ImageRatingTask_S1,2021.1.4,MacIntel,58.82352941,,,,,,,,,,,,,,,,,,,,,0,7,7,7,1,,,,,,,,,
,,,,,,,,,,,,,,,,12,28,female,L,IMT ,2021-07-09_14h41.55.735,ImageRatingTask_S1,2021.1.4,MacIntel,58.82352941,,,,,,,,,,,,,,,,,,,,,,,,,,0,39,39,50,1,DreamStudyImages_rs1000x750g/Houses/Landscapes_046_h.jpg,,,
,,,,,,,,,,,,,,,main,12,28,female,L,IMT ,2021-07-09_14h41.55.735,ImageRatingTask_S1,2021.1.4,MacIntel,58.82352941,,,,,,,,,,,6,3.504,5,59.629,7,11.927,1,1.897,8,0.885,0,0,0,0,1,,,,,,,,,
,,,,,,,,,,,,,,,second,12,28,female,L,IMT ,2021-07-09_14h41.55.735,ImageRatingTask_S1,2021.1.4,MacIntel,58.82352941,,,,,,,,,,,,,,,,,,,,,0,1,1,1,1,,,,,,,,,
,,,,,,,,,,,,,,,third,12,28,female,L,IMT ,2021-07-09_14h41.55.735,ImageRatingTask_S1,2021.1.4,MacIntel,58.82352941,,,,,,,,,,,,,,,,,,,,,0,2,2,2,1,,,,,,,,,
,,,,,,,,,,,,,,,fourth,12,28,female,L,IMT ,2021-07-09_14h41.55.735,ImageRatingTask_S1,2021.1.4,MacIntel,58.82352941,,,,,,,,,,,,,,,,,,,,,0,3,3,3,1,,,,,,,,,
,,,,,,,,,,,,,,,fifth,12,28,female,L,IMT ,2021-07-09_14h41.55.735,ImageRatingTask_S1,2021.1.4,MacIntel,58.82352941,,,,,,,,,,,,,,,,,,,,,0,4,4,4,1,,,,,,,,,
,,,,,,,,,,,,,,,sixth,12,28,female,L,IMT ,2021-07-09_14h41.55.735,ImageRatingTask_S1,2021.1.4,MacIntel,58.82352941,,,,,,,,,,,,,,,,,,,,,0,5,5,5,1,,,,,,,,,
,,,,,,,,,,,,,,,seventh,12,28,female,L,IMT ,2021-07-09_14h41.55.735,ImageRatingTask_S1,2021.1.4,MacIntel,58.82352941,,,,,,,,,,,,,,,,,,,,,0,6,6,6,1,,,,,,,,,
,,,,,,,,,,,,,,,last,12,28,female,L,IMT ,2021-07-09_14h41.55.735,ImageRatingTask_S1,2021.1.4,MacIntel,58.82352941,,,,,,,,,,,,,,,,,,,,,0,7,7,7,1,,,,,,,,,
,,,,,,,,,,,,,,,,12,28,female,L,IMT ,2021-07-09_14h41.55.735,ImageRatingTask_S1,2021.1.4,MacIntel,58.82352941,,,,,,,,,,,,,,,,,,,,,,,,,,0,40,40,65,1,DreamStudyImages_rs1000x750g/Water/Waterfall 1.jpg,,,
,,,,,,,,,,,,,,,main,12,28,female,L,IMT ,2021-07-09_14h41.55.735,ImageRatingTask_S1,2021.1.4,MacIntel,58.82352941,,,,,,,,,,,6,2.166,1,0.994,9,1.823,0,5.224,,,0,0,0,0,1,,,,,,,,,
,,,,,,,,,,,,,,,second,12,28,female,L,IMT ,2021-07-09_14h41.55.735,ImageRatingTask_S1,2021.1.4,MacIntel,58.82352941,,,,,,,,,,,,,,,,,,,,,0,1,1,1,1,,,,,,,,,
,,,,,,,,,,,,,,,third,12,28,female,L,IMT ,2021-07-09_14h41.55.735,ImageRatingTask_S1,2021.1.4,MacIntel,58.82352941,,,,,,,,,,,,,,,,,,,,,0,2,2,2,1,,,,,,,,,
,,,,,,,,,,,,,,,fourth,12,28,female,L,IMT ,2021-07-09_14h41.55.735,ImageRatingTask_S1,2021.1.4,MacIntel,58.82352941,,,,,,,,,,,,,,,,,,,,,0,3,3,3,1,,,,,,,,,
,,,,,,,,,,,,,,,fifth,12,28,female,L,IMT ,2021-07-09_14h41.55.735,ImageRatingTask_S1,2021.1.4,MacIntel,58.82352941,,,,,,,,,,,,,,,,,,,,,0,4,4,4,1,,,,,,,,,
,,,,,,,,,,,,,,,sixth,12,28,female,L,IMT ,2021-07-09_14h41.55.735,ImageRatingTask_S1,2021.1.4,MacIntel,58.82352941,,,,,,,,,,,,,,,,,,,,,0,5,5,5,1,,,,,,,,,
,,,,,,,,,,,,,,,seventh,12,28,female,L,IMT ,2021-07-09_14h41.55.735,ImageRatingTask_S1,2021.1.4,MacIntel,58.82352941,,,,,,,,,,,,,,,,,,,,,0,6,6,6,1,,,,,,,,,
,,,,,,,,,,,,,,,last,12,28,female,L,IMT ,2021-07-09_14h41.55.735,ImageRatingTask_S1,2021.1.4,MacIntel,58.82352941,,,,,,,,,,,,,,,,,,,,,0,7,7,7,1,,,,,,,,,
,,,,,,,,,,,,,,,,12,28,female,L,IMT ,2021-07-09_14h41.55.735,ImageRatingTask_S1,2021.1.4,MacIntel,58.82352941,,,,,,,,,,,,,,,,,,,,,,,,,,0,41,41,116,1,DreamStudyImages_rs1000x750g/Houses/Landscapes_117_h.jpg,,,
,,,,,,,,,,,,,,,main,12,28,female,L,IMT ,2021-07-09_14h41.55.735,ImageRatingTask_S1,2021.1.4,MacIntel,58.82352941,,,,,,,,,,,5,2.954,1,3.773,8,2.067,1,2.497,3,0.882,0,0,0,0,1,,,,,,,,,
,,,,,,,,,,,,,,,second,12,28,female,L,IMT ,2021-07-09_14h41.55.735,ImageRatingTask_S1,2021.1.4,MacIntel,58.82352941,,,,,,,,,,,,,,,,,,,,,0,1,1,1,1,,,,,,,,,
,,,,,,,,,,,,,,,third,12,28,female,L,IMT ,2021-07-09_14h41.55.735,ImageRatingTask_S1,2021.1.4,MacIntel,58.82352941,,,,,,,,,,,,,,,,,,,,,0,2,2,2,1,,,,,,,,,
,,,,,,,,,,,,,,,fourth,12,28,female,L,IMT ,2021-07-09_14h41.55.735,ImageRatingTask_S1,2021.1.4,MacIntel,58.82352941,,,,,,,,,,,,,,,,,,,,,0,3,3,3,1,,,,,,,,,
,,,,,,,,,,,,,,,fifth,12,28,female,L,IMT ,2021-07-09_14h41.55.735,ImageRatingTask_S1,2021.1.4,MacIntel,58.82352941,,,,,,,,,,,,,,,,,,,,,0,4,4,4,1,,,,,,,,,
,,,,,,,,,,,,,,,sixth,12,28,female,L,IMT ,2021-07-09_14h41.55.735,ImageRatingTask_S1,2021.1.4,MacIntel,58.82352941,,,,,,,,,,,,,,,,,,,,,0,5,5,5,1,,,,,,,,,
,,,,,,,,,,,,,,,seventh,12,28,female,L,IMT ,2021-07-09_14h41.55.735,ImageRatingTask_S1,2021.1.4,MacIntel,58.82352941,,,,,,,,,,,,,,,,,,,,,0,6,6,6,1,,,,,,,,,
,,,,,,,,,,,,,,,last,12,28,female,L,IMT ,2021-07-09_14h41.55.735,ImageRatingTask_S1,2021.1.4,MacIntel,58.82352941,,,,,,,,,,,,,,,,,,,,,0,7,7,7,1,,,,,,,,,
,,,,,,,,,,,,,,,,12,28,female,L,IMT ,2021-07-09_14h41.55.735,ImageRatingTask_S1,2021.1.4,MacIntel,58.82352941,,,,,,,,,,,,,,,,,,,,,,,,,,0,42,42,8,1,DreamStudyImages_rs1000x750g/Mammals/1350.jpg,,,
,,,,,,,,,,,,,,,main,12,28,female,L,IMT ,2021-07-09_14h41.55.735,ImageRatingTask_S1,2021.1.4,MacIntel,58.82352941,,,,,,,,,,,6,5.389,2,1.429,9,1.488,1,12.253,2,0.583,0,0,0,0,1,,,,,,,,,
,,,,,,,,,,,,,,,second,12,28,female,L,IMT ,2021-07-09_14h41.55.735,ImageRatingTask_S1,2021.1.4,MacIntel,58.82352941,,,,,,,,,,,,,,,,,,,,,0,1,1,1,1,,,,,,,,,
,,,,,,,,,,,,,,,third,12,28,female,L,IMT ,2021-07-09_14h41.55.735,ImageRatingTask_S1,2021.1.4,MacIntel,58.82352941,,,,,,,,,,,,,,,,,,,,,0,2,2,2,1,,,,,,,,,
,,,,,,,,,,,,,,,fourth,12,28,female,L,IMT ,2021-07-09_14h41.55.735,ImageRatingTask_S1,2021.1.4,MacIntel,58.82352941,,,,,,,,,,,,,,,,,,,,,0,3,3,3,1,,,,,,,,,
,,,,,,,,,,,,,,,fifth,12,28,female,L,IMT ,2021-07-09_14h41.55.735,ImageRatingTask_S1,2021.1.4,MacIntel,58.82352941,,,,,,,,,,,,,,,,,,,,,0,4,4,4,1,,,,,,,,,
,,,,,,,,,,,,,,,sixth,12,28,female,L,IMT ,2021-07-09_14h41.55.735,ImageRatingTask_S1,2021.1.4,MacIntel,58.82352941,,,,,,,,,,,,,,,,,,,,,0,5,5,5,1,,,,,,,,,
,,,,,,,,,,,,,,,seventh,12,28,female,L,IMT ,2021-07-09_14h41.55.735,ImageRatingTask_S1,2021.1.4,MacIntel,58.82352941,,,,,,,,,,,,,,,,,,,,,0,6,6,6,1,,,,,,,,,
,,,,,,,,,,,,,,,last,12,28,female,L,IMT ,2021-07-09_14h41.55.735,ImageRatingTask_S1,2021.1.4,MacIntel,58.82352941,,,,,,,,,,,,,,,,,,,,,0,7,7,7,1,,,,,,,,,
,,,,,,,,,,,,,,,,12,28,female,L,IMT ,2021-07-09_14h41.55.735,ImageRatingTask_S1,2021.1.4,MacIntel,58.82352941,,,,,,,,,,,,,,,,,,,,,,,,,,0,43,43,130,1,DreamStudyImages_rs1000x750g/Children/People_043_h.jpg,,,
,,,,,,,,,,,,,,,main,12,28,female,L,IMT ,2021-07-09_14h41.55.735,ImageRatingTask_S1,2021.1.4,MacIntel,58.82352941,,,,,,,,,,,5,2.073,1,1.311,9,2.896,1,4.261,7,0.783,0,0,0,0,1,,,,,,,,,
,,,,,,,,,,,,,,,second,12,28,female,L,IMT ,2021-07-09_14h41.55.735,ImageRatingTask_S1,2021.1.4,MacIntel,58.82352941,,,,,,,,,,,,,,,,,,,,,0,1,1,1,1,,,,,,,,,
,,,,,,,,,,,,,,,third,12,28,female,L,IMT ,2021-07-09_14h41.55.735,ImageRatingTask_S1,2021.1.4,MacIntel,58.82352941,,,,,,,,,,,,,,,,,,,,,0,2,2,2,1,,,,,,,,,
,,,,,,,,,,,,,,,fourth,12,28,female,L,IMT ,2021-07-09_14h41.55.735,ImageRatingTask_S1,2021.1.4,MacIntel,58.82352941,,,,,,,,,,,,,,,,,,,,,0,3,3,3,1,,,,,,,,,
,,,,,,,,,,,,,,,fifth,12,28,female,L,IMT ,2021-07-09_14h41.55.735,ImageRatingTask_S1,2021.1.4,MacIntel,58.82352941,,,,,,,,,,,,,,,,,,,,,0,4,4,4,1,,,,,,,,,
,,,,,,,,,,,,,,,sixth,12,28,female,L,IMT ,2021-07-09_14h41.55.735,ImageRatingTask_S1,2021.1.4,MacIntel,58.82352941,,,,,,,,,,,,,,,,,,,,,0,5,5,5,1,,,,,,,,,
,,,,,,,,,,,,,,,seventh,12,28,female,L,IMT ,2021-07-09_14h41.55.735,ImageRatingTask_S1,2021.1.4,MacIntel,58.82352941,,,,,,,,,,,,,,,,,,,,,0,6,6,6,1,,,,,,,,,
,,,,,,,,,,,,,,,last,12,28,female,L,IMT ,2021-07-09_14h41.55.735,ImageRatingTask_S1,2021.1.4,MacIntel,58.82352941,,,,,,,,,,,,,,,,,,,,,0,7,7,7,1,,,,,,,,,
,,,,,,,,,,,,,,,,12,28,female,L,IMT ,2021-07-09_14h41.55.735,ImageRatingTask_S1,2021.1.4,MacIntel,58.82352941,,,,,,,,,,,,,,,,,,,,,,,,,,0,44,44,70,1,DreamStudyImages_rs1000x750g/Vehicles/Objects_211_h.jpg,,,
,,,,,,,,,,,,,,,main,12,28,female,L,IMT ,2021-07-09_14h41.55.735,ImageRatingTask_S1,2021.1.4,MacIntel,58.82352941,,,,,,,,,,,5,2.579,1,1.421,7,2.147,1,8.624,7,0.616,0,0,0,0,1,,,,,,,,,
,,,,,,,,,,,,,,,second,12,28,female,L,IMT ,2021-07-09_14h41.55.735,ImageRatingTask_S1,2021.1.4,MacIntel,58.82352941,,,,,,,,,,,,,,,,,,,,,0,1,1,1,1,,,,,,,,,
,,,,,,,,,,,,,,,third,12,28,female,L,IMT ,2021-07-09_14h41.55.735,ImageRatingTask_S1,2021.1.4,MacIntel,58.82352941,,,,,,,,,,,,,,,,,,,,,0,2,2,2,1,,,,,,,,,
,,,,,,,,,,,,,,,fourth,12,28,female,L,IMT ,2021-07-09_14h41.55.735,ImageRatingTask_S1,2021.1.4,MacIntel,58.82352941,,,,,,,,,,,,,,,,,,,,,0,3,3,3,1,,,,,,,,,
,,,,,,,,,,,,,,,fifth,12,28,female,L,IMT ,2021-07-09_14h41.55.735,ImageRatingTask_S1,2021.1.4,MacIntel,58.82352941,,,,,,,,,,,,,,,,,,,,,0,4,4,4,1,,,,,,,,,
,,,,,,,,,,,,,,,sixth,12,28,female,L,IMT ,2021-07-09_14h41.55.735,ImageRatingTask_S1,2021.1.4,MacIntel,58.82352941,,,,,,,,,,,,,,,,,,,,,0,5,5,5,1,,,,,,,,,
,,,,,,,,,,,,,,,seventh,12,28,female,L,IMT ,2021-07-09_14h41.55.735,ImageRatingTask_S1,2021.1.4,MacIntel,58.82352941,,,,,,,,,,,,,,,,,,,,,0,6,6,6,1,,,,,,,,,
,,,,,,,,,,,,,,,last,12,28,female,L,IMT ,2021-07-09_14h41.55.735,ImageRatingTask_S1,2021.1.4,MacIntel,58.82352941,,,,,,,,,,,,,,,,,,,,,0,7,7,7,1,,,,,,,,,
,,,,,,,,,,,,,,,,12,28,female,L,IMT ,2021-07-09_14h41.55.735,ImageRatingTask_S1,2021.1.4,MacIntel,58.82352941,,,,,,,,,,,,,,,,,,,,,,,,,,0,45,45,120,1,DreamStudyImages_rs1000x750g/Vehicles/monstertruck.jpg,,,
,,,,,,,,,,,,,,,main,12,28,female,L,IMT ,2021-07-09_14h41.55.735,ImageRatingTask_S1,2021.1.4,MacIntel,58.82352941,,,,,,,,,,,5,11.013,3,3.623,5,3.413,1,14.214,2,0.791,0,0,0,0,1,,,,,,,,,
,,,,,,,,,,,,,,,second,12,28,female,L,IMT ,2021-07-09_14h41.55.735,ImageRatingTask_S1,2021.1.4,MacIntel,58.82352941,,,,,,,,,,,,,,,,,,,,,0,1,1,1,1,,,,,,,,,
,,,,,,,,,,,,,,,third,12,28,female,L,IMT ,2021-07-09_14h41.55.735,ImageRatingTask_S1,2021.1.4,MacIntel,58.82352941,,,,,,,,,,,,,,,,,,,,,0,2,2,2,1,,,,,,,,,
,,,,,,,,,,,,,,,fourth,12,28,female,L,IMT ,2021-07-09_14h41.55.735,ImageRatingTask_S1,2021.1.4,MacIntel,58.82352941,,,,,,,,,,,,,,,,,,,,,0,3,3,3,1,,,,,,,,,
,,,,,,,,,,,,,,,fifth,12,28,female,L,IMT ,2021-07-09_14h41.55.735,ImageRatingTask_S1,2021.1.4,MacIntel,58.82352941,,,,,,,,,,,,,,,,,,,,,0,4,4,4,1,,,,,,,,,
,,,,,,,,,,,,,,,sixth,12,28,female,L,IMT ,2021-07-09_14h41.55.735,ImageRatingTask_S1,2021.1.4,MacIntel,58.82352941,,,,,,,,,,,,,,,,,,,,,0,5,5,5,1,,,,,,,,,
,,,,,,,,,,,,,,,seventh,12,28,female,L,IMT ,2021-07-09_14h41.55.735,ImageRatingTask_S1,2021.1.4,MacIntel,58.82352941,,,,,,,,,,,,,,,,,,,,,0,6,6,6,1,,,,,,,,,
,,,,,,,,,,,,,,,last,12,28,female,L,IMT ,2021-07-09_14h41.55.735,ImageRatingTask_S1,2021.1.4,MacIntel,58.82352941,,,,,,,,,,,,,,,,,,,,,0,7,7,7,1,,,,,,,,,
,,,,,,,,,,,,,,,,12,28,female,L,IMT ,2021-07-09_14h41.55.735,ImageRatingTask_S1,2021.1.4,MacIntel,58.82352941,,,,,,,,,,,,,,,,,,,,,,,,,,0,46,46,13,1,DreamStudyImages_rs1000x750g/Children/IAPS2058_baby6.jpg,,,
,,,,,,,,,,,,,,,main,12,28,female,L,IMT ,2021-07-09_14h41.55.735,ImageRatingTask_S1,2021.1.4,MacIntel,58.82352941,,,,,,,,,,,5,53.055,1,1.724,6,1.901,1,39.308,7,0.639,0,0,0,0,1,,,,,,,,,
,,,,,,,,,,,,,,,second,12,28,female,L,IMT ,2021-07-09_14h41.55.735,ImageRatingTask_S1,2021.1.4,MacIntel,58.82352941,,,,,,,,,,,,,,,,,,,,,0,1,1,1,1,,,,,,,,,
,,,,,,,,,,,,,,,third,12,28,female,L,IMT ,2021-07-09_14h41.55.735,ImageRatingTask_S1,2021.1.4,MacIntel,58.82352941,,,,,,,,,,,,,,,,,,,,,0,2,2,2,1,,,,,,,,,
,,,,,,,,,,,,,,,fourth,12,28,female,L,IMT ,2021-07-09_14h41.55.735,ImageRatingTask_S1,2021.1.4,MacIntel,58.82352941,,,,,,,,,,,,,,,,,,,,,0,3,3,3,1,,,,,,,,,
,,,,,,,,,,,,,,,fifth,12,28,female,L,IMT ,2021-07-09_14h41.55.735,ImageRatingTask_S1,2021.1.4,MacIntel,58.82352941,,,,,,,,,,,,,,,,,,,,,0,4,4,4,1,,,,,,,,,
,,,,,,,,,,,,,,,sixth,12,28,female,L,IMT ,2021-07-09_14h41.55.735,ImageRatingTask_S1,2021.1.4,MacIntel,58.82352941,,,,,,,,,,,,,,,,,,,,,0,5,5,5,1,,,,,,,,,
,,,,,,,,,,,,,,,seventh,12,28,female,L,IMT ,2021-07-09_14h41.55.735,ImageRatingTask_S1,2021.1.4,MacIntel,58.82352941,,,,,,,,,,,,,,,,,,,,,0,6,6,6,1,,,,,,,,,
,,,,,,,,,,,,,,,last,12,28,female,L,IMT ,2021-07-09_14h41.55.735,ImageRatingTask_S1,2021.1.4,MacIntel,58.82352941,,,,,,,,,,,,,,,,,,,,,0,7,7,7,1,,,,,,,,,
,,,,,,,,,,,,,,,,12,28,female,L,IMT ,2021-07-09_14h41.55.735,ImageRatingTask_S1,2021.1.4,MacIntel,58.82352941,,,,,,,,,,,,,,,,,,,,,,,,,,0,47,47,98,1,DreamStudyImages_rs1000x750g/Vehicles/vespa.jpg,,,
,,,,,,,,,,,,,,,main,12,28,female,L,IMT ,2021-07-09_14h41.55.735,ImageRatingTask_S1,2021.1.4,MacIntel,58.82352941,,,,,,,,,,,5,1.683,1,4.962,8,27.183,1,5.74,5,1.017,0,0,0,0,1,,,,,,,,,
,,,,,,,,,,,,,,,second,12,28,female,L,IMT ,2021-07-09_14h41.55.735,ImageRatingTask_S1,2021.1.4,MacIntel,58.82352941,,,,,,,,,,,,,,,,,,,,,0,1,1,1,1,,,,,,,,,
,,,,,,,,,,,,,,,third,12,28,female,L,IMT ,2021-07-09_14h41.55.735,ImageRatingTask_S1,2021.1.4,MacIntel,58.82352941,,,,,,,,,,,,,,,,,,,,,0,2,2,2,1,,,,,,,,,
,,,,,,,,,,,,,,,fourth,12,28,female,L,IMT ,2021-07-09_14h41.55.735,ImageRatingTask_S1,2021.1.4,MacIntel,58.82352941,,,,,,,,,,,,,,,,,,,,,0,3,3,3,1,,,,,,,,,
,,,,,,,,,,,,,,,fifth,12,28,female,L,IMT ,2021-07-09_14h41.55.735,ImageRatingTask_S1,2021.1.4,MacIntel,58.82352941,,,,,,,,,,,,,,,,,,,,,0,4,4,4,1,,,,,,,,,
,,,,,,,,,,,,,,,sixth,12,28,female,L,IMT ,2021-07-09_14h41.55.735,ImageRatingTask_S1,2021.1.4,MacIntel,58.82352941,,,,,,,,,,,,,,,,,,,,,0,5,5,5,1,,,,,,,,,
,,,,,,,,,,,,,,,seventh,12,28,female,L,IMT ,2021-07-09_14h41.55.735,ImageRatingTask_S1,2021.1.4,MacIntel,58.82352941,,,,,,,,,,,,,,,,,,,,,0,6,6,6,1,,,,,,,,,
,,,,,,,,,,,,,,,last,12,28,female,L,IMT ,2021-07-09_14h41.55.735,ImageRatingTask_S1,2021.1.4,MacIntel,58.82352941,,,,,,,,,,,,,,,,,,,,,0,7,7,7,1,,,,,,,,,
,,,,,,,,,,,,,,,,12,28,female,L,IMT ,2021-07-09_14h41.55.735,ImageRatingTask_S1,2021.1.4,MacIntel,58.82352941,,,,,,,,,,,,,,,,,,,,,,,,,,0,48,48,114,1,DreamStudyImages_rs1000x750g/Food/Objects_020_h.jpg,,,
,,,,,,,,,,,,,,,main,12,28,female,L,IMT ,2021-07-09_14h41.55.735,ImageRatingTask_S1,2021.1.4,MacIntel,58.82352941,,,,,,,,,,,5,8.398,2,1.233,6,1.73,2,2.014,2,1.404,0,0,0,0,1,,,,,,,,,
,,,,,,,,,,,,,,,second,12,28,female,L,IMT ,2021-07-09_14h41.55.735,ImageRatingTask_S1,2021.1.4,MacIntel,58.82352941,,,,,,,,,,,,,,,,,,,1,0.516,0,1,1,1,1,,,,,,,,,
,,,,,,,,,,,,,,,third,12,28,female,L,IMT ,2021-07-09_14h41.55.735,ImageRatingTask_S1,2021.1.4,MacIntel,58.82352941,,,,,,,,,,,,,,,,,,,,,0,2,2,2,1,,,,,,,,,
,,,,,,,,,,,,,,,fourth,12,28,female,L,IMT ,2021-07-09_14h41.55.735,ImageRatingTask_S1,2021.1.4,MacIntel,58.82352941,,,,,,,,,,,,,,,,,,,,,0,3,3,3,1,,,,,,,,,
,,,,,,,,,,,,,,,fifth,12,28,female,L,IMT ,2021-07-09_14h41.55.735,ImageRatingTask_S1,2021.1.4,MacIntel,58.82352941,,,,,,,,,,,,,,,,,,,,,0,4,4,4,1,,,,,,,,,
,,,,,,,,,,,,,,,sixth,12,28,female,L,IMT ,2021-07-09_14h41.55.735,ImageRatingTask_S1,2021.1.4,MacIntel,58.82352941,,,,,,,,,,,,,,,,,,,,,0,5,5,5,1,,,,,,,,,
,,,,,,,,,,,,,,,seventh,12,28,female,L,IMT ,2021-07-09_14h41.55.735,ImageRatingTask_S1,2021.1.4,MacIntel,58.82352941,,,,,,,,,,,,,,,,,,,,,0,6,6,6,1,,,,,,,,,
,,,,,,,,,,,,,,,last,12,28,female,L,IMT ,2021-07-09_14h41.55.735,ImageRatingTask_S1,2021.1.4,MacIntel,58.82352941,,,,,,,,,,,,,,,,,,,,,0,7,7,7,1,,,,,,,,,
,,,,,,,,,,,,,,,,12,28,female,L,IMT ,2021-07-09_14h41.55.735,ImageRatingTask_S1,2021.1.4,MacIntel,58.82352941,,,,,,,,,,,,,,,,,,,,,,,,,,0,49,49,154,1,DreamStudyImages_rs1000x750g/Children/Faces_104_h.jpg,,,
,,,,,,,,,,,,,,,main,12,28,female,L,IMT ,2021-07-09_14h41.55.735,ImageRatingTask_S1,2021.1.4,MacIntel,58.82352941,,,,,,,,,,,5,2.958,1,0.771,8,1.866,1,1.117,7,0.677,0,0,0,0,1,,,,,,,,,
,,,,,,,,,,,,,,,second,12,28,female,L,IMT ,2021-07-09_14h41.55.735,ImageRatingTask_S1,2021.1.4,MacIntel,58.82352941,,,,,,,,,,,,,,,,,,,,,0,1,1,1,1,,,,,,,,,
,,,,,,,,,,,,,,,third,12,28,female,L,IMT ,2021-07-09_14h41.55.735,ImageRatingTask_S1,2021.1.4,MacIntel,58.82352941,,,,,,,,,,,,,,,,,,,,,0,2,2,2,1,,,,,,,,,
,,,,,,,,,,,,,,,fourth,12,28,female,L,IMT ,2021-07-09_14h41.55.735,ImageRatingTask_S1,2021.1.4,MacIntel,58.82352941,,,,,,,,,,,,,,,,,,,,,0,3,3,3,1,,,,,,,,,
,,,,,,,,,,,,,,,fifth,12,28,female,L,IMT ,2021-07-09_14h41.55.735,ImageRatingTask_S1,2021.1.4,MacIntel,58.82352941,,,,,,,,,,,,,,,,,,,,,0,4,4,4,1,,,,,,,,,
,,,,,,,,,,,,,,,sixth,12,28,female,L,IMT ,2021-07-09_14h41.55.735,ImageRatingTask_S1,2021.1.4,MacIntel,58.82352941,,,,,,,,,,,,,,,,,,,,,0,5,5,5,1,,,,,,,,,
,,,,,,,,,,,,,,,seventh,12,28,female,L,IMT ,2021-07-09_14h41.55.735,ImageRatingTask_S1,2021.1.4,MacIntel,58.82352941,,,,,,,,,,,,,,,,,,,,,0,6,6,6,1,,,,,,,,,
,,,,,,,,,,,,,,,last,12,28,female,L,IMT ,2021-07-09_14h41.55.735,ImageRatingTask_S1,2021.1.4,MacIntel,58.82352941,,,,,,,,,,,,,,,,,,,,,0,7,7,7,1,,,,,,,,,
,,,,,,,,,,,,,,,,12,28,female,L,IMT ,2021-07-09_14h41.55.735,ImageRatingTask_S1,2021.1.4,MacIntel,58.82352941,,,,,,,,,,,,,,,,,,,,,,,,,,0,50,50,37,1,DreamStudyImages_rs1000x750g/Vehicles/Objects_322_h.jpg,,,
,,,,,,,,,,,,,,,main,12,28,female,L,IMT ,2021-07-09_14h41.55.735,ImageRatingTask_S1,2021.1.4,MacIntel,58.82352941,,,,,,,,,,,6,3.618,2,1.692,7,1.383,1,1.308,3,1.293,0,0,0,0,1,,,,,,,,,
,,,,,,,,,,,,,,,second,12,28,female,L,IMT ,2021-07-09_14h41.55.735,ImageRatingTask_S1,2021.1.4,MacIntel,58.82352941,,,,,,,,,,,,,,,,,,,,,0,1,1,1,1,,,,,,,,,
,,,,,,,,,,,,,,,third,12,28,female,L,IMT ,2021-07-09_14h41.55.735,ImageRatingTask_S1,2021.1.4,MacIntel,58.82352941,,,,,,,,,,,,,,,,,,,,,0,2,2,2,1,,,,,,,,,
,,,,,,,,,,,,,,,fourth,12,28,female,L,IMT ,2021-07-09_14h41.55.735,ImageRatingTask_S1,2021.1.4,MacIntel,58.82352941,,,,,,,,,,,,,,,,,,,,,0,3,3,3,1,,,,,,,,,
,,,,,,,,,,,,,,,fifth,12,28,female,L,IMT ,2021-07-09_14h41.55.735,ImageRatingTask_S1,2021.1.4,MacIntel,58.82352941,,,,,,,,,,,,,,,,,,,,,0,4,4,4,1,,,,,,,,,
,,,,,,,,,,,,,,,sixth,12,28,female,L,IMT ,2021-07-09_14h41.55.735,ImageRatingTask_S1,2021.1.4,MacIntel,58.82352941,,,,,,,,,,,,,,,,,,,,,0,5,5,5,1,,,,,,,,,
,,,,,,,,,,,,,,,seventh,12,28,female,L,IMT ,2021-07-09_14h41.55.735,ImageRatingTask_S1,2021.1.4,MacIntel,58.82352941,,,,,,,,,,,,,,,,,,,,,0,6,6,6,1,,,,,,,,,
,,,,,,,,,,,,,,,last,12,28,female,L,IMT ,2021-07-09_14h41.55.735,ImageRatingTask_S1,2021.1.4,MacIntel,58.82352941,,,,,,,,,,,,,,,,,,,,,0,7,7,7,1,,,,,,,,,
,,,,,,,,,,,,,,,,12,28,female,L,IMT ,2021-07-09_14h41.55.735,ImageRatingTask_S1,2021.1.4,MacIntel,58.82352941,,,,,,,,,,,,,,,,,,,,,,,,,,0,51,51,134,1,DreamStudyImages_rs1000x750g/Mammals/IAPS1720_lion.jpg,,,
,,,,,,,,,,,,,,,main,12,28,female,L,IMT ,2021-07-09_14h41.55.735,ImageRatingTask_S1,2021.1.4,MacIntel,58.82352941,,,,,,,,,,,7,3.352,3,1.463,9,1.478,1,6.879,8,1.045,0,0,0,0,1,,,,,,,,,
,,,,,,,,,,,,,,,second,12,28,female,L,IMT ,2021-07-09_14h41.55.735,ImageRatingTask_S1,2021.1.4,MacIntel,58.82352941,,,,,,,,,,,,,,,,,,,,,0,1,1,1,1,,,,,,,,,
,,,,,,,,,,,,,,,third,12,28,female,L,IMT ,2021-07-09_14h41.55.735,ImageRatingTask_S1,2021.1.4,MacIntel,58.82352941,,,,,,,,,,,,,,,,,,,,,0,2,2,2,1,,,,,,,,,
,,,,,,,,,,,,,,,fourth,12,28,female,L,IMT ,2021-07-09_14h41.55.735,ImageRatingTask_S1,2021.1.4,MacIntel,58.82352941,,,,,,,,,,,,,,,,,,,,,0,3,3,3,1,,,,,,,,,
,,,,,,,,,,,,,,,fifth,12,28,female,L,IMT ,2021-07-09_14h41.55.735,ImageRatingTask_S1,2021.1.4,MacIntel,58.82352941,,,,,,,,,,,,,,,,,,,,,0,4,4,4,1,,,,,,,,,
,,,,,,,,,,,,,,,sixth,12,28,female,L,IMT ,2021-07-09_14h41.55.735,ImageRatingTask_S1,2021.1.4,MacIntel,58.82352941,,,,,,,,,,,,,,,,,,,,,0,5,5,5,1,,,,,,,,,
,,,,,,,,,,,,,,,seventh,12,28,female,L,IMT ,2021-07-09_14h41.55.735,ImageRatingTask_S1,2021.1.4,MacIntel,58.82352941,,,,,,,,,,,,,,,,,,,,,0,6,6,6,1,,,,,,,,,
,,,,,,,,,,,,,,,last,12,28,female,L,IMT ,2021-07-09_14h41.55.735,ImageRatingTask_S1,2021.1.4,MacIntel,58.82352941,,,,,,,,,,,,,,,,,,,,,0,7,7,7,1,,,,,,,,,
,,,,,,,,,,,,,,,,12,28,female,L,IMT ,2021-07-09_14h41.55.735,ImageRatingTask_S1,2021.1.4,MacIntel,58.82352941,,,,,,,,,,,,,,,,,,,,,,,,,,0,52,52,27,1,DreamStudyImages_rs1000x750g/Water/Landscapes_165_h.jpg,,,
,,,,,,,,,,,,,,,main,12,28,female,L,IMT ,2021-07-09_14h41.55.735,ImageRatingTask_S1,2021.1.4,MacIntel,58.82352941,,,,,,,,,,,4,8.482,1,1.69,5,1.781,1,2.344,8,1.198,0,0,0,0,1,,,,,,,,,
,,,,,,,,,,,,,,,second,12,28,female,L,IMT ,2021-07-09_14h41.55.735,ImageRatingTask_S1,2021.1.4,MacIntel,58.82352941,,,,,,,,,,,,,,,,,,,,,0,1,1,1,1,,,,,,,,,
,,,,,,,,,,,,,,,third,12,28,female,L,IMT ,2021-07-09_14h41.55.735,ImageRatingTask_S1,2021.1.4,MacIntel,58.82352941,,,,,,,,,,,,,,,,,,,,,0,2,2,2,1,,,,,,,,,
,,,,,,,,,,,,,,,fourth,12,28,female,L,IMT ,2021-07-09_14h41.55.735,ImageRatingTask_S1,2021.1.4,MacIntel,58.82352941,,,,,,,,,,,,,,,,,,,,,0,3,3,3,1,,,,,,,,,
,,,,,,,,,,,,,,,fifth,12,28,female,L,IMT ,2021-07-09_14h41.55.735,ImageRatingTask_S1,2021.1.4,MacIntel,58.82352941,,,,,,,,,,,,,,,,,,,,,0,4,4,4,1,,,,,,,,,
,,,,,,,,,,,,,,,sixth,12,28,female,L,IMT ,2021-07-09_14h41.55.735,ImageRatingTask_S1,2021.1.4,MacIntel,58.82352941,,,,,,,,,,,,,,,,,,,,,0,5,5,5,1,,,,,,,,,
,,,,,,,,,,,,,,,seventh,12,28,female,L,IMT ,2021-07-09_14h41.55.735,ImageRatingTask_S1,2021.1.4,MacIntel,58.82352941,,,,,,,,,,,,,,,,,,,,,0,6,6,6,1,,,,,,,,,
,,,,,,,,,,,,,,,last,12,28,female,L,IMT ,2021-07-09_14h41.55.735,ImageRatingTask_S1,2021.1.4,MacIntel,58.82352941,,,,,,,,,,,,,,,,,,,,,0,7,7,7,1,,,,,,,,,
,,,,,,,,,,,,,,,,12,28,female,L,IMT ,2021-07-09_14h41.55.735,ImageRatingTask_S1,2021.1.4,MacIntel,58.82352941,,,,,,,,,,,,,,,,,,,,,,,,,,0,53,53,17,1,DreamStudyImages_rs1000x750g/Water/Rainbow 1.jpg,,,
,,,,,,,,,,,,,,,main,12,28,female,L,IMT ,2021-07-09_14h41.55.735,ImageRatingTask_S1,2021.1.4,MacIntel,58.82352941,,,,,,,,,,,5,25.214,2,2.277,5,1.965,1,1.155,2,0.723,0,0,0,0,1,,,,,,,,,
,,,,,,,,,,,,,,,second,12,28,female,L,IMT ,2021-07-09_14h41.55.735,ImageRatingTask_S1,2021.1.4,MacIntel,58.82352941,,,,,,,,,,,,,,,,,,,,,0,1,1,1,1,,,,,,,,,
,,,,,,,,,,,,,,,third,12,28,female,L,IMT ,2021-07-09_14h41.55.735,ImageRatingTask_S1,2021.1.4,MacIntel,58.82352941,,,,,,,,,,,,,,,,,,,,,0,2,2,2,1,,,,,,,,,
,,,,,,,,,,,,,,,fourth,12,28,female,L,IMT ,2021-07-09_14h41.55.735,ImageRatingTask_S1,2021.1.4,MacIntel,58.82352941,,,,,,,,,,,,,,,,,,,,,0,3,3,3,1,,,,,,,,,
,,,,,,,,,,,,,,,fifth,12,28,female,L,IMT ,2021-07-09_14h41.55.735,ImageRatingTask_S1,2021.1.4,MacIntel,58.82352941,,,,,,,,,,,,,,,,,,,,,0,4,4,4,1,,,,,,,,,
,,,,,,,,,,,,,,,sixth,12,28,female,L,IMT ,2021-07-09_14h41.55.735,ImageRatingTask_S1,2021.1.4,MacIntel,58.82352941,,,,,,,,,,,,,,,,,,,,,0,5,5,5,1,,,,,,,,,
,,,,,,,,,,,,,,,seventh,12,28,female,L,IMT ,2021-07-09_14h41.55.735,ImageRatingTask_S1,2021.1.4,MacIntel,58.82352941,,,,,,,,,,,,,,,,,,,,,0,6,6,6,1,,,,,,,,,
,,,,,,,,,,,,,,,last,12,28,female,L,IMT ,2021-07-09_14h41.55.735,ImageRatingTask_S1,2021.1.4,MacIntel,58.82352941,,,,,,,,,,,,,,,,,,,,,0,7,7,7,1,,,,,,,,,
,,,,,,,,,,,,,,,,12,28,female,L,IMT ,2021-07-09_14h41.55.735,ImageRatingTask_S1,2021.1.4,MacIntel,58.82352941,,,,,,,,,,,,,,,,,,,,,,,,,,0,54,54,159,1,DreamStudyImages_rs1000x750g/Children/Excited face 6.jpg,,,
,,,,,,,,,,,,,,,main,12,28,female,L,IMT ,2021-07-09_14h41.55.735,ImageRatingTask_S1,2021.1.4,MacIntel,58.82352941,,,,,,,,,,,7,2.061,4,2.162,9,1.154,1,1.779,8,0.806,0,0,0,0,1,,,,,,,,,
,,,,,,,,,,,,,,,second,12,28,female,L,IMT ,2021-07-09_14h41.55.735,ImageRatingTask_S1,2021.1.4,MacIntel,58.82352941,,,,,,,,,,,,,,,,,,,,,0,1,1,1,1,,,,,,,,,
,,,,,,,,,,,,,,,third,12,28,female,L,IMT ,2021-07-09_14h41.55.735,ImageRatingTask_S1,2021.1.4,MacIntel,58.82352941,,,,,,,,,,,,,,,,,,,,,0,2,2,2,1,,,,,,,,,
,,,,,,,,,,,,,,,fourth,12,28,female,L,IMT ,2021-07-09_14h41.55.735,ImageRatingTask_S1,2021.1.4,MacIntel,58.82352941,,,,,,,,,,,,,,,,,,,,,0,3,3,3,1,,,,,,,,,
,,,,,,,,,,,,,,,fifth,12,28,female,L,IMT ,2021-07-09_14h41.55.735,ImageRatingTask_S1,2021.1.4,MacIntel,58.82352941,,,,,,,,,,,,,,,,,,,,,0,4,4,4,1,,,,,,,,,
,,,,,,,,,,,,,,,sixth,12,28,female,L,IMT ,2021-07-09_14h41.55.735,ImageRatingTask_S1,2021.1.4,MacIntel,58.82352941,,,,,,,,,,,,,,,,,,,,,0,5,5,5,1,,,,,,,,,
,,,,,,,,,,,,,,,seventh,12,28,female,L,IMT ,2021-07-09_14h41.55.735,ImageRatingTask_S1,2021.1.4,MacIntel,58.82352941,,,,,,,,,,,,,,,,,,,,,0,6,6,6,1,,,,,,,,,
,,,,,,,,,,,,,,,last,12,28,female,L,IMT ,2021-07-09_14h41.55.735,ImageRatingTask_S1,2021.1.4,MacIntel,58.82352941,,,,,,,,,,,,,,,,,,,,,0,7,7,7,1,,,,,,,,,
,,,,,,,,,,,,,,,,12,28,female,L,IMT ,2021-07-09_14h41.55.735,ImageRatingTask_S1,2021.1.4,MacIntel,58.82352941,,,,,,,,,,,,,,,,,,,,,,,,,,0,55,55,63,1,DreamStudyImages_rs1000x750g/Water/fishingsunset_CROPPED.jpg,,,
,,,,,,,,,,,,,,,main,12,28,female,L,IMT ,2021-07-09_14h41.55.735,ImageRatingTask_S1,2021.1.4,MacIntel,58.82352941,,,,,,,,,,,5,2.337,1,1.107,8,1.942,1,1.415,3,0.938,0,0,0,0,1,,,,,,,,,
,,,,,,,,,,,,,,,second,12,28,female,L,IMT ,2021-07-09_14h41.55.735,ImageRatingTask_S1,2021.1.4,MacIntel,58.82352941,,,,,,,,,,,,,,,,,,,,,0,1,1,1,1,,,,,,,,,
,,,,,,,,,,,,,,,third,12,28,female,L,IMT ,2021-07-09_14h41.55.735,ImageRatingTask_S1,2021.1.4,MacIntel,58.82352941,,,,,,,,,,,,,,,,,,,,,0,2,2,2,1,,,,,,,,,
,,,,,,,,,,,,,,,fourth,12,28,female,L,IMT ,2021-07-09_14h41.55.735,ImageRatingTask_S1,2021.1.4,MacIntel,58.82352941,,,,,,,,,,,,,,,,,,,,,0,3,3,3,1,,,,,,,,,
,,,,,,,,,,,,,,,fifth,12,28,female,L,IMT ,2021-07-09_14h41.55.735,ImageRatingTask_S1,2021.1.4,MacIntel,58.82352941,,,,,,,,,,,,,,,,,,,,,0,4,4,4,1,,,,,,,,,
,,,,,,,,,,,,,,,sixth,12,28,female,L,IMT ,2021-07-09_14h41.55.735,ImageRatingTask_S1,2021.1.4,MacIntel,58.82352941,,,,,,,,,,,,,,,,,,,,,0,5,5,5,1,,,,,,,,,
,,,,,,,,,,,,,,,seventh,12,28,female,L,IMT ,2021-07-09_14h41.55.735,ImageRatingTask_S1,2021.1.4,MacIntel,58.82352941,,,,,,,,,,,,,,,,,,,,,0,6,6,6,1,,,,,,,,,
,,,,,,,,,,,,,,,last,12,28,female,L,IMT ,2021-07-09_14h41.55.735,ImageRatingTask_S1,2021.1.4,MacIntel,58.82352941,,,,,,,,,,,,,,,,,,,,,0,7,7,7,1,,,,,,,,,
,,,,,,,,,,,,,,,,12,28,female,L,IMT ,2021-07-09_14h41.55.735,ImageRatingTask_S1,2021.1.4,MacIntel,58.82352941,,,,,,,,,,,,,,,,,,,,,,,,,,0,56,56,153,1,DreamStudyImages_rs1000x750g/Mammals/Animals_121_h.jpg,,,
,,,,,,,,,,,,,,,main,12,28,female,L,IMT ,2021-07-09_14h41.55.735,ImageRatingTask_S1,2021.1.4,MacIntel,58.82352941,,,,,,,,,,,5,1.743,2,0.976,6,1.995,1,0.997,7,0.626,0,0,0,0,1,,,,,,,,,
,,,,,,,,,,,,,,,second,12,28,female,L,IMT ,2021-07-09_14h41.55.735,ImageRatingTask_S1,2021.1.4,MacIntel,58.82352941,,,,,,,,,,,,,,,,,,,,,0,1,1,1,1,,,,,,,,,
,,,,,,,,,,,,,,,third,12,28,female,L,IMT ,2021-07-09_14h41.55.735,ImageRatingTask_S1,2021.1.4,MacIntel,58.82352941,,,,,,,,,,,,,,,,,,,,,0,2,2,2,1,,,,,,,,,
,,,,,,,,,,,,,,,fourth,12,28,female,L,IMT ,2021-07-09_14h41.55.735,ImageRatingTask_S1,2021.1.4,MacIntel,58.82352941,,,,,,,,,,,,,,,,,,,,,0,3,3,3,1,,,,,,,,,
,,,,,,,,,,,,,,,fifth,12,28,female,L,IMT ,2021-07-09_14h41.55.735,ImageRatingTask_S1,2021.1.4,MacIntel,58.82352941,,,,,,,,,,,,,,,,,,,,,0,4,4,4,1,,,,,,,,,
,,,,,,,,,,,,,,,sixth,12,28,female,L,IMT ,2021-07-09_14h41.55.735,ImageRatingTask_S1,2021.1.4,MacIntel,58.82352941,,,,,,,,,,,,,,,,,,,,,0,5,5,5,1,,,,,,,,,
,,,,,,,,,,,,,,,seventh,12,28,female,L,IMT ,2021-07-09_14h41.55.735,ImageRatingTask_S1,2021.1.4,MacIntel,58.82352941,,,,,,,,,,,,,,,,,,,,,0,6,6,6,1,,,,,,,,,
,,,,,,,,,,,,,,,last,12,28,female,L,IMT ,2021-07-09_14h41.55.735,ImageRatingTask_S1,2021.1.4,MacIntel,58.82352941,,,,,,,,,,,,,,,,,,,,,0,7,7,7,1,,,,,,,,,
,,,,,,,,,,,,,,,,12,28,female,L,IMT ,2021-07-09_14h41.55.735,ImageRatingTask_S1,2021.1.4,MacIntel,58.82352941,,,,,,,,,,,,,,,,,,,,,,,,,,0,57,57,64,1,DreamStudyImages_rs1000x750g/Vehicles/bluevan.jpg,,,
,,,,,,,,,,,,,,,main,12,28,female,L,IMT ,2021-07-09_14h41.55.735,ImageRatingTask_S1,2021.1.4,MacIntel,58.82352941,,,,,,,,,,,5,3.506,2,1.432,7,1.555,1,1.522,8,0.808,0,0,0,0,1,,,,,,,,,
,,,,,,,,,,,,,,,second,12,28,female,L,IMT ,2021-07-09_14h41.55.735,ImageRatingTask_S1,2021.1.4,MacIntel,58.82352941,,,,,,,,,,,,,,,,,,,,,0,1,1,1,1,,,,,,,,,
,,,,,,,,,,,,,,,third,12,28,female,L,IMT ,2021-07-09_14h41.55.735,ImageRatingTask_S1,2021.1.4,MacIntel,58.82352941,,,,,,,,,,,,,,,,,,,,,0,2,2,2,1,,,,,,,,,
,,,,,,,,,,,,,,,fourth,12,28,female,L,IMT ,2021-07-09_14h41.55.735,ImageRatingTask_S1,2021.1.4,MacIntel,58.82352941,,,,,,,,,,,,,,,,,,,,,0,3,3,3,1,,,,,,,,,
,,,,,,,,,,,,,,,fifth,12,28,female,L,IMT ,2021-07-09_14h41.55.735,ImageRatingTask_S1,2021.1.4,MacIntel,58.82352941,,,,,,,,,,,,,,,,,,,,,0,4,4,4,1,,,,,,,,,
,,,,,,,,,,,,,,,sixth,12,28,female,L,IMT ,2021-07-09_14h41.55.735,ImageRatingTask_S1,2021.1.4,MacIntel,58.82352941,,,,,,,,,,,,,,,,,,,,,0,5,5,5,1,,,,,,,,,
,,,,,,,,,,,,,,,seventh,12,28,female,L,IMT ,2021-07-09_14h41.55.735,ImageRatingTask_S1,2021.1.4,MacIntel,58.82352941,,,,,,,,,,,,,,,,,,,,,0,6,6,6,1,,,,,,,,,
,,,,,,,,,,,,,,,last,12,28,female,L,IMT ,2021-07-09_14h41.55.735,ImageRatingTask_S1,2021.1.4,MacIntel,58.82352941,,,,,,,,,,,,,,,,,,,,,0,7,7,7,1,,,,,,,,,
,,,,,,,,,,,,,,,,12,28,female,L,IMT ,2021-07-09_14h41.55.735,ImageRatingTask_S1,2021.1.4,MacIntel,58.82352941,,,,,,,,,,,,,,,,,,,,,,,,,,0,58,58,77,1,DreamStudyImages_rs1000x750g/Water/muddywater.jpg,,,
,,,,,,,,,,,,,,,main,12,28,female,L,IMT ,2021-07-09_14h41.55.735,ImageRatingTask_S1,2021.1.4,MacIntel,58.82352941,,,,,,,,,,,5,28.083,1,0.533,6,3.165,1,1.631,6,1.525,0,0,0,0,1,,,,,,,,,
,,,,,,,,,,,,,,,second,12,28,female,L,IMT ,2021-07-09_14h41.55.735,ImageRatingTask_S1,2021.1.4,MacIntel,58.82352941,,,,,,,,,,,,,,,,,,,,,0,1,1,1,1,,,,,,,,,
,,,,,,,,,,,,,,,third,12,28,female,L,IMT ,2021-07-09_14h41.55.735,ImageRatingTask_S1,2021.1.4,MacIntel,58.82352941,,,,,,,,,,,,,,,,,,,,,0,2,2,2,1,,,,,,,,,
,,,,,,,,,,,,,,,fourth,12,28,female,L,IMT ,2021-07-09_14h41.55.735,ImageRatingTask_S1,2021.1.4,MacIntel,58.82352941,,,,,,,,,,,,,,,,,,,,,0,3,3,3,1,,,,,,,,,
,,,,,,,,,,,,,,,fifth,12,28,female,L,IMT ,2021-07-09_14h41.55.735,ImageRatingTask_S1,2021.1.4,MacIntel,58.82352941,,,,,,,,,,,,,,,,,,,,,0,4,4,4,1,,,,,,,,,
,,,,,,,,,,,,,,,sixth,12,28,female,L,IMT ,2021-07-09_14h41.55.735,ImageRatingTask_S1,2021.1.4,MacIntel,58.82352941,,,,,,,,,,,,,,,,,,,,,0,5,5,5,1,,,,,,,,,
,,,,,,,,,,,,,,,seventh,12,28,female,L,IMT ,2021-07-09_14h41.55.735,ImageRatingTask_S1,2021.1.4,MacIntel,58.82352941,,,,,,,,,,,,,,,,,,,,,0,6,6,6,1,,,,,,,,,
,,,,,,,,,,,,,,,last,12,28,female,L,IMT ,2021-07-09_14h41.55.735,ImageRatingTask_S1,2021.1.4,MacIntel,58.82352941,,,,,,,,,,,,,,,,,,,,,0,7,7,7,1,,,,,,,,,
,,,,,,,,,,,,,,,,12,28,female,L,IMT ,2021-07-09_14h41.55.735,ImageRatingTask_S1,2021.1.4,MacIntel,58.82352941,,,,,,,,,,,,,,,,,,,,,,,,,,0,59,59,125,1,DreamStudyImages_rs1000x750g/Houses/Landscapes_013_v.jpg,,,
,,,,,,,,,,,,,,,main,12,28,female,L,IMT ,2021-07-09_14h41.55.735,ImageRatingTask_S1,2021.1.4,MacIntel,58.82352941,,,,,,,,,,,6,6.689,2,1.031,7,1.457,1,1.006,2,1.424,0,0,0,0,1,,,,,,,,,
,,,,,,,,,,,,,,,second,12,28,female,L,IMT ,2021-07-09_14h41.55.735,ImageRatingTask_S1,2021.1.4,MacIntel,58.82352941,,,,,,,,,,,,,,,,,,,,,0,1,1,1,1,,,,,,,,,
,,,,,,,,,,,,,,,third,12,28,female,L,IMT ,2021-07-09_14h41.55.735,ImageRatingTask_S1,2021.1.4,MacIntel,58.82352941,,,,,,,,,,,,,,,,,,,,,0,2,2,2,1,,,,,,,,,
,,,,,,,,,,,,,,,fourth,12,28,female,L,IMT ,2021-07-09_14h41.55.735,ImageRatingTask_S1,2021.1.4,MacIntel,58.82352941,,,,,,,,,,,,,,,,,,,,,0,3,3,3,1,,,,,,,,,
,,,,,,,,,,,,,,,fifth,12,28,female,L,IMT ,2021-07-09_14h41.55.735,ImageRatingTask_S1,2021.1.4,MacIntel,58.82352941,,,,,,,,,,,,,,,,,,,,,0,4,4,4,1,,,,,,,,,
,,,,,,,,,,,,,,,sixth,12,28,female,L,IMT ,2021-07-09_14h41.55.735,ImageRatingTask_S1,2021.1.4,MacIntel,58.82352941,,,,,,,,,,,,,,,,,,,,,0,5,5,5,1,,,,,,,,,
,,,,,,,,,,,,,,,seventh,12,28,female,L,IMT ,2021-07-09_14h41.55.735,ImageRatingTask_S1,2021.1.4,MacIntel,58.82352941,,,,,,,,,,,,,,,,,,,,,0,6,6,6,1,,,,,,,,,
,,,,,,,,,,,,,,,last,12,28,female,L,IMT ,2021-07-09_14h41.55.735,ImageRatingTask_S1,2021.1.4,MacIntel,58.82352941,,,,,,,,,,,,,,,,,,,,,0,7,7,7,1,,,,,,,,,
,,,,,,,,,,,,,,,,12,28,female,L,IMT ,2021-07-09_14h41.55.735,ImageRatingTask_S1,2021.1.4,MacIntel,58.82352941,,,,,,,,,,,,,,,,,,,,,,,,,,0,60,60,151,1,DreamStudyImages_rs1000x750g/Children/People_049_h.jpg,,,
,,,,,,,,,,,,,,,main,12,28,female,L,IMT ,2021-07-09_14h41.55.735,ImageRatingTask_S1,2021.1.4,MacIntel,58.82352941,,,,,,,,,,,6,3.675,2,0.725,7,2.848,1,0.944,2,1.28,0,0,0,0,1,,,,,,,,,
,,,,,,,,,,,,,,,second,12,28,female,L,IMT ,2021-07-09_14h41.55.735,ImageRatingTask_S1,2021.1.4,MacIntel,58.82352941,,,,,,,,,,,,,,,,,,,,,0,1,1,1,1,,,,,,,,,
,,,,,,,,,,,,,,,third,12,28,female,L,IMT ,2021-07-09_14h41.55.735,ImageRatingTask_S1,2021.1.4,MacIntel,58.82352941,,,,,,,,,,,,,,,,,,,,,0,2,2,2,1,,,,,,,,,
,,,,,,,,,,,,,,,fourth,12,28,female,L,IMT ,2021-07-09_14h41.55.735,ImageRatingTask_S1,2021.1.4,MacIntel,58.82352941,,,,,,,,,,,,,,,,,,,,,0,3,3,3,1,,,,,,,,,
,,,,,,,,,,,,,,,fifth,12,28,female,L,IMT ,2021-07-09_14h41.55.735,ImageRatingTask_S1,2021.1.4,MacIntel,58.82352941,,,,,,,,,,,,,,,,,,,,,0,4,4,4,1,,,,,,,,,
,,,,,,,,,,,,,,,sixth,12,28,female,L,IMT ,2021-07-09_14h41.55.735,ImageRatingTask_S1,2021.1.4,MacIntel,58.82352941,,,,,,,,,,,,,,,,,,,,,0,5,5,5,1,,,,,,,,,
,,,,,,,,,,,,,,,seventh,12,28,female,L,IMT ,2021-07-09_14h41.55.735,ImageRatingTask_S1,2021.1.4,MacIntel,58.82352941,,,,,,,,,,,,,,,,,,,,,0,6,6,6,1,,,,,,,,,
