slider_pre.response,slider_pre.rt,key_val.keys,key_val.rt,key_aro.keys,key_aro.rt,key_qual.keys,key_qual.rt,key_ncat.keys,key_ncat.rt,key_cats.keys,key_cats.rt,ncat_order.thisRepN,ncat_order.thisTrialN,ncat_order.thisN,ncat_order.thisIndex,ncat_order.ran,cond_cat,participant,age,gender,handedness (L/R),site (IMT/Donders),date,expName,psychopyVersion,OS,frameRate,img_trials.thisRepN,img_trials.thisTrialN,img_trials.thisN,img_trials.thisIndex,img_trials.ran,filename,slider_post.response,slider_post.rt,textbox_openfb.text
6,18.467,5,10.711,1,1.005,7,1.65,1,1.124,8,0.734,0,0,0,0,1,main,12,28,female,L,IMT ,2021-07-12_08h43.10.951,ImageRatingTask_S3,2021.1.4,MacIntel,62.5,,,,,,,,,
,,,,,,,,,,,,0,1,1,1,1,second,12,28,female,L,IMT ,2021-07-12_08h43.10.951,ImageRatingTask_S3,2021.1.4,MacIntel,62.5,,,,,,,,,
,,,,,,,,,,,,0,2,2,2,1,third,12,28,female,L,IMT ,2021-07-12_08h43.10.951,ImageRatingTask_S3,2021.1.4,MacIntel,62.5,,,,,,,,,
,,,,,,,,,,,,0,3,3,3,1,fourth,12,28,female,L,IMT ,2021-07-12_08h43.10.951,ImageRatingTask_S3,2021.1.4,MacIntel,62.5,,,,,,,,,
,,,,,,,,,,,,0,4,4,4,1,fifth,12,28,female,L,IMT ,2021-07-12_08h43.10.951,ImageRatingTask_S3,2021.1.4,MacIntel,62.5,,,,,,,,,
,,,,,,,,,,,,0,5,5,5,1,sixth,12,28,female,L,IMT ,2021-07-12_08h43.10.951,ImageRatingTask_S3,2021.1.4,MacIntel,62.5,,,,,,,,,
,,,,,,,,,,,,0,6,6,6,1,seventh,12,28,female,L,IMT ,2021-07-12_08h43.10.951,ImageRatingTask_S3,2021.1.4,MacIntel,62.5,,,,,,,,,
,,,,,,,,,,,,0,7,7,7,1,last,12,28,female,L,IMT ,2021-07-12_08h43.10.951,ImageRatingTask_S3,2021.1.4,MacIntel,62.5,,,,,,,,,
,,,,,,,,,,,,,,,,,,12,28,female,L,IMT ,2021-07-12_08h43.10.951,ImageRatingTask_S3,2021.1.4,MacIntel,62.5,0,0,0,0,1,DreamStudyImages_rs1000x750g/Water/Landscapes_145_h.jpg,,,
,,6,2.075,1,0.724,7,1.863,1,1.247,5,0.353,0,0,0,0,1,main,12,28,female,L,IMT ,2021-07-12_08h43.10.951,ImageRatingTask_S3,2021.1.4,MacIntel,62.5,,,,,,,,,
,,,,,,,,,,,,0,1,1,1,1,second,12,28,female,L,IMT ,2021-07-12_08h43.10.951,ImageRatingTask_S3,2021.1.4,MacIntel,62.5,,,,,,,,,
,,,,,,,,,,,,0,2,2,2,1,third,12,28,female,L,IMT ,2021-07-12_08h43.10.951,ImageRatingTask_S3,2021.1.4,MacIntel,62.5,,,,,,,,,
,,,,,,,,,,,,0,3,3,3,1,fourth,12,28,female,L,IMT ,2021-07-12_08h43.10.951,ImageRatingTask_S3,2021.1.4,MacIntel,62.5,,,,,,,,,
,,,,,,,,,,,,0,4,4,4,1,fifth,12,28,female,L,IMT ,2021-07-12_08h43.10.951,ImageRatingTask_S3,2021.1.4,MacIntel,62.5,,,,,,,,,
,,,,,,,,,,,,0,5,5,5,1,sixth,12,28,female,L,IMT ,2021-07-12_08h43.10.951,ImageRatingTask_S3,2021.1.4,MacIntel,62.5,,,,,,,,,
,,,,,,,,,,,,0,6,6,6,1,seventh,12,28,female,L,IMT ,2021-07-12_08h43.10.951,ImageRatingTask_S3,2021.1.4,MacIntel,62.5,,,,,,,,,
,,,,,,,,,,,,0,7,7,7,1,last,12,28,female,L,IMT ,2021-07-12_08h43.10.951,ImageRatingTask_S3,2021.1.4,MacIntel,62.5,,,,,,,,,
,,,,,,,,,,,,,,,,,,12,28,female,L,IMT ,2021-07-12_08h43.10.951,ImageRatingTask_S3,2021.1.4,MacIntel,62.5,0,1,1,74,1,DreamStudyImages_rs1000x750g/Food/Objects_067_h.jpg,,,
,,6,3.02,1,0.656,6,1.496,1,1.281,6,0.669,0,0,0,0,1,main,12,28,female,L,IMT ,2021-07-12_08h43.10.951,ImageRatingTask_S3,2021.1.4,MacIntel,62.5,,,,,,,,,
,,,,,,,,,,,,0,1,1,1,1,second,12,28,female,L,IMT ,2021-07-12_08h43.10.951,ImageRatingTask_S3,2021.1.4,MacIntel,62.5,,,,,,,,,
,,,,,,,,,,,,0,2,2,2,1,third,12,28,female,L,IMT ,2021-07-12_08h43.10.951,ImageRatingTask_S3,2021.1.4,MacIntel,62.5,,,,,,,,,
,,,,,,,,,,,,0,3,3,3,1,fourth,12,28,female,L,IMT ,2021-07-12_08h43.10.951,ImageRatingTask_S3,2021.1.4,MacIntel,62.5,,,,,,,,,
,,,,,,,,,,,,0,4,4,4,1,fifth,12,28,female,L,IMT ,2021-07-12_08h43.10.951,ImageRatingTask_S3,2021.1.4,MacIntel,62.5,,,,,,,,,
,,,,,,,,,,,,0,5,5,5,1,sixth,12,28,female,L,IMT ,2021-07-12_08h43.10.951,ImageRatingTask_S3,2021.1.4,MacIntel,62.5,,,,,,,,,
,,,,,,,,,,,,0,6,6,6,1,seventh,12,28,female,L,IMT ,2021-07-12_08h43.10.951,ImageRatingTask_S3,2021.1.4,MacIntel,62.5,,,,,,,,,
,,,,,,,,,,,,0,7,7,7,1,last,12,28,female,L,IMT ,2021-07-12_08h43.10.951,ImageRatingTask_S3,2021.1.4,MacIntel,62.5,,,,,,,,,
,,,,,,,,,,,,,,,,,,12,28,female,L,IMT ,2021-07-12_08h43.10.951,ImageRatingTask_S3,2021.1.4,MacIntel,62.5,0,2,2,84,1,DreamStudyImages_rs1000x750g/Houses/7530.jpg,,,
,,7,1.233,3,0.873,6,2.329,1,1.191,3,0.31,0,0,0,0,1,main,12,28,female,L,IMT ,2021-07-12_08h43.10.951,ImageRatingTask_S3,2021.1.4,MacIntel,62.5,,,,,,,,,
,,,,,,,,,,,,0,1,1,1,1,second,12,28,female,L,IMT ,2021-07-12_08h43.10.951,ImageRatingTask_S3,2021.1.4,MacIntel,62.5,,,,,,,,,
,,,,,,,,,,,,0,2,2,2,1,third,12,28,female,L,IMT ,2021-07-12_08h43.10.951,ImageRatingTask_S3,2021.1.4,MacIntel,62.5,,,,,,,,,
,,,,,,,,,,,,0,3,3,3,1,fourth,12,28,female,L,IMT ,2021-07-12_08h43.10.951,ImageRatingTask_S3,2021.1.4,MacIntel,62.5,,,,,,,,,
,,,,,,,,,,,,0,4,4,4,1,fifth,12,28,female,L,IMT ,2021-07-12_08h43.10.951,ImageRatingTask_S3,2021.1.4,MacIntel,62.5,,,,,,,,,
,,,,,,,,,,,,0,5,5,5,1,sixth,12,28,female,L,IMT ,2021-07-12_08h43.10.951,ImageRatingTask_S3,2021.1.4,MacIntel,62.5,,,,,,,,,
,,,,,,,,,,,,0,6,6,6,1,seventh,12,28,female,L,IMT ,2021-07-12_08h43.10.951,ImageRatingTask_S3,2021.1.4,MacIntel,62.5,,,,,,,,,
,,,,,,,,,,,,0,7,7,7,1,last,12,28,female,L,IMT ,2021-07-12_08h43.10.951,ImageRatingTask_S3,2021.1.4,MacIntel,62.5,,,,,,,,,
,,,,,,,,,,,,,,,,,,12,28,female,L,IMT ,2021-07-12_08h43.10.951,ImageRatingTask_S3,2021.1.4,MacIntel,62.5,0,3,3,104,1,DreamStudyImages_rs1000x750g/Mammals/Wolf 1.jpg,,,
,,6,1.675,1,0.812,1,1.897,1,2.905,8,0.898,0,0,0,0,1,main,12,28,female,L,IMT ,2021-07-12_08h43.10.951,ImageRatingTask_S3,2021.1.4,MacIntel,62.5,,,,,,,,,
,,,,,,,,,,,,0,1,1,1,1,second,12,28,female,L,IMT ,2021-07-12_08h43.10.951,ImageRatingTask_S3,2021.1.4,MacIntel,62.5,,,,,,,,,
,,,,,,,,,,,,0,2,2,2,1,third,12,28,female,L,IMT ,2021-07-12_08h43.10.951,ImageRatingTask_S3,2021.1.4,MacIntel,62.5,,,,,,,,,
,,,,,,,,,,,,0,3,3,3,1,fourth,12,28,female,L,IMT ,2021-07-12_08h43.10.951,ImageRatingTask_S3,2021.1.4,MacIntel,62.5,,,,,,,,,
,,,,,,,,,,,,0,4,4,4,1,fifth,12,28,female,L,IMT ,2021-07-12_08h43.10.951,ImageRatingTask_S3,2021.1.4,MacIntel,62.5,,,,,,,,,
,,,,,,,,,,,,0,5,5,5,1,sixth,12,28,female,L,IMT ,2021-07-12_08h43.10.951,ImageRatingTask_S3,2021.1.4,MacIntel,62.5,,,,,,,,,
,,,,,,,,,,,,0,6,6,6,1,seventh,12,28,female,L,IMT ,2021-07-12_08h43.10.951,ImageRatingTask_S3,2021.1.4,MacIntel,62.5,,,,,,,,,
,,,,,,,,,,,,0,7,7,7,1,last,12,28,female,L,IMT ,2021-07-12_08h43.10.951,ImageRatingTask_S3,2021.1.4,MacIntel,62.5,,,,,,,,,
,,,,,,,,,,,,,,,,,,12,28,female,L,IMT ,2021-07-12_08h43.10.951,ImageRatingTask_S3,2021.1.4,MacIntel,62.5,0,4,4,111,1,DreamStudyImages_rs1000x750g/Water/NDPS123_mineralwaterformation.jpg,,,
,,6,2.22,3,0.853,6,3.287,1,4.063,5,0.416,0,0,0,0,1,main,12,28,female,L,IMT ,2021-07-12_08h43.10.951,ImageRatingTask_S3,2021.1.4,MacIntel,62.5,,,,,,,,,
,,,,,,,,,,,,0,1,1,1,1,second,12,28,female,L,IMT ,2021-07-12_08h43.10.951,ImageRatingTask_S3,2021.1.4,MacIntel,62.5,,,,,,,,,
,,,,,,,,,,,,0,2,2,2,1,third,12,28,female,L,IMT ,2021-07-12_08h43.10.951,ImageRatingTask_S3,2021.1.4,MacIntel,62.5,,,,,,,,,
,,,,,,,,,,,,0,3,3,3,1,fourth,12,28,female,L,IMT ,2021-07-12_08h43.10.951,ImageRatingTask_S3,2021.1.4,MacIntel,62.5,,,,,,,,,
,,,,,,,,,,,,0,4,4,4,1,fifth,12,28,female,L,IMT ,2021-07-12_08h43.10.951,ImageRatingTask_S3,2021.1.4,MacIntel,62.5,,,,,,,,,
,,,,,,,,,,,,0,5,5,5,1,sixth,12,28,female,L,IMT ,2021-07-12_08h43.10.951,ImageRatingTask_S3,2021.1.4,MacIntel,62.5,,,,,,,,,
,,,,,,,,,,,,0,6,6,6,1,seventh,12,28,female,L,IMT ,2021-07-12_08h43.10.951,ImageRatingTask_S3,2021.1.4,MacIntel,62.5,,,,,,,,,
,,,,,,,,,,,,0,7,7,7,1,last,12,28,female,L,IMT ,2021-07-12_08h43.10.951,ImageRatingTask_S3,2021.1.4,MacIntel,62.5,,,,,,,,,
,,,,,,,,,,,,,,,,,,12,28,female,L,IMT ,2021-07-12_08h43.10.951,ImageRatingTask_S3,2021.1.4,MacIntel,62.5,0,5,5,132,1,DreamStudyImages_rs1000x750g/Food/Objects_081_h.jpg,,,
,,5,5.727,1,0.5,5,2.545,1,1.171,5,0.691,0,0,0,0,1,main,12,28,female,L,IMT ,2021-07-12_08h43.10.951,ImageRatingTask_S3,2021.1.4,MacIntel,62.5,,,,,,,,,
,,,,,,,,,,,,0,1,1,1,1,second,12,28,female,L,IMT ,2021-07-12_08h43.10.951,ImageRatingTask_S3,2021.1.4,MacIntel,62.5,,,,,,,,,
,,,,,,,,,,,,0,2,2,2,1,third,12,28,female,L,IMT ,2021-07-12_08h43.10.951,ImageRatingTask_S3,2021.1.4,MacIntel,62.5,,,,,,,,,
,,,,,,,,,,,,0,3,3,3,1,fourth,12,28,female,L,IMT ,2021-07-12_08h43.10.951,ImageRatingTask_S3,2021.1.4,MacIntel,62.5,,,,,,,,,
,,,,,,,,,,,,0,4,4,4,1,fifth,12,28,female,L,IMT ,2021-07-12_08h43.10.951,ImageRatingTask_S3,2021.1.4,MacIntel,62.5,,,,,,,,,
,,,,,,,,,,,,0,5,5,5,1,sixth,12,28,female,L,IMT ,2021-07-12_08h43.10.951,ImageRatingTask_S3,2021.1.4,MacIntel,62.5,,,,,,,,,
,,,,,,,,,,,,0,6,6,6,1,seventh,12,28,female,L,IMT ,2021-07-12_08h43.10.951,ImageRatingTask_S3,2021.1.4,MacIntel,62.5,,,,,,,,,
,,,,,,,,,,,,0,7,7,7,1,last,12,28,female,L,IMT ,2021-07-12_08h43.10.951,ImageRatingTask_S3,2021.1.4,MacIntel,62.5,,,,,,,,,
,,,,,,,,,,,,,,,,,,12,28,female,L,IMT ,2021-07-12_08h43.10.951,ImageRatingTask_S3,2021.1.4,MacIntel,62.5,0,6,6,31,1,DreamStudyImages_rs1000x750g/Food/Food 6.jpg,,,
,,5,81.085,1,0.362,6,1.966,1,1.018,5,0.995,0,0,0,0,1,main,12,28,female,L,IMT ,2021-07-12_08h43.10.951,ImageRatingTask_S3,2021.1.4,MacIntel,62.5,,,,,,,,,
,,,,,,,,,,,,0,1,1,1,1,second,12,28,female,L,IMT ,2021-07-12_08h43.10.951,ImageRatingTask_S3,2021.1.4,MacIntel,62.5,,,,,,,,,
,,,,,,,,,,,,0,2,2,2,1,third,12,28,female,L,IMT ,2021-07-12_08h43.10.951,ImageRatingTask_S3,2021.1.4,MacIntel,62.5,,,,,,,,,
,,,,,,,,,,,,0,3,3,3,1,fourth,12,28,female,L,IMT ,2021-07-12_08h43.10.951,ImageRatingTask_S3,2021.1.4,MacIntel,62.5,,,,,,,,,
,,,,,,,,,,,,0,4,4,4,1,fifth,12,28,female,L,IMT ,2021-07-12_08h43.10.951,ImageRatingTask_S3,2021.1.4,MacIntel,62.5,,,,,,,,,
,,,,,,,,,,,,0,5,5,5,1,sixth,12,28,female,L,IMT ,2021-07-12_08h43.10.951,ImageRatingTask_S3,2021.1.4,MacIntel,62.5,,,,,,,,,
,,,,,,,,,,,,0,6,6,6,1,seventh,12,28,female,L,IMT ,2021-07-12_08h43.10.951,ImageRatingTask_S3,2021.1.4,MacIntel,62.5,,,,,,,,,
,,,,,,,,,,,,0,7,7,7,1,last,12,28,female,L,IMT ,2021-07-12_08h43.10.951,ImageRatingTask_S3,2021.1.4,MacIntel,62.5,,,,,,,,,
,,,,,,,,,,,,,,,,,,12,28,female,L,IMT ,2021-07-12_08h43.10.951,ImageRatingTask_S3,2021.1.4,MacIntel,62.5,0,7,7,103,1,DreamStudyImages_rs1000x750g/Mammals/Pig 1.jpg,,,
,,8,2.551,4,1.839,6,2.699,1,1.491,3,0.617,0,0,0,0,1,main,12,28,female,L,IMT ,2021-07-12_08h43.10.951,ImageRatingTask_S3,2021.1.4,MacIntel,62.5,,,,,,,,,
,,,,,,,,,,,,0,1,1,1,1,second,12,28,female,L,IMT ,2021-07-12_08h43.10.951,ImageRatingTask_S3,2021.1.4,MacIntel,62.5,,,,,,,,,
,,,,,,,,,,,,0,2,2,2,1,third,12,28,female,L,IMT ,2021-07-12_08h43.10.951,ImageRatingTask_S3,2021.1.4,MacIntel,62.5,,,,,,,,,
,,,,,,,,,,,,0,3,3,3,1,fourth,12,28,female,L,IMT ,2021-07-12_08h43.10.951,ImageRatingTask_S3,2021.1.4,MacIntel,62.5,,,,,,,,,
,,,,,,,,,,,,0,4,4,4,1,fifth,12,28,female,L,IMT ,2021-07-12_08h43.10.951,ImageRatingTask_S3,2021.1.4,MacIntel,62.5,,,,,,,,,
,,,,,,,,,,,,0,5,5,5,1,sixth,12,28,female,L,IMT ,2021-07-12_08h43.10.951,ImageRatingTask_S3,2021.1.4,MacIntel,62.5,,,,,,,,,
,,,,,,,,,,,,0,6,6,6,1,seventh,12,28,female,L,IMT ,2021-07-12_08h43.10.951,ImageRatingTask_S3,2021.1.4,MacIntel,62.5,,,,,,,,,
,,,,,,,,,,,,0,7,7,7,1,last,12,28,female,L,IMT ,2021-07-12_08h43.10.951,ImageRatingTask_S3,2021.1.4,MacIntel,62.5,,,,,,,,,
,,,,,,,,,,,,,,,,,,12,28,female,L,IMT ,2021-07-12_08h43.10.951,ImageRatingTask_S3,2021.1.4,MacIntel,62.5,0,8,8,40,1,DreamStudyImages_rs1000x750g/Mammals/IAPS1460_babycat.jpg,,,
,,5,6.564,1,0.453,5,1.505,0,2.437,,,0,0,0,0,1,main,12,28,female,L,IMT ,2021-07-12_08h43.10.951,ImageRatingTask_S3,2021.1.4,MacIntel,62.5,,,,,,,,,
,,,,,,,,,,,,0,1,1,1,1,second,12,28,female,L,IMT ,2021-07-12_08h43.10.951,ImageRatingTask_S3,2021.1.4,MacIntel,62.5,,,,,,,,,
,,,,,,,,,,,,0,2,2,2,1,third,12,28,female,L,IMT ,2021-07-12_08h43.10.951,ImageRatingTask_S3,2021.1.4,MacIntel,62.5,,,,,,,,,
,,,,,,,,,,,,0,3,3,3,1,fourth,12,28,female,L,IMT ,2021-07-12_08h43.10.951,ImageRatingTask_S3,2021.1.4,MacIntel,62.5,,,,,,,,,
,,,,,,,,,,,,0,4,4,4,1,fifth,12,28,female,L,IMT ,2021-07-12_08h43.10.951,ImageRatingTask_S3,2021.1.4,MacIntel,62.5,,,,,,,,,
,,,,,,,,,,,,0,5,5,5,1,sixth,12,28,female,L,IMT ,2021-07-12_08h43.10.951,ImageRatingTask_S3,2021.1.4,MacIntel,62.5,,,,,,,,,
,,,,,,,,,,,,0,6,6,6,1,seventh,12,28,female,L,IMT ,2021-07-12_08h43.10.951,ImageRatingTask_S3,2021.1.4,MacIntel,62.5,,,,,,,,,
,,,,,,,,,,,,0,7,7,7,1,last,12,28,female,L,IMT ,2021-07-12_08h43.10.951,ImageRatingTask_S3,2021.1.4,MacIntel,62.5,,,,,,,,,
,,,,,,,,,,,,,,,,,,12,28,female,L,IMT ,2021-07-12_08h43.10.951,ImageRatingTask_S3,2021.1.4,MacIntel,62.5,0,9,9,116,1,DreamStudyImages_rs1000x750g/Houses/Jail 5.jpg,,,
,,7,1.921,1,0.792,5,1.169,1,0.939,8,1.002,0,0,0,0,1,main,12,28,female,L,IMT ,2021-07-12_08h43.10.951,ImageRatingTask_S3,2021.1.4,MacIntel,62.5,,,,,,,,,
,,,,,,,,,,,,0,1,1,1,1,second,12,28,female,L,IMT ,2021-07-12_08h43.10.951,ImageRatingTask_S3,2021.1.4,MacIntel,62.5,,,,,,,,,
,,,,,,,,,,,,0,2,2,2,1,third,12,28,female,L,IMT ,2021-07-12_08h43.10.951,ImageRatingTask_S3,2021.1.4,MacIntel,62.5,,,,,,,,,
,,,,,,,,,,,,0,3,3,3,1,fourth,12,28,female,L,IMT ,2021-07-12_08h43.10.951,ImageRatingTask_S3,2021.1.4,MacIntel,62.5,,,,,,,,,
,,,,,,,,,,,,0,4,4,4,1,fifth,12,28,female,L,IMT ,2021-07-12_08h43.10.951,ImageRatingTask_S3,2021.1.4,MacIntel,62.5,,,,,,,,,
,,,,,,,,,,,,0,5,5,5,1,sixth,12,28,female,L,IMT ,2021-07-12_08h43.10.951,ImageRatingTask_S3,2021.1.4,MacIntel,62.5,,,,,,,,,
,,,,,,,,,,,,0,6,6,6,1,seventh,12,28,female,L,IMT ,2021-07-12_08h43.10.951,ImageRatingTask_S3,2021.1.4,MacIntel,62.5,,,,,,,,,
,,,,,,,,,,,,0,7,7,7,1,last,12,28,female,L,IMT ,2021-07-12_08h43.10.951,ImageRatingTask_S3,2021.1.4,MacIntel,62.5,,,,,,,,,
,,,,,,,,,,,,,,,,,,12,28,female,L,IMT ,2021-07-12_08h43.10.951,ImageRatingTask_S3,2021.1.4,MacIntel,62.5,0,10,10,3,1,DreamStudyImages_rs1000x750g/Water/Lake 13.jpg,,,
,,7,1.6,2,0.698,7,1.582,1,0.789,8,0.726,0,0,0,0,1,main,12,28,female,L,IMT ,2021-07-12_08h43.10.951,ImageRatingTask_S3,2021.1.4,MacIntel,62.5,,,,,,,,,
,,,,,,,,,,,,0,1,1,1,1,second,12,28,female,L,IMT ,2021-07-12_08h43.10.951,ImageRatingTask_S3,2021.1.4,MacIntel,62.5,,,,,,,,,
,,,,,,,,,,,,0,2,2,2,1,third,12,28,female,L,IMT ,2021-07-12_08h43.10.951,ImageRatingTask_S3,2021.1.4,MacIntel,62.5,,,,,,,,,
,,,,,,,,,,,,0,3,3,3,1,fourth,12,28,female,L,IMT ,2021-07-12_08h43.10.951,ImageRatingTask_S3,2021.1.4,MacIntel,62.5,,,,,,,,,
,,,,,,,,,,,,0,4,4,4,1,fifth,12,28,female,L,IMT ,2021-07-12_08h43.10.951,ImageRatingTask_S3,2021.1.4,MacIntel,62.5,,,,,,,,,
,,,,,,,,,,,,0,5,5,5,1,sixth,12,28,female,L,IMT ,2021-07-12_08h43.10.951,ImageRatingTask_S3,2021.1.4,MacIntel,62.5,,,,,,,,,
,,,,,,,,,,,,0,6,6,6,1,seventh,12,28,female,L,IMT ,2021-07-12_08h43.10.951,ImageRatingTask_S3,2021.1.4,MacIntel,62.5,,,,,,,,,
,,,,,,,,,,,,0,7,7,7,1,last,12,28,female,L,IMT ,2021-07-12_08h43.10.951,ImageRatingTask_S3,2021.1.4,MacIntel,62.5,,,,,,,,,
,,,,,,,,,,,,,,,,,,12,28,female,L,IMT ,2021-07-12_08h43.10.951,ImageRatingTask_S3,2021.1.4,MacIntel,62.5,0,11,11,16,1,DreamStudyImages_rs1000x750g/Water/Lake 7.jpg,,,
,,6,1.224,1,0.48,8,1.596,1,0.841,2,0.243,0,0,0,0,1,main,12,28,female,L,IMT ,2021-07-12_08h43.10.951,ImageRatingTask_S3,2021.1.4,MacIntel,62.5,,,,,,,,,
,,,,,,,,,,,,0,1,1,1,1,second,12,28,female,L,IMT ,2021-07-12_08h43.10.951,ImageRatingTask_S3,2021.1.4,MacIntel,62.5,,,,,,,,,
,,,,,,,,,,,,0,2,2,2,1,third,12,28,female,L,IMT ,2021-07-12_08h43.10.951,ImageRatingTask_S3,2021.1.4,MacIntel,62.5,,,,,,,,,
,,,,,,,,,,,,0,3,3,3,1,fourth,12,28,female,L,IMT ,2021-07-12_08h43.10.951,ImageRatingTask_S3,2021.1.4,MacIntel,62.5,,,,,,,,,
,,,,,,,,,,,,0,4,4,4,1,fifth,12,28,female,L,IMT ,2021-07-12_08h43.10.951,ImageRatingTask_S3,2021.1.4,MacIntel,62.5,,,,,,,,,
,,,,,,,,,,,,0,5,5,5,1,sixth,12,28,female,L,IMT ,2021-07-12_08h43.10.951,ImageRatingTask_S3,2021.1.4,MacIntel,62.5,,,,,,,,,
,,,,,,,,,,,,0,6,6,6,1,seventh,12,28,female,L,IMT ,2021-07-12_08h43.10.951,ImageRatingTask_S3,2021.1.4,MacIntel,62.5,,,,,,,,,
,,,,,,,,,,,,0,7,7,7,1,last,12,28,female,L,IMT ,2021-07-12_08h43.10.951,ImageRatingTask_S3,2021.1.4,MacIntel,62.5,,,,,,,,,
,,,,,,,,,,,,,,,,,,12,28,female,L,IMT ,2021-07-12_08h43.10.951,ImageRatingTask_S3,2021.1.4,MacIntel,62.5,0,12,12,69,1,DreamStudyImages_rs1000x750g/Children/Faces_124_h.jpg,,,
,,6,1.492,2,0.614,5,1.484,1,0.839,5,0.876,0,0,0,0,1,main,12,28,female,L,IMT ,2021-07-12_08h43.10.951,ImageRatingTask_S3,2021.1.4,MacIntel,62.5,,,,,,,,,
,,,,,,,,,,,,0,1,1,1,1,second,12,28,female,L,IMT ,2021-07-12_08h43.10.951,ImageRatingTask_S3,2021.1.4,MacIntel,62.5,,,,,,,,,
,,,,,,,,,,,,0,2,2,2,1,third,12,28,female,L,IMT ,2021-07-12_08h43.10.951,ImageRatingTask_S3,2021.1.4,MacIntel,62.5,,,,,,,,,
,,,,,,,,,,,,0,3,3,3,1,fourth,12,28,female,L,IMT ,2021-07-12_08h43.10.951,ImageRatingTask_S3,2021.1.4,MacIntel,62.5,,,,,,,,,
,,,,,,,,,,,,0,4,4,4,1,fifth,12,28,female,L,IMT ,2021-07-12_08h43.10.951,ImageRatingTask_S3,2021.1.4,MacIntel,62.5,,,,,,,,,
,,,,,,,,,,,,0,5,5,5,1,sixth,12,28,female,L,IMT ,2021-07-12_08h43.10.951,ImageRatingTask_S3,2021.1.4,MacIntel,62.5,,,,,,,,,
,,,,,,,,,,,,0,6,6,6,1,seventh,12,28,female,L,IMT ,2021-07-12_08h43.10.951,ImageRatingTask_S3,2021.1.4,MacIntel,62.5,,,,,,,,,
,,,,,,,,,,,,0,7,7,7,1,last,12,28,female,L,IMT ,2021-07-12_08h43.10.951,ImageRatingTask_S3,2021.1.4,MacIntel,62.5,,,,,,,,,
,,,,,,,,,,,,,,,,,,12,28,female,L,IMT ,2021-07-12_08h43.10.951,ImageRatingTask_S3,2021.1.4,MacIntel,62.5,0,13,13,35,1,DreamStudyImages_rs1000x750g/Food/Dessert 6.jpg,,,
,,7,1.785,3,0.889,8,2.279,1,0.828,3,0.646,0,0,0,0,1,main,12,28,female,L,IMT ,2021-07-12_08h43.10.951,ImageRatingTask_S3,2021.1.4,MacIntel,62.5,,,,,,,,,
,,,,,,,,,,,,0,1,1,1,1,second,12,28,female,L,IMT ,2021-07-12_08h43.10.951,ImageRatingTask_S3,2021.1.4,MacIntel,62.5,,,,,,,,,
,,,,,,,,,,,,0,2,2,2,1,third,12,28,female,L,IMT ,2021-07-12_08h43.10.951,ImageRatingTask_S3,2021.1.4,MacIntel,62.5,,,,,,,,,
,,,,,,,,,,,,0,3,3,3,1,fourth,12,28,female,L,IMT ,2021-07-12_08h43.10.951,ImageRatingTask_S3,2021.1.4,MacIntel,62.5,,,,,,,,,
,,,,,,,,,,,,0,4,4,4,1,fifth,12,28,female,L,IMT ,2021-07-12_08h43.10.951,ImageRatingTask_S3,2021.1.4,MacIntel,62.5,,,,,,,,,
,,,,,,,,,,,,0,5,5,5,1,sixth,12,28,female,L,IMT ,2021-07-12_08h43.10.951,ImageRatingTask_S3,2021.1.4,MacIntel,62.5,,,,,,,,,
,,,,,,,,,,,,0,6,6,6,1,seventh,12,28,female,L,IMT ,2021-07-12_08h43.10.951,ImageRatingTask_S3,2021.1.4,MacIntel,62.5,,,,,,,,,
,,,,,,,,,,,,0,7,7,7,1,last,12,28,female,L,IMT ,2021-07-12_08h43.10.951,ImageRatingTask_S3,2021.1.4,MacIntel,62.5,,,,,,,,,
,,,,,,,,,,,,,,,,,,12,28,female,L,IMT ,2021-07-12_08h43.10.951,ImageRatingTask_S3,2021.1.4,MacIntel,62.5,0,14,14,151,1,DreamStudyImages_rs1000x750g/Mammals/Animals_178_v.jpg,,,
,,5,1.399,1,0.504,6,1.463,1,0.644,7,0.615,0,0,0,0,1,main,12,28,female,L,IMT ,2021-07-12_08h43.10.951,ImageRatingTask_S3,2021.1.4,MacIntel,62.5,,,,,,,,,
,,,,,,,,,,,,0,1,1,1,1,second,12,28,female,L,IMT ,2021-07-12_08h43.10.951,ImageRatingTask_S3,2021.1.4,MacIntel,62.5,,,,,,,,,
,,,,,,,,,,,,0,2,2,2,1,third,12,28,female,L,IMT ,2021-07-12_08h43.10.951,ImageRatingTask_S3,2021.1.4,MacIntel,62.5,,,,,,,,,
,,,,,,,,,,,,0,3,3,3,1,fourth,12,28,female,L,IMT ,2021-07-12_08h43.10.951,ImageRatingTask_S3,2021.1.4,MacIntel,62.5,,,,,,,,,
,,,,,,,,,,,,0,4,4,4,1,fifth,12,28,female,L,IMT ,2021-07-12_08h43.10.951,ImageRatingTask_S3,2021.1.4,MacIntel,62.5,,,,,,,,,
,,,,,,,,,,,,0,5,5,5,1,sixth,12,28,female,L,IMT ,2021-07-12_08h43.10.951,ImageRatingTask_S3,2021.1.4,MacIntel,62.5,,,,,,,,,
,,,,,,,,,,,,0,6,6,6,1,seventh,12,28,female,L,IMT ,2021-07-12_08h43.10.951,ImageRatingTask_S3,2021.1.4,MacIntel,62.5,,,,,,,,,
,,,,,,,,,,,,0,7,7,7,1,last,12,28,female,L,IMT ,2021-07-12_08h43.10.951,ImageRatingTask_S3,2021.1.4,MacIntel,62.5,,,,,,,,,
,,,,,,,,,,,,,,,,,,12,28,female,L,IMT ,2021-07-12_08h43.10.951,ImageRatingTask_S3,2021.1.4,MacIntel,62.5,0,15,15,94,1,DreamStudyImages_rs1000x750g/Vehicles/locomotive.jpg,,,
,,7,1.648,3,0.66,8,1.805,1,0.848,5,0.475,0,0,0,0,1,main,12,28,female,L,IMT ,2021-07-12_08h43.10.951,ImageRatingTask_S3,2021.1.4,MacIntel,62.5,,,,,,,,,
,,,,,,,,,,,,0,1,1,1,1,second,12,28,female,L,IMT ,2021-07-12_08h43.10.951,ImageRatingTask_S3,2021.1.4,MacIntel,62.5,,,,,,,,,
,,,,,,,,,,,,0,2,2,2,1,third,12,28,female,L,IMT ,2021-07-12_08h43.10.951,ImageRatingTask_S3,2021.1.4,MacIntel,62.5,,,,,,,,,
,,,,,,,,,,,,0,3,3,3,1,fourth,12,28,female,L,IMT ,2021-07-12_08h43.10.951,ImageRatingTask_S3,2021.1.4,MacIntel,62.5,,,,,,,,,
,,,,,,,,,,,,0,4,4,4,1,fifth,12,28,female,L,IMT ,2021-07-12_08h43.10.951,ImageRatingTask_S3,2021.1.4,MacIntel,62.5,,,,,,,,,
,,,,,,,,,,,,0,5,5,5,1,sixth,12,28,female,L,IMT ,2021-07-12_08h43.10.951,ImageRatingTask_S3,2021.1.4,MacIntel,62.5,,,,,,,,,
,,,,,,,,,,,,0,6,6,6,1,seventh,12,28,female,L,IMT ,2021-07-12_08h43.10.951,ImageRatingTask_S3,2021.1.4,MacIntel,62.5,,,,,,,,,
,,,,,,,,,,,,0,7,7,7,1,last,12,28,female,L,IMT ,2021-07-12_08h43.10.951,ImageRatingTask_S3,2021.1.4,MacIntel,62.5,,,,,,,,,
,,,,,,,,,,,,,,,,,,12,28,female,L,IMT ,2021-07-12_08h43.10.951,ImageRatingTask_S3,2021.1.4,MacIntel,62.5,0,16,16,114,1,DreamStudyImages_rs1000x750g/Food/Objects_097_h.jpg,,,
,,6,1.173,2,0.595,5,1.155,1,0.681,2,0.791,0,0,0,0,1,main,12,28,female,L,IMT ,2021-07-12_08h43.10.951,ImageRatingTask_S3,2021.1.4,MacIntel,62.5,,,,,,,,,
,,,,,,,,,,,,0,1,1,1,1,second,12,28,female,L,IMT ,2021-07-12_08h43.10.951,ImageRatingTask_S3,2021.1.4,MacIntel,62.5,,,,,,,,,
,,,,,,,,,,,,0,2,2,2,1,third,12,28,female,L,IMT ,2021-07-12_08h43.10.951,ImageRatingTask_S3,2021.1.4,MacIntel,62.5,,,,,,,,,
,,,,,,,,,,,,0,3,3,3,1,fourth,12,28,female,L,IMT ,2021-07-12_08h43.10.951,ImageRatingTask_S3,2021.1.4,MacIntel,62.5,,,,,,,,,
,,,,,,,,,,,,0,4,4,4,1,fifth,12,28,female,L,IMT ,2021-07-12_08h43.10.951,ImageRatingTask_S3,2021.1.4,MacIntel,62.5,,,,,,,,,
,,,,,,,,,,,,0,5,5,5,1,sixth,12,28,female,L,IMT ,2021-07-12_08h43.10.951,ImageRatingTask_S3,2021.1.4,MacIntel,62.5,,,,,,,,,
,,,,,,,,,,,,0,6,6,6,1,seventh,12,28,female,L,IMT ,2021-07-12_08h43.10.951,ImageRatingTask_S3,2021.1.4,MacIntel,62.5,,,,,,,,,
,,,,,,,,,,,,0,7,7,7,1,last,12,28,female,L,IMT ,2021-07-12_08h43.10.951,ImageRatingTask_S3,2021.1.4,MacIntel,62.5,,,,,,,,,
,,,,,,,,,,,,,,,,,,12,28,female,L,IMT ,2021-07-12_08h43.10.951,ImageRatingTask_S3,2021.1.4,MacIntel,62.5,0,17,17,90,1,DreamStudyImages_rs1000x750g/Children/IAPS2050_baby3.jpg,,,
,,5,4.238,1,0.464,5,0.858,1,0.612,5,9.926,0,0,0,0,1,main,12,28,female,L,IMT ,2021-07-12_08h43.10.951,ImageRatingTask_S3,2021.1.4,MacIntel,62.5,,,,,,,,,
,,,,,,,,,,,,0,1,1,1,1,second,12,28,female,L,IMT ,2021-07-12_08h43.10.951,ImageRatingTask_S3,2021.1.4,MacIntel,62.5,,,,,,,,,
,,,,,,,,,,,,0,2,2,2,1,third,12,28,female,L,IMT ,2021-07-12_08h43.10.951,ImageRatingTask_S3,2021.1.4,MacIntel,62.5,,,,,,,,,
,,,,,,,,,,,,0,3,3,3,1,fourth,12,28,female,L,IMT ,2021-07-12_08h43.10.951,ImageRatingTask_S3,2021.1.4,MacIntel,62.5,,,,,,,,,
,,,,,,,,,,,,0,4,4,4,1,fifth,12,28,female,L,IMT ,2021-07-12_08h43.10.951,ImageRatingTask_S3,2021.1.4,MacIntel,62.5,,,,,,,,,
,,,,,,,,,,,,0,5,5,5,1,sixth,12,28,female,L,IMT ,2021-07-12_08h43.10.951,ImageRatingTask_S3,2021.1.4,MacIntel,62.5,,,,,,,,,
,,,,,,,,,,,,0,6,6,6,1,seventh,12,28,female,L,IMT ,2021-07-12_08h43.10.951,ImageRatingTask_S3,2021.1.4,MacIntel,62.5,,,,,,,,,
,,,,,,,,,,,,0,7,7,7,1,last,12,28,female,L,IMT ,2021-07-12_08h43.10.951,ImageRatingTask_S3,2021.1.4,MacIntel,62.5,,,,,,,,,
,,,,,,,,,,,,,,,,,,12,28,female,L,IMT ,2021-07-12_08h43.10.951,ImageRatingTask_S3,2021.1.4,MacIntel,62.5,0,18,18,36,1,DreamStudyImages_rs1000x750g/Houses/Wedding 12.jpg,,,
,,6,2.163,1,0.974,6,1.757,1,20.009,3,0.764,0,0,0,0,1,main,12,28,female,L,IMT ,2021-07-12_08h43.10.951,ImageRatingTask_S3,2021.1.4,MacIntel,62.5,,,,,,,,,
,,,,,,,,,,,,0,1,1,1,1,second,12,28,female,L,IMT ,2021-07-12_08h43.10.951,ImageRatingTask_S3,2021.1.4,MacIntel,62.5,,,,,,,,,
,,,,,,,,,,,,0,2,2,2,1,third,12,28,female,L,IMT ,2021-07-12_08h43.10.951,ImageRatingTask_S3,2021.1.4,MacIntel,62.5,,,,,,,,,
,,,,,,,,,,,,0,3,3,3,1,fourth,12,28,female,L,IMT ,2021-07-12_08h43.10.951,ImageRatingTask_S3,2021.1.4,MacIntel,62.5,,,,,,,,,
,,,,,,,,,,,,0,4,4,4,1,fifth,12,28,female,L,IMT ,2021-07-12_08h43.10.951,ImageRatingTask_S3,2021.1.4,MacIntel,62.5,,,,,,,,,
,,,,,,,,,,,,0,5,5,5,1,sixth,12,28,female,L,IMT ,2021-07-12_08h43.10.951,ImageRatingTask_S3,2021.1.4,MacIntel,62.5,,,,,,,,,
,,,,,,,,,,,,0,6,6,6,1,seventh,12,28,female,L,IMT ,2021-07-12_08h43.10.951,ImageRatingTask_S3,2021.1.4,MacIntel,62.5,,,,,,,,,
,,,,,,,,,,,,0,7,7,7,1,last,12,28,female,L,IMT ,2021-07-12_08h43.10.951,ImageRatingTask_S3,2021.1.4,MacIntel,62.5,,,,,,,,,
,,,,,,,,,,,,,,,,,,12,28,female,L,IMT ,2021-07-12_08h43.10.951,ImageRatingTask_S3,2021.1.4,MacIntel,62.5,0,19,19,157,1,DreamStudyImages_rs1000x750g/Mammals/Raccoon 1.jpg,,,
,,3,13.076,1,1.037,5,1.524,1,0.748,2,0.327,0,0,0,0,1,main,12,28,female,L,IMT ,2021-07-12_08h43.10.951,ImageRatingTask_S3,2021.1.4,MacIntel,62.5,,,,,,,,,
,,,,,,,,,,,,0,1,1,1,1,second,12,28,female,L,IMT ,2021-07-12_08h43.10.951,ImageRatingTask_S3,2021.1.4,MacIntel,62.5,,,,,,,,,
,,,,,,,,,,,,0,2,2,2,1,third,12,28,female,L,IMT ,2021-07-12_08h43.10.951,ImageRatingTask_S3,2021.1.4,MacIntel,62.5,,,,,,,,,
,,,,,,,,,,,,0,3,3,3,1,fourth,12,28,female,L,IMT ,2021-07-12_08h43.10.951,ImageRatingTask_S3,2021.1.4,MacIntel,62.5,,,,,,,,,
,,,,,,,,,,,,0,4,4,4,1,fifth,12,28,female,L,IMT ,2021-07-12_08h43.10.951,ImageRatingTask_S3,2021.1.4,MacIntel,62.5,,,,,,,,,
,,,,,,,,,,,,0,5,5,5,1,sixth,12,28,female,L,IMT ,2021-07-12_08h43.10.951,ImageRatingTask_S3,2021.1.4,MacIntel,62.5,,,,,,,,,
,,,,,,,,,,,,0,6,6,6,1,seventh,12,28,female,L,IMT ,2021-07-12_08h43.10.951,ImageRatingTask_S3,2021.1.4,MacIntel,62.5,,,,,,,,,
,,,,,,,,,,,,0,7,7,7,1,last,12,28,female,L,IMT ,2021-07-12_08h43.10.951,ImageRatingTask_S3,2021.1.4,MacIntel,62.5,,,,,,,,,
,,,,,,,,,,,,,,,,,,12,28,female,L,IMT ,2021-07-12_08h43.10.951,ImageRatingTask_S3,2021.1.4,MacIntel,62.5,0,20,20,32,1,DreamStudyImages_rs1000x750g/Children/Faces_363_v.jpg,,,
,,5,1.697,2,0.84,8,2.196,1,0.73,5,0.385,0,0,0,0,1,main,12,28,female,L,IMT ,2021-07-12_08h43.10.951,ImageRatingTask_S3,2021.1.4,MacIntel,62.5,,,,,,,,,
,,,,,,,,,,,,0,1,1,1,1,second,12,28,female,L,IMT ,2021-07-12_08h43.10.951,ImageRatingTask_S3,2021.1.4,MacIntel,62.5,,,,,,,,,
,,,,,,,,,,,,0,2,2,2,1,third,12,28,female,L,IMT ,2021-07-12_08h43.10.951,ImageRatingTask_S3,2021.1.4,MacIntel,62.5,,,,,,,,,
,,,,,,,,,,,,0,3,3,3,1,fourth,12,28,female,L,IMT ,2021-07-12_08h43.10.951,ImageRatingTask_S3,2021.1.4,MacIntel,62.5,,,,,,,,,
,,,,,,,,,,,,0,4,4,4,1,fifth,12,28,female,L,IMT ,2021-07-12_08h43.10.951,ImageRatingTask_S3,2021.1.4,MacIntel,62.5,,,,,,,,,
,,,,,,,,,,,,0,5,5,5,1,sixth,12,28,female,L,IMT ,2021-07-12_08h43.10.951,ImageRatingTask_S3,2021.1.4,MacIntel,62.5,,,,,,,,,
,,,,,,,,,,,,0,6,6,6,1,seventh,12,28,female,L,IMT ,2021-07-12_08h43.10.951,ImageRatingTask_S3,2021.1.4,MacIntel,62.5,,,,,,,,,
,,,,,,,,,,,,0,7,7,7,1,last,12,28,female,L,IMT ,2021-07-12_08h43.10.951,ImageRatingTask_S3,2021.1.4,MacIntel,62.5,,,,,,,,,
,,,,,,,,,,,,,,,,,,12,28,female,L,IMT ,2021-07-12_08h43.10.951,ImageRatingTask_S3,2021.1.4,MacIntel,62.5,0,21,21,83,1,DreamStudyImages_rs1000x750g/Food/Objects_064_v.jpg,,,
,,5,1.894,1,0.457,4,1.178,1,0.84,7,0.691,0,0,0,0,1,main,12,28,female,L,IMT ,2021-07-12_08h43.10.951,ImageRatingTask_S3,2021.1.4,MacIntel,62.5,,,,,,,,,
,,,,,,,,,,,,0,1,1,1,1,second,12,28,female,L,IMT ,2021-07-12_08h43.10.951,ImageRatingTask_S3,2021.1.4,MacIntel,62.5,,,,,,,,,
,,,,,,,,,,,,0,2,2,2,1,third,12,28,female,L,IMT ,2021-07-12_08h43.10.951,ImageRatingTask_S3,2021.1.4,MacIntel,62.5,,,,,,,,,
,,,,,,,,,,,,0,3,3,3,1,fourth,12,28,female,L,IMT ,2021-07-12_08h43.10.951,ImageRatingTask_S3,2021.1.4,MacIntel,62.5,,,,,,,,,
,,,,,,,,,,,,0,4,4,4,1,fifth,12,28,female,L,IMT ,2021-07-12_08h43.10.951,ImageRatingTask_S3,2021.1.4,MacIntel,62.5,,,,,,,,,
,,,,,,,,,,,,0,5,5,5,1,sixth,12,28,female,L,IMT ,2021-07-12_08h43.10.951,ImageRatingTask_S3,2021.1.4,MacIntel,62.5,,,,,,,,,
,,,,,,,,,,,,0,6,6,6,1,seventh,12,28,female,L,IMT ,2021-07-12_08h43.10.951,ImageRatingTask_S3,2021.1.4,MacIntel,62.5,,,,,,,,,
,,,,,,,,,,,,0,7,7,7,1,last,12,28,female,L,IMT ,2021-07-12_08h43.10.951,ImageRatingTask_S3,2021.1.4,MacIntel,62.5,,,,,,,,,
,,,,,,,,,,,,,,,,,,12,28,female,L,IMT ,2021-07-12_08h43.10.951,ImageRatingTask_S3,2021.1.4,MacIntel,62.5,0,22,22,93,1,DreamStudyImages_rs1000x750g/Vehicles/IAPS7037_train2.jpg,,,
,,6,1.743,1,0.554,7,2.738,1,0.914,5,0.35,0,0,0,0,1,main,12,28,female,L,IMT ,2021-07-12_08h43.10.951,ImageRatingTask_S3,2021.1.4,MacIntel,62.5,,,,,,,,,
,,,,,,,,,,,,0,1,1,1,1,second,12,28,female,L,IMT ,2021-07-12_08h43.10.951,ImageRatingTask_S3,2021.1.4,MacIntel,62.5,,,,,,,,,
,,,,,,,,,,,,0,2,2,2,1,third,12,28,female,L,IMT ,2021-07-12_08h43.10.951,ImageRatingTask_S3,2021.1.4,MacIntel,62.5,,,,,,,,,
,,,,,,,,,,,,0,3,3,3,1,fourth,12,28,female,L,IMT ,2021-07-12_08h43.10.951,ImageRatingTask_S3,2021.1.4,MacIntel,62.5,,,,,,,,,
,,,,,,,,,,,,0,4,4,4,1,fifth,12,28,female,L,IMT ,2021-07-12_08h43.10.951,ImageRatingTask_S3,2021.1.4,MacIntel,62.5,,,,,,,,,
,,,,,,,,,,,,0,5,5,5,1,sixth,12,28,female,L,IMT ,2021-07-12_08h43.10.951,ImageRatingTask_S3,2021.1.4,MacIntel,62.5,,,,,,,,,
,,,,,,,,,,,,0,6,6,6,1,seventh,12,28,female,L,IMT ,2021-07-12_08h43.10.951,ImageRatingTask_S3,2021.1.4,MacIntel,62.5,,,,,,,,,
,,,,,,,,,,,,0,7,7,7,1,last,12,28,female,L,IMT ,2021-07-12_08h43.10.951,ImageRatingTask_S3,2021.1.4,MacIntel,62.5,,,,,,,,,
,,,,,,,,,,,,,,,,,,12,28,female,L,IMT ,2021-07-12_08h43.10.951,ImageRatingTask_S3,2021.1.4,MacIntel,62.5,0,23,23,146,1,DreamStudyImages_rs1000x750g/Food/Objects_037_h.jpg,,,
,,7,2.184,2,0.632,7,1.162,1,0.807,3,0.729,0,0,0,0,1,main,12,28,female,L,IMT ,2021-07-12_08h43.10.951,ImageRatingTask_S3,2021.1.4,MacIntel,62.5,,,,,,,,,
,,,,,,,,,,,,0,1,1,1,1,second,12,28,female,L,IMT ,2021-07-12_08h43.10.951,ImageRatingTask_S3,2021.1.4,MacIntel,62.5,,,,,,,,,
,,,,,,,,,,,,0,2,2,2,1,third,12,28,female,L,IMT ,2021-07-12_08h43.10.951,ImageRatingTask_S3,2021.1.4,MacIntel,62.5,,,,,,,,,
,,,,,,,,,,,,0,3,3,3,1,fourth,12,28,female,L,IMT ,2021-07-12_08h43.10.951,ImageRatingTask_S3,2021.1.4,MacIntel,62.5,,,,,,,,,
,,,,,,,,,,,,0,4,4,4,1,fifth,12,28,female,L,IMT ,2021-07-12_08h43.10.951,ImageRatingTask_S3,2021.1.4,MacIntel,62.5,,,,,,,,,
,,,,,,,,,,,,0,5,5,5,1,sixth,12,28,female,L,IMT ,2021-07-12_08h43.10.951,ImageRatingTask_S3,2021.1.4,MacIntel,62.5,,,,,,,,,
,,,,,,,,,,,,0,6,6,6,1,seventh,12,28,female,L,IMT ,2021-07-12_08h43.10.951,ImageRatingTask_S3,2021.1.4,MacIntel,62.5,,,,,,,,,
,,,,,,,,,,,,0,7,7,7,1,last,12,28,female,L,IMT ,2021-07-12_08h43.10.951,ImageRatingTask_S3,2021.1.4,MacIntel,62.5,,,,,,,,,
,,,,,,,,,,,,,,,,,,12,28,female,L,IMT ,2021-07-12_08h43.10.951,ImageRatingTask_S3,2021.1.4,MacIntel,62.5,0,24,24,109,1,DreamStudyImages_rs1000x750g/Mammals/Animals_146_h.jpg,,,
,,5,1.527,1,0.504,5,1.172,1,0.673,2,0.192,0,0,0,0,1,main,12,28,female,L,IMT ,2021-07-12_08h43.10.951,ImageRatingTask_S3,2021.1.4,MacIntel,62.5,,,,,,,,,
,,,,,,,,,,,,0,1,1,1,1,second,12,28,female,L,IMT ,2021-07-12_08h43.10.951,ImageRatingTask_S3,2021.1.4,MacIntel,62.5,,,,,,,,,
,,,,,,,,,,,,0,2,2,2,1,third,12,28,female,L,IMT ,2021-07-12_08h43.10.951,ImageRatingTask_S3,2021.1.4,MacIntel,62.5,,,,,,,,,
,,,,,,,,,,,,0,3,3,3,1,fourth,12,28,female,L,IMT ,2021-07-12_08h43.10.951,ImageRatingTask_S3,2021.1.4,MacIntel,62.5,,,,,,,,,
,,,,,,,,,,,,0,4,4,4,1,fifth,12,28,female,L,IMT ,2021-07-12_08h43.10.951,ImageRatingTask_S3,2021.1.4,MacIntel,62.5,,,,,,,,,
,,,,,,,,,,,,0,5,5,5,1,sixth,12,28,female,L,IMT ,2021-07-12_08h43.10.951,ImageRatingTask_S3,2021.1.4,MacIntel,62.5,,,,,,,,,
,,,,,,,,,,,,0,6,6,6,1,seventh,12,28,female,L,IMT ,2021-07-12_08h43.10.951,ImageRatingTask_S3,2021.1.4,MacIntel,62.5,,,,,,,,,
,,,,,,,,,,,,0,7,7,7,1,last,12,28,female,L,IMT ,2021-07-12_08h43.10.951,ImageRatingTask_S3,2021.1.4,MacIntel,62.5,,,,,,,,,
,,,,,,,,,,,,,,,,,,12,28,female,L,IMT ,2021-07-12_08h43.10.951,ImageRatingTask_S3,2021.1.4,MacIntel,62.5,0,25,25,154,1,DreamStudyImages_rs1000x750g/Children/IAPS2301_boy5.jpg,,,
,,5,3.08,1,0.548,8,3.607,1,0.848,3,0.467,0,0,0,0,1,main,12,28,female,L,IMT ,2021-07-12_08h43.10.951,ImageRatingTask_S3,2021.1.4,MacIntel,62.5,,,,,,,,,
,,,,,,,,,,,,0,1,1,1,1,second,12,28,female,L,IMT ,2021-07-12_08h43.10.951,ImageRatingTask_S3,2021.1.4,MacIntel,62.5,,,,,,,,,
,,,,,,,,,,,,0,2,2,2,1,third,12,28,female,L,IMT ,2021-07-12_08h43.10.951,ImageRatingTask_S3,2021.1.4,MacIntel,62.5,,,,,,,,,
,,,,,,,,,,,,0,3,3,3,1,fourth,12,28,female,L,IMT ,2021-07-12_08h43.10.951,ImageRatingTask_S3,2021.1.4,MacIntel,62.5,,,,,,,,,
,,,,,,,,,,,,0,4,4,4,1,fifth,12,28,female,L,IMT ,2021-07-12_08h43.10.951,ImageRatingTask_S3,2021.1.4,MacIntel,62.5,,,,,,,,,
,,,,,,,,,,,,0,5,5,5,1,sixth,12,28,female,L,IMT ,2021-07-12_08h43.10.951,ImageRatingTask_S3,2021.1.4,MacIntel,62.5,,,,,,,,,
,,,,,,,,,,,,0,6,6,6,1,seventh,12,28,female,L,IMT ,2021-07-12_08h43.10.951,ImageRatingTask_S3,2021.1.4,MacIntel,62.5,,,,,,,,,
,,,,,,,,,,,,0,7,7,7,1,last,12,28,female,L,IMT ,2021-07-12_08h43.10.951,ImageRatingTask_S3,2021.1.4,MacIntel,62.5,,,,,,,,,
,,,,,,,,,,,,,,,,,,12,28,female,L,IMT ,2021-07-12_08h43.10.951,ImageRatingTask_S3,2021.1.4,MacIntel,62.5,0,26,26,73,1,DreamStudyImages_rs1000x750g/Mammals/Animals_075_h.jpg,,,
,,6,7.591,1,0.528,6,1.123,1,0.605,3,0.234,0,0,0,0,1,main,12,28,female,L,IMT ,2021-07-12_08h43.10.951,ImageRatingTask_S3,2021.1.4,MacIntel,62.5,,,,,,,,,
,,,,,,,,,,,,0,1,1,1,1,second,12,28,female,L,IMT ,2021-07-12_08h43.10.951,ImageRatingTask_S3,2021.1.4,MacIntel,62.5,,,,,,,,,
,,,,,,,,,,,,0,2,2,2,1,third,12,28,female,L,IMT ,2021-07-12_08h43.10.951,ImageRatingTask_S3,2021.1.4,MacIntel,62.5,,,,,,,,,
,,,,,,,,,,,,0,3,3,3,1,fourth,12,28,female,L,IMT ,2021-07-12_08h43.10.951,ImageRatingTask_S3,2021.1.4,MacIntel,62.5,,,,,,,,,
,,,,,,,,,,,,0,4,4,4,1,fifth,12,28,female,L,IMT ,2021-07-12_08h43.10.951,ImageRatingTask_S3,2021.1.4,MacIntel,62.5,,,,,,,,,
,,,,,,,,,,,,0,5,5,5,1,sixth,12,28,female,L,IMT ,2021-07-12_08h43.10.951,ImageRatingTask_S3,2021.1.4,MacIntel,62.5,,,,,,,,,
,,,,,,,,,,,,0,6,6,6,1,seventh,12,28,female,L,IMT ,2021-07-12_08h43.10.951,ImageRatingTask_S3,2021.1.4,MacIntel,62.5,,,,,,,,,
,,,,,,,,,,,,0,7,7,7,1,last,12,28,female,L,IMT ,2021-07-12_08h43.10.951,ImageRatingTask_S3,2021.1.4,MacIntel,62.5,,,,,,,,,
,,,,,,,,,,,,,,,,,,12,28,female,L,IMT ,2021-07-12_08h43.10.951,ImageRatingTask_S3,2021.1.4,MacIntel,62.5,0,27,27,137,1,DreamStudyImages_rs1000x750g/Mammals/Animals_171_h.jpg,,,
,,2,3.212,1,1.07,5,1.388,1,0.914,3,0.352,0,0,0,0,1,main,12,28,female,L,IMT ,2021-07-12_08h43.10.951,ImageRatingTask_S3,2021.1.4,MacIntel,62.5,,,,,,,,,
,,,,,,,,,,,,0,1,1,1,1,second,12,28,female,L,IMT ,2021-07-12_08h43.10.951,ImageRatingTask_S3,2021.1.4,MacIntel,62.5,,,,,,,,,
,,,,,,,,,,,,0,2,2,2,1,third,12,28,female,L,IMT ,2021-07-12_08h43.10.951,ImageRatingTask_S3,2021.1.4,MacIntel,62.5,,,,,,,,,
,,,,,,,,,,,,0,3,3,3,1,fourth,12,28,female,L,IMT ,2021-07-12_08h43.10.951,ImageRatingTask_S3,2021.1.4,MacIntel,62.5,,,,,,,,,
,,,,,,,,,,,,0,4,4,4,1,fifth,12,28,female,L,IMT ,2021-07-12_08h43.10.951,ImageRatingTask_S3,2021.1.4,MacIntel,62.5,,,,,,,,,
,,,,,,,,,,,,0,5,5,5,1,sixth,12,28,female,L,IMT ,2021-07-12_08h43.10.951,ImageRatingTask_S3,2021.1.4,MacIntel,62.5,,,,,,,,,
,,,,,,,,,,,,0,6,6,6,1,seventh,12,28,female,L,IMT ,2021-07-12_08h43.10.951,ImageRatingTask_S3,2021.1.4,MacIntel,62.5,,,,,,,,,
,,,,,,,,,,,,0,7,7,7,1,last,12,28,female,L,IMT ,2021-07-12_08h43.10.951,ImageRatingTask_S3,2021.1.4,MacIntel,62.5,,,,,,,,,
,,,,,,,,,,,,,,,,,,12,28,female,L,IMT ,2021-07-12_08h43.10.951,ImageRatingTask_S3,2021.1.4,MacIntel,62.5,0,28,28,48,1,DreamStudyImages_rs1000x750g/Mammals/IAPS1300_dog1.jpg,,,
,,7,1.364,1,0.705,6,1.473,1,0.713,3,0.234,0,0,0,0,1,main,12,28,female,L,IMT ,2021-07-12_08h43.10.951,ImageRatingTask_S3,2021.1.4,MacIntel,62.5,,,,,,,,,
,,,,,,,,,,,,0,1,1,1,1,second,12,28,female,L,IMT ,2021-07-12_08h43.10.951,ImageRatingTask_S3,2021.1.4,MacIntel,62.5,,,,,,,,,
,,,,,,,,,,,,0,2,2,2,1,third,12,28,female,L,IMT ,2021-07-12_08h43.10.951,ImageRatingTask_S3,2021.1.4,MacIntel,62.5,,,,,,,,,
,,,,,,,,,,,,0,3,3,3,1,fourth,12,28,female,L,IMT ,2021-07-12_08h43.10.951,ImageRatingTask_S3,2021.1.4,MacIntel,62.5,,,,,,,,,
,,,,,,,,,,,,0,4,4,4,1,fifth,12,28,female,L,IMT ,2021-07-12_08h43.10.951,ImageRatingTask_S3,2021.1.4,MacIntel,62.5,,,,,,,,,
,,,,,,,,,,,,0,5,5,5,1,sixth,12,28,female,L,IMT ,2021-07-12_08h43.10.951,ImageRatingTask_S3,2021.1.4,MacIntel,62.5,,,,,,,,,
,,,,,,,,,,,,0,6,6,6,1,seventh,12,28,female,L,IMT ,2021-07-12_08h43.10.951,ImageRatingTask_S3,2021.1.4,MacIntel,62.5,,,,,,,,,
,,,,,,,,,,,,0,7,7,7,1,last,12,28,female,L,IMT ,2021-07-12_08h43.10.951,ImageRatingTask_S3,2021.1.4,MacIntel,62.5,,,,,,,,,
,,,,,,,,,,,,,,,,,,12,28,female,L,IMT ,2021-07-12_08h43.10.951,ImageRatingTask_S3,2021.1.4,MacIntel,62.5,0,29,29,23,1,DreamStudyImages_rs1000x750g/Mammals/Horse 1.jpg,,,
,,6,2.705,2,0.72,6,1.325,1,0.899,6,0.482,0,0,0,0,1,main,12,28,female,L,IMT ,2021-07-12_08h43.10.951,ImageRatingTask_S3,2021.1.4,MacIntel,62.5,,,,,,,,,
,,,,,,,,,,,,0,1,1,1,1,second,12,28,female,L,IMT ,2021-07-12_08h43.10.951,ImageRatingTask_S3,2021.1.4,MacIntel,62.5,,,,,,,,,
,,,,,,,,,,,,0,2,2,2,1,third,12,28,female,L,IMT ,2021-07-12_08h43.10.951,ImageRatingTask_S3,2021.1.4,MacIntel,62.5,,,,,,,,,
,,,,,,,,,,,,0,3,3,3,1,fourth,12,28,female,L,IMT ,2021-07-12_08h43.10.951,ImageRatingTask_S3,2021.1.4,MacIntel,62.5,,,,,,,,,
,,,,,,,,,,,,0,4,4,4,1,fifth,12,28,female,L,IMT ,2021-07-12_08h43.10.951,ImageRatingTask_S3,2021.1.4,MacIntel,62.5,,,,,,,,,
,,,,,,,,,,,,0,5,5,5,1,sixth,12,28,female,L,IMT ,2021-07-12_08h43.10.951,ImageRatingTask_S3,2021.1.4,MacIntel,62.5,,,,,,,,,
,,,,,,,,,,,,0,6,6,6,1,seventh,12,28,female,L,IMT ,2021-07-12_08h43.10.951,ImageRatingTask_S3,2021.1.4,MacIntel,62.5,,,,,,,,,
,,,,,,,,,,,,0,7,7,7,1,last,12,28,female,L,IMT ,2021-07-12_08h43.10.951,ImageRatingTask_S3,2021.1.4,MacIntel,62.5,,,,,,,,,
,,,,,,,,,,,,,,,,,,12,28,female,L,IMT ,2021-07-12_08h43.10.951,ImageRatingTask_S3,2021.1.4,MacIntel,62.5,0,30,30,117,1,DreamStudyImages_rs1000x750g/Houses/Landscapes_065_h.jpg,,,
,,7,1.214,4,1.045,5,1.798,1,0.789,3,0.295,0,0,0,0,1,main,12,28,female,L,IMT ,2021-07-12_08h43.10.951,ImageRatingTask_S3,2021.1.4,MacIntel,62.5,,,,,,,,,
,,,,,,,,,,,,0,1,1,1,1,second,12,28,female,L,IMT ,2021-07-12_08h43.10.951,ImageRatingTask_S3,2021.1.4,MacIntel,62.5,,,,,,,,,
,,,,,,,,,,,,0,2,2,2,1,third,12,28,female,L,IMT ,2021-07-12_08h43.10.951,ImageRatingTask_S3,2021.1.4,MacIntel,62.5,,,,,,,,,
,,,,,,,,,,,,0,3,3,3,1,fourth,12,28,female,L,IMT ,2021-07-12_08h43.10.951,ImageRatingTask_S3,2021.1.4,MacIntel,62.5,,,,,,,,,
,,,,,,,,,,,,0,4,4,4,1,fifth,12,28,female,L,IMT ,2021-07-12_08h43.10.951,ImageRatingTask_S3,2021.1.4,MacIntel,62.5,,,,,,,,,
,,,,,,,,,,,,0,5,5,5,1,sixth,12,28,female,L,IMT ,2021-07-12_08h43.10.951,ImageRatingTask_S3,2021.1.4,MacIntel,62.5,,,,,,,,,
,,,,,,,,,,,,0,6,6,6,1,seventh,12,28,female,L,IMT ,2021-07-12_08h43.10.951,ImageRatingTask_S3,2021.1.4,MacIntel,62.5,,,,,,,,,
,,,,,,,,,,,,0,7,7,7,1,last,12,28,female,L,IMT ,2021-07-12_08h43.10.951,ImageRatingTask_S3,2021.1.4,MacIntel,62.5,,,,,,,,,
,,,,,,,,,,,,,,,,,,12,28,female,L,IMT ,2021-07-12_08h43.10.951,ImageRatingTask_S3,2021.1.4,MacIntel,62.5,0,31,31,67,1,DreamStudyImages_rs1000x750g/Mammals/1440.jpg,,,
,,5,1.582,1,0.5,7,1.817,1,0.997,6,0.802,0,0,0,0,1,main,12,28,female,L,IMT ,2021-07-12_08h43.10.951,ImageRatingTask_S3,2021.1.4,MacIntel,62.5,,,,,,,,,
,,,,,,,,,,,,0,1,1,1,1,second,12,28,female,L,IMT ,2021-07-12_08h43.10.951,ImageRatingTask_S3,2021.1.4,MacIntel,62.5,,,,,,,,,
,,,,,,,,,,,,0,2,2,2,1,third,12,28,female,L,IMT ,2021-07-12_08h43.10.951,ImageRatingTask_S3,2021.1.4,MacIntel,62.5,,,,,,,,,
,,,,,,,,,,,,0,3,3,3,1,fourth,12,28,female,L,IMT ,2021-07-12_08h43.10.951,ImageRatingTask_S3,2021.1.4,MacIntel,62.5,,,,,,,,,
,,,,,,,,,,,,0,4,4,4,1,fifth,12,28,female,L,IMT ,2021-07-12_08h43.10.951,ImageRatingTask_S3,2021.1.4,MacIntel,62.5,,,,,,,,,
,,,,,,,,,,,,0,5,5,5,1,sixth,12,28,female,L,IMT ,2021-07-12_08h43.10.951,ImageRatingTask_S3,2021.1.4,MacIntel,62.5,,,,,,,,,
,,,,,,,,,,,,0,6,6,6,1,seventh,12,28,female,L,IMT ,2021-07-12_08h43.10.951,ImageRatingTask_S3,2021.1.4,MacIntel,62.5,,,,,,,,,
,,,,,,,,,,,,0,7,7,7,1,last,12,28,female,L,IMT ,2021-07-12_08h43.10.951,ImageRatingTask_S3,2021.1.4,MacIntel,62.5,,,,,,,,,
,,,,,,,,,,,,,,,,,,12,28,female,L,IMT ,2021-07-12_08h43.10.951,ImageRatingTask_S3,2021.1.4,MacIntel,62.5,0,32,32,13,1,DreamStudyImages_rs1000x750g/Houses/Landscapes_039_v.jpg,,,
,,6,1.393,1,0.576,6,1.812,1,0.839,2,0.305,0,0,0,0,1,main,12,28,female,L,IMT ,2021-07-12_08h43.10.951,ImageRatingTask_S3,2021.1.4,MacIntel,62.5,,,,,,,,,
,,,,,,,,,,,,0,1,1,1,1,second,12,28,female,L,IMT ,2021-07-12_08h43.10.951,ImageRatingTask_S3,2021.1.4,MacIntel,62.5,,,,,,,,,
,,,,,,,,,,,,0,2,2,2,1,third,12,28,female,L,IMT ,2021-07-12_08h43.10.951,ImageRatingTask_S3,2021.1.4,MacIntel,62.5,,,,,,,,,
,,,,,,,,,,,,0,3,3,3,1,fourth,12,28,female,L,IMT ,2021-07-12_08h43.10.951,ImageRatingTask_S3,2021.1.4,MacIntel,62.5,,,,,,,,,
,,,,,,,,,,,,0,4,4,4,1,fifth,12,28,female,L,IMT ,2021-07-12_08h43.10.951,ImageRatingTask_S3,2021.1.4,MacIntel,62.5,,,,,,,,,
,,,,,,,,,,,,0,5,5,5,1,sixth,12,28,female,L,IMT ,2021-07-12_08h43.10.951,ImageRatingTask_S3,2021.1.4,MacIntel,62.5,,,,,,,,,
,,,,,,,,,,,,0,6,6,6,1,seventh,12,28,female,L,IMT ,2021-07-12_08h43.10.951,ImageRatingTask_S3,2021.1.4,MacIntel,62.5,,,,,,,,,
,,,,,,,,,,,,0,7,7,7,1,last,12,28,female,L,IMT ,2021-07-12_08h43.10.951,ImageRatingTask_S3,2021.1.4,MacIntel,62.5,,,,,,,,,
,,,,,,,,,,,,,,,,,,12,28,female,L,IMT ,2021-07-12_08h43.10.951,ImageRatingTask_S3,2021.1.4,MacIntel,62.5,0,33,33,87,1,DreamStudyImages_rs1000x750g/Children/Faces_096_h.jpg,,,
,,5,2.114,1,0.38,4,1.495,1,0.805,7,0.784,0,0,0,0,1,main,12,28,female,L,IMT ,2021-07-12_08h43.10.951,ImageRatingTask_S3,2021.1.4,MacIntel,62.5,,,,,,,,,
,,,,,,,,,,,,0,1,1,1,1,second,12,28,female,L,IMT ,2021-07-12_08h43.10.951,ImageRatingTask_S3,2021.1.4,MacIntel,62.5,,,,,,,,,
,,,,,,,,,,,,0,2,2,2,1,third,12,28,female,L,IMT ,2021-07-12_08h43.10.951,ImageRatingTask_S3,2021.1.4,MacIntel,62.5,,,,,,,,,
,,,,,,,,,,,,0,3,3,3,1,fourth,12,28,female,L,IMT ,2021-07-12_08h43.10.951,ImageRatingTask_S3,2021.1.4,MacIntel,62.5,,,,,,,,,
,,,,,,,,,,,,0,4,4,4,1,fifth,12,28,female,L,IMT ,2021-07-12_08h43.10.951,ImageRatingTask_S3,2021.1.4,MacIntel,62.5,,,,,,,,,
,,,,,,,,,,,,0,5,5,5,1,sixth,12,28,female,L,IMT ,2021-07-12_08h43.10.951,ImageRatingTask_S3,2021.1.4,MacIntel,62.5,,,,,,,,,
,,,,,,,,,,,,0,6,6,6,1,seventh,12,28,female,L,IMT ,2021-07-12_08h43.10.951,ImageRatingTask_S3,2021.1.4,MacIntel,62.5,,,,,,,,,
,,,,,,,,,,,,0,7,7,7,1,last,12,28,female,L,IMT ,2021-07-12_08h43.10.951,ImageRatingTask_S3,2021.1.4,MacIntel,62.5,,,,,,,,,
,,,,,,,,,,,,,,,,,,12,28,female,L,IMT ,2021-07-12_08h43.10.951,ImageRatingTask_S3,2021.1.4,MacIntel,62.5,0,34,34,50,1,DreamStudyImages_rs1000x750g/Vehicles/IAPS9622_planecrash2.jpg,,,
,,5,1.853,1,0.431,8,4.348,1,1.015,5,1.087,0,0,0,0,1,main,12,28,female,L,IMT ,2021-07-12_08h43.10.951,ImageRatingTask_S3,2021.1.4,MacIntel,62.5,,,,,,,,,
,,,,,,,,,,,,0,1,1,1,1,second,12,28,female,L,IMT ,2021-07-12_08h43.10.951,ImageRatingTask_S3,2021.1.4,MacIntel,62.5,,,,,,,,,
,,,,,,,,,,,,0,2,2,2,1,third,12,28,female,L,IMT ,2021-07-12_08h43.10.951,ImageRatingTask_S3,2021.1.4,MacIntel,62.5,,,,,,,,,
,,,,,,,,,,,,0,3,3,3,1,fourth,12,28,female,L,IMT ,2021-07-12_08h43.10.951,ImageRatingTask_S3,2021.1.4,MacIntel,62.5,,,,,,,,,
,,,,,,,,,,,,0,4,4,4,1,fifth,12,28,female,L,IMT ,2021-07-12_08h43.10.951,ImageRatingTask_S3,2021.1.4,MacIntel,62.5,,,,,,,,,
,,,,,,,,,,,,0,5,5,5,1,sixth,12,28,female,L,IMT ,2021-07-12_08h43.10.951,ImageRatingTask_S3,2021.1.4,MacIntel,62.5,,,,,,,,,
,,,,,,,,,,,,0,6,6,6,1,seventh,12,28,female,L,IMT ,2021-07-12_08h43.10.951,ImageRatingTask_S3,2021.1.4,MacIntel,62.5,,,,,,,,,
,,,,,,,,,,,,0,7,7,7,1,last,12,28,female,L,IMT ,2021-07-12_08h43.10.951,ImageRatingTask_S3,2021.1.4,MacIntel,62.5,,,,,,,,,
,,,,,,,,,,,,,,,,,,12,28,female,L,IMT ,2021-07-12_08h43.10.951,ImageRatingTask_S3,2021.1.4,MacIntel,62.5,0,35,35,128,1,DreamStudyImages_rs1000x750g/Food/Objects_164_h.jpg,,,
,,5,15.513,1,0.343,7,1.685,1,0.882,7,0.552,0,0,0,0,1,main,12,28,female,L,IMT ,2021-07-12_08h43.10.951,ImageRatingTask_S3,2021.1.4,MacIntel,62.5,,,,,,,,,
,,,,,,,,,,,,0,1,1,1,1,second,12,28,female,L,IMT ,2021-07-12_08h43.10.951,ImageRatingTask_S3,2021.1.4,MacIntel,62.5,,,,,,,,,
,,,,,,,,,,,,0,2,2,2,1,third,12,28,female,L,IMT ,2021-07-12_08h43.10.951,ImageRatingTask_S3,2021.1.4,MacIntel,62.5,,,,,,,,,
,,,,,,,,,,,,0,3,3,3,1,fourth,12,28,female,L,IMT ,2021-07-12_08h43.10.951,ImageRatingTask_S3,2021.1.4,MacIntel,62.5,,,,,,,,,
,,,,,,,,,,,,0,4,4,4,1,fifth,12,28,female,L,IMT ,2021-07-12_08h43.10.951,ImageRatingTask_S3,2021.1.4,MacIntel,62.5,,,,,,,,,
,,,,,,,,,,,,0,5,5,5,1,sixth,12,28,female,L,IMT ,2021-07-12_08h43.10.951,ImageRatingTask_S3,2021.1.4,MacIntel,62.5,,,,,,,,,
,,,,,,,,,,,,0,6,6,6,1,seventh,12,28,female,L,IMT ,2021-07-12_08h43.10.951,ImageRatingTask_S3,2021.1.4,MacIntel,62.5,,,,,,,,,
,,,,,,,,,,,,0,7,7,7,1,last,12,28,female,L,IMT ,2021-07-12_08h43.10.951,ImageRatingTask_S3,2021.1.4,MacIntel,62.5,,,,,,,,,
,,,,,,,,,,,,,,,,,,12,28,female,L,IMT ,2021-07-12_08h43.10.951,ImageRatingTask_S3,2021.1.4,MacIntel,62.5,0,36,36,98,1,DreamStudyImages_rs1000x750g/Vehicles/Objects_280_v.jpg,,,
,,4,2.24,1,1.701,7,2.015,1,1.929,5,0.703,0,0,0,0,1,main,12,28,female,L,IMT ,2021-07-12_08h43.10.951,ImageRatingTask_S3,2021.1.4,MacIntel,62.5,,,,,,,,,
,,,,,,,,,,,,0,1,1,1,1,second,12,28,female,L,IMT ,2021-07-12_08h43.10.951,ImageRatingTask_S3,2021.1.4,MacIntel,62.5,,,,,,,,,
,,,,,,,,,,,,0,2,2,2,1,third,12,28,female,L,IMT ,2021-07-12_08h43.10.951,ImageRatingTask_S3,2021.1.4,MacIntel,62.5,,,,,,,,,
,,,,,,,,,,,,0,3,3,3,1,fourth,12,28,female,L,IMT ,2021-07-12_08h43.10.951,ImageRatingTask_S3,2021.1.4,MacIntel,62.5,,,,,,,,,
,,,,,,,,,,,,0,4,4,4,1,fifth,12,28,female,L,IMT ,2021-07-12_08h43.10.951,ImageRatingTask_S3,2021.1.4,MacIntel,62.5,,,,,,,,,
,,,,,,,,,,,,0,5,5,5,1,sixth,12,28,female,L,IMT ,2021-07-12_08h43.10.951,ImageRatingTask_S3,2021.1.4,MacIntel,62.5,,,,,,,,,
,,,,,,,,,,,,0,6,6,6,1,seventh,12,28,female,L,IMT ,2021-07-12_08h43.10.951,ImageRatingTask_S3,2021.1.4,MacIntel,62.5,,,,,,,,,
,,,,,,,,,,,,0,7,7,7,1,last,12,28,female,L,IMT ,2021-07-12_08h43.10.951,ImageRatingTask_S3,2021.1.4,MacIntel,62.5,,,,,,,,,
,,,,,,,,,,,,,,,,,,12,28,female,L,IMT ,2021-07-12_08h43.10.951,ImageRatingTask_S3,2021.1.4,MacIntel,62.5,0,37,37,39,1,DreamStudyImages_rs1000x750g/Food/food_neg.jpg,,,
,,7,12.564,1,0.642,7,1.405,1,1.125,8,0.695,0,0,0,0,1,main,12,28,female,L,IMT ,2021-07-12_08h43.10.951,ImageRatingTask_S3,2021.1.4,MacIntel,62.5,,,,,,,,,
,,,,,,,,,,,,0,1,1,1,1,second,12,28,female,L,IMT ,2021-07-12_08h43.10.951,ImageRatingTask_S3,2021.1.4,MacIntel,62.5,,,,,,,,,
,,,,,,,,,,,,0,2,2,2,1,third,12,28,female,L,IMT ,2021-07-12_08h43.10.951,ImageRatingTask_S3,2021.1.4,MacIntel,62.5,,,,,,,,,
,,,,,,,,,,,,0,3,3,3,1,fourth,12,28,female,L,IMT ,2021-07-12_08h43.10.951,ImageRatingTask_S3,2021.1.4,MacIntel,62.5,,,,,,,,,
,,,,,,,,,,,,0,4,4,4,1,fifth,12,28,female,L,IMT ,2021-07-12_08h43.10.951,ImageRatingTask_S3,2021.1.4,MacIntel,62.5,,,,,,,,,
,,,,,,,,,,,,0,5,5,5,1,sixth,12,28,female,L,IMT ,2021-07-12_08h43.10.951,ImageRatingTask_S3,2021.1.4,MacIntel,62.5,,,,,,,,,
,,,,,,,,,,,,0,6,6,6,1,seventh,12,28,female,L,IMT ,2021-07-12_08h43.10.951,ImageRatingTask_S3,2021.1.4,MacIntel,62.5,,,,,,,,,
,,,,,,,,,,,,0,7,7,7,1,last,12,28,female,L,IMT ,2021-07-12_08h43.10.951,ImageRatingTask_S3,2021.1.4,MacIntel,62.5,,,,,,,,,
,,,,,,,,,,,,,,,,,,12,28,female,L,IMT ,2021-07-12_08h43.10.951,ImageRatingTask_S3,2021.1.4,MacIntel,62.5,0,38,38,54,1,DreamStudyImages_rs1000x750g/Water/ocean.jpg,,,
,,5,9.475,2,0.446,6,2.573,1,0.789,7,0.568,0,0,0,0,1,main,12,28,female,L,IMT ,2021-07-12_08h43.10.951,ImageRatingTask_S3,2021.1.4,MacIntel,62.5,,,,,,,,,
,,,,,,,,,,,,0,1,1,1,1,second,12,28,female,L,IMT ,2021-07-12_08h43.10.951,ImageRatingTask_S3,2021.1.4,MacIntel,62.5,,,,,,,,,
,,,,,,,,,,,,0,2,2,2,1,third,12,28,female,L,IMT ,2021-07-12_08h43.10.951,ImageRatingTask_S3,2021.1.4,MacIntel,62.5,,,,,,,,,
,,,,,,,,,,,,0,3,3,3,1,fourth,12,28,female,L,IMT ,2021-07-12_08h43.10.951,ImageRatingTask_S3,2021.1.4,MacIntel,62.5,,,,,,,,,
,,,,,,,,,,,,0,4,4,4,1,fifth,12,28,female,L,IMT ,2021-07-12_08h43.10.951,ImageRatingTask_S3,2021.1.4,MacIntel,62.5,,,,,,,,,
,,,,,,,,,,,,0,5,5,5,1,sixth,12,28,female,L,IMT ,2021-07-12_08h43.10.951,ImageRatingTask_S3,2021.1.4,MacIntel,62.5,,,,,,,,,
,,,,,,,,,,,,0,6,6,6,1,seventh,12,28,female,L,IMT ,2021-07-12_08h43.10.951,ImageRatingTask_S3,2021.1.4,MacIntel,62.5,,,,,,,,,
,,,,,,,,,,,,0,7,7,7,1,last,12,28,female,L,IMT ,2021-07-12_08h43.10.951,ImageRatingTask_S3,2021.1.4,MacIntel,62.5,,,,,,,,,
,,,,,,,,,,,,,,,,,,12,28,female,L,IMT ,2021-07-12_08h43.10.951,ImageRatingTask_S3,2021.1.4,MacIntel,62.5,0,39,39,131,1,DreamStudyImages_rs1000x750g/Houses/Landscapes_014_h.jpg,,,
,,5,6.803,1,0.492,7,2.098,1,1.148,8,0.963,0,0,0,0,1,main,12,28,female,L,IMT ,2021-07-12_08h43.10.951,ImageRatingTask_S3,2021.1.4,MacIntel,62.5,,,,,,,,,
,,,,,,,,,,,,0,1,1,1,1,second,12,28,female,L,IMT ,2021-07-12_08h43.10.951,ImageRatingTask_S3,2021.1.4,MacIntel,62.5,,,,,,,,,
,,,,,,,,,,,,0,2,2,2,1,third,12,28,female,L,IMT ,2021-07-12_08h43.10.951,ImageRatingTask_S3,2021.1.4,MacIntel,62.5,,,,,,,,,
,,,,,,,,,,,,0,3,3,3,1,fourth,12,28,female,L,IMT ,2021-07-12_08h43.10.951,ImageRatingTask_S3,2021.1.4,MacIntel,62.5,,,,,,,,,
,,,,,,,,,,,,0,4,4,4,1,fifth,12,28,female,L,IMT ,2021-07-12_08h43.10.951,ImageRatingTask_S3,2021.1.4,MacIntel,62.5,,,,,,,,,
,,,,,,,,,,,,0,5,5,5,1,sixth,12,28,female,L,IMT ,2021-07-12_08h43.10.951,ImageRatingTask_S3,2021.1.4,MacIntel,62.5,,,,,,,,,
,,,,,,,,,,,,0,6,6,6,1,seventh,12,28,female,L,IMT ,2021-07-12_08h43.10.951,ImageRatingTask_S3,2021.1.4,MacIntel,62.5,,,,,,,,,
,,,,,,,,,,,,0,7,7,7,1,last,12,28,female,L,IMT ,2021-07-12_08h43.10.951,ImageRatingTask_S3,2021.1.4,MacIntel,62.5,,,,,,,,,
,,,,,,,,,,,,,,,,,,12,28,female,L,IMT ,2021-07-12_08h43.10.951,ImageRatingTask_S3,2021.1.4,MacIntel,62.5,0,40,40,155,1,DreamStudyImages_rs1000x750g/Water/Landscapes_155_h.jpg,,,
,,8,2.4,5,2.823,8,2.177,1,0.879,3,0.65,0,0,0,0,1,main,12,28,female,L,IMT ,2021-07-12_08h43.10.951,ImageRatingTask_S3,2021.1.4,MacIntel,62.5,,,,,,,,,
,,,,,,,,,,,,0,1,1,1,1,second,12,28,female,L,IMT ,2021-07-12_08h43.10.951,ImageRatingTask_S3,2021.1.4,MacIntel,62.5,,,,,,,,,
,,,,,,,,,,,,0,2,2,2,1,third,12,28,female,L,IMT ,2021-07-12_08h43.10.951,ImageRatingTask_S3,2021.1.4,MacIntel,62.5,,,,,,,,,
,,,,,,,,,,,,0,3,3,3,1,fourth,12,28,female,L,IMT ,2021-07-12_08h43.10.951,ImageRatingTask_S3,2021.1.4,MacIntel,62.5,,,,,,,,,
,,,,,,,,,,,,0,4,4,4,1,fifth,12,28,female,L,IMT ,2021-07-12_08h43.10.951,ImageRatingTask_S3,2021.1.4,MacIntel,62.5,,,,,,,,,
,,,,,,,,,,,,0,5,5,5,1,sixth,12,28,female,L,IMT ,2021-07-12_08h43.10.951,ImageRatingTask_S3,2021.1.4,MacIntel,62.5,,,,,,,,,
,,,,,,,,,,,,0,6,6,6,1,seventh,12,28,female,L,IMT ,2021-07-12_08h43.10.951,ImageRatingTask_S3,2021.1.4,MacIntel,62.5,,,,,,,,,
,,,,,,,,,,,,0,7,7,7,1,last,12,28,female,L,IMT ,2021-07-12_08h43.10.951,ImageRatingTask_S3,2021.1.4,MacIntel,62.5,,,,,,,,,
,,,,,,,,,,,,,,,,,,12,28,female,L,IMT ,2021-07-12_08h43.10.951,ImageRatingTask_S3,2021.1.4,MacIntel,62.5,0,41,41,138,1,DreamStudyImages_rs1000x750g/Mammals/Animals_202_h.jpg,,,
,,6,1.868,1,0.598,4,1.681,1,0.879,5,0.445,0,0,0,0,1,main,12,28,female,L,IMT ,2021-07-12_08h43.10.951,ImageRatingTask_S3,2021.1.4,MacIntel,62.5,,,,,,,,,
,,,,,,,,,,,,0,1,1,1,1,second,12,28,female,L,IMT ,2021-07-12_08h43.10.951,ImageRatingTask_S3,2021.1.4,MacIntel,62.5,,,,,,,,,
,,,,,,,,,,,,0,2,2,2,1,third,12,28,female,L,IMT ,2021-07-12_08h43.10.951,ImageRatingTask_S3,2021.1.4,MacIntel,62.5,,,,,,,,,
,,,,,,,,,,,,0,3,3,3,1,fourth,12,28,female,L,IMT ,2021-07-12_08h43.10.951,ImageRatingTask_S3,2021.1.4,MacIntel,62.5,,,,,,,,,
,,,,,,,,,,,,0,4,4,4,1,fifth,12,28,female,L,IMT ,2021-07-12_08h43.10.951,ImageRatingTask_S3,2021.1.4,MacIntel,62.5,,,,,,,,,
,,,,,,,,,,,,0,5,5,5,1,sixth,12,28,female,L,IMT ,2021-07-12_08h43.10.951,ImageRatingTask_S3,2021.1.4,MacIntel,62.5,,,,,,,,,
,,,,,,,,,,,,0,6,6,6,1,seventh,12,28,female,L,IMT ,2021-07-12_08h43.10.951,ImageRatingTask_S3,2021.1.4,MacIntel,62.5,,,,,,,,,
,,,,,,,,,,,,0,7,7,7,1,last,12,28,female,L,IMT ,2021-07-12_08h43.10.951,ImageRatingTask_S3,2021.1.4,MacIntel,62.5,,,,,,,,,
,,,,,,,,,,,,,,,,,,12,28,female,L,IMT ,2021-07-12_08h43.10.951,ImageRatingTask_S3,2021.1.4,MacIntel,62.5,0,42,42,118,1,DreamStudyImages_rs1000x750g/Food/IAPS7200_brownie.jpg,,,
,,5,1.695,1,0.494,6,1.285,1,0.756,6,1.095,0,0,0,0,1,main,12,28,female,L,IMT ,2021-07-12_08h43.10.951,ImageRatingTask_S3,2021.1.4,MacIntel,62.5,,,,,,,,,
,,,,,,,,,,,,0,1,1,1,1,second,12,28,female,L,IMT ,2021-07-12_08h43.10.951,ImageRatingTask_S3,2021.1.4,MacIntel,62.5,,,,,,,,,
,,,,,,,,,,,,0,2,2,2,1,third,12,28,female,L,IMT ,2021-07-12_08h43.10.951,ImageRatingTask_S3,2021.1.4,MacIntel,62.5,,,,,,,,,
,,,,,,,,,,,,0,3,3,3,1,fourth,12,28,female,L,IMT ,2021-07-12_08h43.10.951,ImageRatingTask_S3,2021.1.4,MacIntel,62.5,,,,,,,,,
,,,,,,,,,,,,0,4,4,4,1,fifth,12,28,female,L,IMT ,2021-07-12_08h43.10.951,ImageRatingTask_S3,2021.1.4,MacIntel,62.5,,,,,,,,,
,,,,,,,,,,,,0,5,5,5,1,sixth,12,28,female,L,IMT ,2021-07-12_08h43.10.951,ImageRatingTask_S3,2021.1.4,MacIntel,62.5,,,,,,,,,
,,,,,,,,,,,,0,6,6,6,1,seventh,12,28,female,L,IMT ,2021-07-12_08h43.10.951,ImageRatingTask_S3,2021.1.4,MacIntel,62.5,,,,,,,,,
,,,,,,,,,,,,0,7,7,7,1,last,12,28,female,L,IMT ,2021-07-12_08h43.10.951,ImageRatingTask_S3,2021.1.4,MacIntel,62.5,,,,,,,,,
,,,,,,,,,,,,,,,,,,12,28,female,L,IMT ,2021-07-12_08h43.10.951,ImageRatingTask_S3,2021.1.4,MacIntel,62.5,0,43,43,99,1,DreamStudyImages_rs1000x750g/Houses/Landscapes_082_v_CROPPED.jpg,,,
,,5,1.996,1,0.565,7,1.379,1,1.524,3,0.644,0,0,0,0,1,main,12,28,female,L,IMT ,2021-07-12_08h43.10.951,ImageRatingTask_S3,2021.1.4,MacIntel,62.5,,,,,,,,,
,,,,,,,,,,,,0,1,1,1,1,second,12,28,female,L,IMT ,2021-07-12_08h43.10.951,ImageRatingTask_S3,2021.1.4,MacIntel,62.5,,,,,,,,,
,,,,,,,,,,,,0,2,2,2,1,third,12,28,female,L,IMT ,2021-07-12_08h43.10.951,ImageRatingTask_S3,2021.1.4,MacIntel,62.5,,,,,,,,,
,,,,,,,,,,,,0,3,3,3,1,fourth,12,28,female,L,IMT ,2021-07-12_08h43.10.951,ImageRatingTask_S3,2021.1.4,MacIntel,62.5,,,,,,,,,
,,,,,,,,,,,,0,4,4,4,1,fifth,12,28,female,L,IMT ,2021-07-12_08h43.10.951,ImageRatingTask_S3,2021.1.4,MacIntel,62.5,,,,,,,,,
,,,,,,,,,,,,0,5,5,5,1,sixth,12,28,female,L,IMT ,2021-07-12_08h43.10.951,ImageRatingTask_S3,2021.1.4,MacIntel,62.5,,,,,,,,,
,,,,,,,,,,,,0,6,6,6,1,seventh,12,28,female,L,IMT ,2021-07-12_08h43.10.951,ImageRatingTask_S3,2021.1.4,MacIntel,62.5,,,,,,,,,
,,,,,,,,,,,,0,7,7,7,1,last,12,28,female,L,IMT ,2021-07-12_08h43.10.951,ImageRatingTask_S3,2021.1.4,MacIntel,62.5,,,,,,,,,
,,,,,,,,,,,,,,,,,,12,28,female,L,IMT ,2021-07-12_08h43.10.951,ImageRatingTask_S3,2021.1.4,MacIntel,62.5,0,44,44,15,1,DreamStudyImages_rs1000x750g/Mammals/Animals_050_h.jpg,,,
,,6,1.949,1,0.625,4,1.522,1,0.754,3,3.795,0,0,0,0,1,main,12,28,female,L,IMT ,2021-07-12_08h43.10.951,ImageRatingTask_S3,2021.1.4,MacIntel,62.5,,,,,,,,,
,,,,,,,,,,,,0,1,1,1,1,second,12,28,female,L,IMT ,2021-07-12_08h43.10.951,ImageRatingTask_S3,2021.1.4,MacIntel,62.5,,,,,,,,,
,,,,,,,,,,,,0,2,2,2,1,third,12,28,female,L,IMT ,2021-07-12_08h43.10.951,ImageRatingTask_S3,2021.1.4,MacIntel,62.5,,,,,,,,,
,,,,,,,,,,,,0,3,3,3,1,fourth,12,28,female,L,IMT ,2021-07-12_08h43.10.951,ImageRatingTask_S3,2021.1.4,MacIntel,62.5,,,,,,,,,
,,,,,,,,,,,,0,4,4,4,1,fifth,12,28,female,L,IMT ,2021-07-12_08h43.10.951,ImageRatingTask_S3,2021.1.4,MacIntel,62.5,,,,,,,,,
,,,,,,,,,,,,0,5,5,5,1,sixth,12,28,female,L,IMT ,2021-07-12_08h43.10.951,ImageRatingTask_S3,2021.1.4,MacIntel,62.5,,,,,,,,,
,,,,,,,,,,,,0,6,6,6,1,seventh,12,28,female,L,IMT ,2021-07-12_08h43.10.951,ImageRatingTask_S3,2021.1.4,MacIntel,62.5,,,,,,,,,
,,,,,,,,,,,,0,7,7,7,1,last,12,28,female,L,IMT ,2021-07-12_08h43.10.951,ImageRatingTask_S3,2021.1.4,MacIntel,62.5,,,,,,,,,
,,,,,,,,,,,,,,,,,,12,28,female,L,IMT ,2021-07-12_08h43.10.951,ImageRatingTask_S3,2021.1.4,MacIntel,62.5,0,45,45,47,1,DreamStudyImages_rs1000x750g/Mammals/Animal carcass 3.jpg,,,
,,6,2.04,1,0.753,7,1.607,1,1.38,2,0.544,0,0,0,0,1,main,12,28,female,L,IMT ,2021-07-12_08h43.10.951,ImageRatingTask_S3,2021.1.4,MacIntel,62.5,,,,,,,,,
,,,,,,,,,,,,0,1,1,1,1,second,12,28,female,L,IMT ,2021-07-12_08h43.10.951,ImageRatingTask_S3,2021.1.4,MacIntel,62.5,,,,,,,,,
,,,,,,,,,,,,0,2,2,2,1,third,12,28,female,L,IMT ,2021-07-12_08h43.10.951,ImageRatingTask_S3,2021.1.4,MacIntel,62.5,,,,,,,,,
,,,,,,,,,,,,0,3,3,3,1,fourth,12,28,female,L,IMT ,2021-07-12_08h43.10.951,ImageRatingTask_S3,2021.1.4,MacIntel,62.5,,,,,,,,,
,,,,,,,,,,,,0,4,4,4,1,fifth,12,28,female,L,IMT ,2021-07-12_08h43.10.951,ImageRatingTask_S3,2021.1.4,MacIntel,62.5,,,,,,,,,
,,,,,,,,,,,,0,5,5,5,1,sixth,12,28,female,L,IMT ,2021-07-12_08h43.10.951,ImageRatingTask_S3,2021.1.4,MacIntel,62.5,,,,,,,,,
,,,,,,,,,,,,0,6,6,6,1,seventh,12,28,female,L,IMT ,2021-07-12_08h43.10.951,ImageRatingTask_S3,2021.1.4,MacIntel,62.5,,,,,,,,,
,,,,,,,,,,,,0,7,7,7,1,last,12,28,female,L,IMT ,2021-07-12_08h43.10.951,ImageRatingTask_S3,2021.1.4,MacIntel,62.5,,,,,,,,,
,,,,,,,,,,,,,,,,,,12,28,female,L,IMT ,2021-07-12_08h43.10.951,ImageRatingTask_S3,2021.1.4,MacIntel,62.5,0,46,46,27,1,DreamStudyImages_rs1000x750g/Children/Gazing 3.jpg,,,
,,5,11.186,1,1.1,6,1.698,0,0.923,,,0,0,0,0,1,main,12,28,female,L,IMT ,2021-07-12_08h43.10.951,ImageRatingTask_S3,2021.1.4,MacIntel,62.5,,,,,,,,,
,,,,,,,,,,,,0,1,1,1,1,second,12,28,female,L,IMT ,2021-07-12_08h43.10.951,ImageRatingTask_S3,2021.1.4,MacIntel,62.5,,,,,,,,,
,,,,,,,,,,,,0,2,2,2,1,third,12,28,female,L,IMT ,2021-07-12_08h43.10.951,ImageRatingTask_S3,2021.1.4,MacIntel,62.5,,,,,,,,,
,,,,,,,,,,,,0,3,3,3,1,fourth,12,28,female,L,IMT ,2021-07-12_08h43.10.951,ImageRatingTask_S3,2021.1.4,MacIntel,62.5,,,,,,,,,
,,,,,,,,,,,,0,4,4,4,1,fifth,12,28,female,L,IMT ,2021-07-12_08h43.10.951,ImageRatingTask_S3,2021.1.4,MacIntel,62.5,,,,,,,,,
,,,,,,,,,,,,0,5,5,5,1,sixth,12,28,female,L,IMT ,2021-07-12_08h43.10.951,ImageRatingTask_S3,2021.1.4,MacIntel,62.5,,,,,,,,,
,,,,,,,,,,,,0,6,6,6,1,seventh,12,28,female,L,IMT ,2021-07-12_08h43.10.951,ImageRatingTask_S3,2021.1.4,MacIntel,62.5,,,,,,,,,
,,,,,,,,,,,,0,7,7,7,1,last,12,28,female,L,IMT ,2021-07-12_08h43.10.951,ImageRatingTask_S3,2021.1.4,MacIntel,62.5,,,,,,,,,
,,,,,,,,,,,,,,,,,,12,28,female,L,IMT ,2021-07-12_08h43.10.951,ImageRatingTask_S3,2021.1.4,MacIntel,62.5,0,47,47,14,1,DreamStudyImages_rs1000x750g/Food/Objects_022_h.jpg,,,
,,7,2.619,3,0.747,7,1.448,1,0.77,3,0.251,0,0,0,0,1,main,12,28,female,L,IMT ,2021-07-12_08h43.10.951,ImageRatingTask_S3,2021.1.4,MacIntel,62.5,,,,,,,,,
,,,,,,,,,,,,0,1,1,1,1,second,12,28,female,L,IMT ,2021-07-12_08h43.10.951,ImageRatingTask_S3,2021.1.4,MacIntel,62.5,,,,,,,,,
,,,,,,,,,,,,0,2,2,2,1,third,12,28,female,L,IMT ,2021-07-12_08h43.10.951,ImageRatingTask_S3,2021.1.4,MacIntel,62.5,,,,,,,,,
,,,,,,,,,,,,0,3,3,3,1,fourth,12,28,female,L,IMT ,2021-07-12_08h43.10.951,ImageRatingTask_S3,2021.1.4,MacIntel,62.5,,,,,,,,,
,,,,,,,,,,,,0,4,4,4,1,fifth,12,28,female,L,IMT ,2021-07-12_08h43.10.951,ImageRatingTask_S3,2021.1.4,MacIntel,62.5,,,,,,,,,
,,,,,,,,,,,,0,5,5,5,1,sixth,12,28,female,L,IMT ,2021-07-12_08h43.10.951,ImageRatingTask_S3,2021.1.4,MacIntel,62.5,,,,,,,,,
,,,,,,,,,,,,0,6,6,6,1,seventh,12,28,female,L,IMT ,2021-07-12_08h43.10.951,ImageRatingTask_S3,2021.1.4,MacIntel,62.5,,,,,,,,,
,,,,,,,,,,,,0,7,7,7,1,last,12,28,female,L,IMT ,2021-07-12_08h43.10.951,ImageRatingTask_S3,2021.1.4,MacIntel,62.5,,,,,,,,,
,,,,,,,,,,,,,,,,,,12,28,female,L,IMT ,2021-07-12_08h43.10.951,ImageRatingTask_S3,2021.1.4,MacIntel,62.5,0,48,48,127,1,DreamStudyImages_rs1000x750g/Mammals/Animals_192_h.jpg,,,
,,5,4.467,1,0.478,5,3.398,1,0.694,5,0.419,0,0,0,0,1,main,12,28,female,L,IMT ,2021-07-12_08h43.10.951,ImageRatingTask_S3,2021.1.4,MacIntel,62.5,,,,,,,,,
,,,,,,,,,,,,0,1,1,1,1,second,12,28,female,L,IMT ,2021-07-12_08h43.10.951,ImageRatingTask_S3,2021.1.4,MacIntel,62.5,,,,,,,,,
,,,,,,,,,,,,0,2,2,2,1,third,12,28,female,L,IMT ,2021-07-12_08h43.10.951,ImageRatingTask_S3,2021.1.4,MacIntel,62.5,,,,,,,,,
,,,,,,,,,,,,0,3,3,3,1,fourth,12,28,female,L,IMT ,2021-07-12_08h43.10.951,ImageRatingTask_S3,2021.1.4,MacIntel,62.5,,,,,,,,,
,,,,,,,,,,,,0,4,4,4,1,fifth,12,28,female,L,IMT ,2021-07-12_08h43.10.951,ImageRatingTask_S3,2021.1.4,MacIntel,62.5,,,,,,,,,
,,,,,,,,,,,,0,5,5,5,1,sixth,12,28,female,L,IMT ,2021-07-12_08h43.10.951,ImageRatingTask_S3,2021.1.4,MacIntel,62.5,,,,,,,,,
,,,,,,,,,,,,0,6,6,6,1,seventh,12,28,female,L,IMT ,2021-07-12_08h43.10.951,ImageRatingTask_S3,2021.1.4,MacIntel,62.5,,,,,,,,,
,,,,,,,,,,,,0,7,7,7,1,last,12,28,female,L,IMT ,2021-07-12_08h43.10.951,ImageRatingTask_S3,2021.1.4,MacIntel,62.5,,,,,,,,,
,,,,,,,,,,,,,,,,,,12,28,female,L,IMT ,2021-07-12_08h43.10.951,ImageRatingTask_S3,2021.1.4,MacIntel,62.5,0,49,49,37,1,DreamStudyImages_rs1000x750g/Food/Objects_006_h.jpg,,,
,,6,1.814,1,0.522,4,1.408,1,0.697,8,0.65,0,0,0,0,1,main,12,28,female,L,IMT ,2021-07-12_08h43.10.951,ImageRatingTask_S3,2021.1.4,MacIntel,62.5,,,,,,,,,
,,,,,,,,,,,,0,1,1,1,1,second,12,28,female,L,IMT ,2021-07-12_08h43.10.951,ImageRatingTask_S3,2021.1.4,MacIntel,62.5,,,,,,,,,
,,,,,,,,,,,,0,2,2,2,1,third,12,28,female,L,IMT ,2021-07-12_08h43.10.951,ImageRatingTask_S3,2021.1.4,MacIntel,62.5,,,,,,,,,
,,,,,,,,,,,,0,3,3,3,1,fourth,12,28,female,L,IMT ,2021-07-12_08h43.10.951,ImageRatingTask_S3,2021.1.4,MacIntel,62.5,,,,,,,,,
,,,,,,,,,,,,0,4,4,4,1,fifth,12,28,female,L,IMT ,2021-07-12_08h43.10.951,ImageRatingTask_S3,2021.1.4,MacIntel,62.5,,,,,,,,,
,,,,,,,,,,,,0,5,5,5,1,sixth,12,28,female,L,IMT ,2021-07-12_08h43.10.951,ImageRatingTask_S3,2021.1.4,MacIntel,62.5,,,,,,,,,
,,,,,,,,,,,,0,6,6,6,1,seventh,12,28,female,L,IMT ,2021-07-12_08h43.10.951,ImageRatingTask_S3,2021.1.4,MacIntel,62.5,,,,,,,,,
,,,,,,,,,,,,0,7,7,7,1,last,12,28,female,L,IMT ,2021-07-12_08h43.10.951,ImageRatingTask_S3,2021.1.4,MacIntel,62.5,,,,,,,,,
,,,,,,,,,,,,,,,,,,12,28,female,L,IMT ,2021-07-12_08h43.10.951,ImageRatingTask_S3,2021.1.4,MacIntel,62.5,0,50,50,65,1,DreamStudyImages_rs1000x750g/Water/5270.jpg,,,
,,7,2.537,3,0.831,5,2.632,1,0.578,2,0.582,0,0,0,0,1,main,12,28,female,L,IMT ,2021-07-12_08h43.10.951,ImageRatingTask_S3,2021.1.4,MacIntel,62.5,,,,,,,,,
,,,,,,,,,,,,0,1,1,1,1,second,12,28,female,L,IMT ,2021-07-12_08h43.10.951,ImageRatingTask_S3,2021.1.4,MacIntel,62.5,,,,,,,,,
,,,,,,,,,,,,0,2,2,2,1,third,12,28,female,L,IMT ,2021-07-12_08h43.10.951,ImageRatingTask_S3,2021.1.4,MacIntel,62.5,,,,,,,,,
,,,,,,,,,,,,0,3,3,3,1,fourth,12,28,female,L,IMT ,2021-07-12_08h43.10.951,ImageRatingTask_S3,2021.1.4,MacIntel,62.5,,,,,,,,,
,,,,,,,,,,,,0,4,4,4,1,fifth,12,28,female,L,IMT ,2021-07-12_08h43.10.951,ImageRatingTask_S3,2021.1.4,MacIntel,62.5,,,,,,,,,
,,,,,,,,,,,,0,5,5,5,1,sixth,12,28,female,L,IMT ,2021-07-12_08h43.10.951,ImageRatingTask_S3,2021.1.4,MacIntel,62.5,,,,,,,,,
,,,,,,,,,,,,0,6,6,6,1,seventh,12,28,female,L,IMT ,2021-07-12_08h43.10.951,ImageRatingTask_S3,2021.1.4,MacIntel,62.5,,,,,,,,,
,,,,,,,,,,,,0,7,7,7,1,last,12,28,female,L,IMT ,2021-07-12_08h43.10.951,ImageRatingTask_S3,2021.1.4,MacIntel,62.5,,,,,,,,,
,,,,,,,,,,,,,,,,,,12,28,female,L,IMT ,2021-07-12_08h43.10.951,ImageRatingTask_S3,2021.1.4,MacIntel,62.5,0,51,51,62,1,DreamStudyImages_rs1000x750g/Children/Baby 2.jpg,,,
,,6,1.786,1,0.532,7,1.944,1,0.658,3,0.232,0,0,0,0,1,main,12,28,female,L,IMT ,2021-07-12_08h43.10.951,ImageRatingTask_S3,2021.1.4,MacIntel,62.5,,,,,,,,,
,,,,,,,,,,,,0,1,1,1,1,second,12,28,female,L,IMT ,2021-07-12_08h43.10.951,ImageRatingTask_S3,2021.1.4,MacIntel,62.5,,,,,,,,,
,,,,,,,,,,,,0,2,2,2,1,third,12,28,female,L,IMT ,2021-07-12_08h43.10.951,ImageRatingTask_S3,2021.1.4,MacIntel,62.5,,,,,,,,,
,,,,,,,,,,,,0,3,3,3,1,fourth,12,28,female,L,IMT ,2021-07-12_08h43.10.951,ImageRatingTask_S3,2021.1.4,MacIntel,62.5,,,,,,,,,
,,,,,,,,,,,,0,4,4,4,1,fifth,12,28,female,L,IMT ,2021-07-12_08h43.10.951,ImageRatingTask_S3,2021.1.4,MacIntel,62.5,,,,,,,,,
,,,,,,,,,,,,0,5,5,5,1,sixth,12,28,female,L,IMT ,2021-07-12_08h43.10.951,ImageRatingTask_S3,2021.1.4,MacIntel,62.5,,,,,,,,,
,,,,,,,,,,,,0,6,6,6,1,seventh,12,28,female,L,IMT ,2021-07-12_08h43.10.951,ImageRatingTask_S3,2021.1.4,MacIntel,62.5,,,,,,,,,
,,,,,,,,,,,,0,7,7,7,1,last,12,28,female,L,IMT ,2021-07-12_08h43.10.951,ImageRatingTask_S3,2021.1.4,MacIntel,62.5,,,,,,,,,
,,,,,,,,,,,,,,,,,,12,28,female,L,IMT ,2021-07-12_08h43.10.951,ImageRatingTask_S3,2021.1.4,MacIntel,62.5,0,52,52,143,1,DreamStudyImages_rs1000x750g/Mammals/IAPS1505_dog7.jpg,,,
,,5,2.322,1,0.42,6,1.299,1,0.724,7,0.612,0,0,0,0,1,main,12,28,female,L,IMT ,2021-07-12_08h43.10.951,ImageRatingTask_S3,2021.1.4,MacIntel,62.5,,,,,,,,,
,,,,,,,,,,,,0,1,1,1,1,second,12,28,female,L,IMT ,2021-07-12_08h43.10.951,ImageRatingTask_S3,2021.1.4,MacIntel,62.5,,,,,,,,,
,,,,,,,,,,,,0,2,2,2,1,third,12,28,female,L,IMT ,2021-07-12_08h43.10.951,ImageRatingTask_S3,2021.1.4,MacIntel,62.5,,,,,,,,,
,,,,,,,,,,,,0,3,3,3,1,fourth,12,28,female,L,IMT ,2021-07-12_08h43.10.951,ImageRatingTask_S3,2021.1.4,MacIntel,62.5,,,,,,,,,
,,,,,,,,,,,,0,4,4,4,1,fifth,12,28,female,L,IMT ,2021-07-12_08h43.10.951,ImageRatingTask_S3,2021.1.4,MacIntel,62.5,,,,,,,,,
,,,,,,,,,,,,0,5,5,5,1,sixth,12,28,female,L,IMT ,2021-07-12_08h43.10.951,ImageRatingTask_S3,2021.1.4,MacIntel,62.5,,,,,,,,,
,,,,,,,,,,,,0,6,6,6,1,seventh,12,28,female,L,IMT ,2021-07-12_08h43.10.951,ImageRatingTask_S3,2021.1.4,MacIntel,62.5,,,,,,,,,
,,,,,,,,,,,,0,7,7,7,1,last,12,28,female,L,IMT ,2021-07-12_08h43.10.951,ImageRatingTask_S3,2021.1.4,MacIntel,62.5,,,,,,,,,
,,,,,,,,,,,,,,,,,,12,28,female,L,IMT ,2021-07-12_08h43.10.951,ImageRatingTask_S3,2021.1.4,MacIntel,62.5,0,53,53,152,1,DreamStudyImages_rs1000x750g/Vehicles/truck_CROPPED.jpg,,,
,,5,2.453,1,0.389,7,1.389,1,1.106,2,1.946,0,0,0,0,1,main,12,28,female,L,IMT ,2021-07-12_08h43.10.951,ImageRatingTask_S3,2021.1.4,MacIntel,62.5,,,,,,,,,
,,,,,,,,,,,,0,1,1,1,1,second,12,28,female,L,IMT ,2021-07-12_08h43.10.951,ImageRatingTask_S3,2021.1.4,MacIntel,62.5,,,,,,,,,
,,,,,,,,,,,,0,2,2,2,1,third,12,28,female,L,IMT ,2021-07-12_08h43.10.951,ImageRatingTask_S3,2021.1.4,MacIntel,62.5,,,,,,,,,
,,,,,,,,,,,,0,3,3,3,1,fourth,12,28,female,L,IMT ,2021-07-12_08h43.10.951,ImageRatingTask_S3,2021.1.4,MacIntel,62.5,,,,,,,,,
,,,,,,,,,,,,0,4,4,4,1,fifth,12,28,female,L,IMT ,2021-07-12_08h43.10.951,ImageRatingTask_S3,2021.1.4,MacIntel,62.5,,,,,,,,,
,,,,,,,,,,,,0,5,5,5,1,sixth,12,28,female,L,IMT ,2021-07-12_08h43.10.951,ImageRatingTask_S3,2021.1.4,MacIntel,62.5,,,,,,,,,
,,,,,,,,,,,,0,6,6,6,1,seventh,12,28,female,L,IMT ,2021-07-12_08h43.10.951,ImageRatingTask_S3,2021.1.4,MacIntel,62.5,,,,,,,,,
,,,,,,,,,,,,0,7,7,7,1,last,12,28,female,L,IMT ,2021-07-12_08h43.10.951,ImageRatingTask_S3,2021.1.4,MacIntel,62.5,,,,,,,,,
,,,,,,,,,,,,,,,,,,12,28,female,L,IMT ,2021-07-12_08h43.10.951,ImageRatingTask_S3,2021.1.4,MacIntel,62.5,0,54,54,139,1,DreamStudyImages_rs1000x750g/Children/People_033_h.jpg,,,
,,4,1.588,1,0.814,7,1.54,1,1.049,2,0.259,0,0,0,0,1,main,12,28,female,L,IMT ,2021-07-12_08h43.10.951,ImageRatingTask_S3,2021.1.4,MacIntel,62.5,,,,,,,,,
,,,,,,,,,,,,0,1,1,1,1,second,12,28,female,L,IMT ,2021-07-12_08h43.10.951,ImageRatingTask_S3,2021.1.4,MacIntel,62.5,,,,,,,,,
,,,,,,,,,,,,0,2,2,2,1,third,12,28,female,L,IMT ,2021-07-12_08h43.10.951,ImageRatingTask_S3,2021.1.4,MacIntel,62.5,,,,,,,,,
,,,,,,,,,,,,0,3,3,3,1,fourth,12,28,female,L,IMT ,2021-07-12_08h43.10.951,ImageRatingTask_S3,2021.1.4,MacIntel,62.5,,,,,,,,,
,,,,,,,,,,,,0,4,4,4,1,fifth,12,28,female,L,IMT ,2021-07-12_08h43.10.951,ImageRatingTask_S3,2021.1.4,MacIntel,62.5,,,,,,,,,
,,,,,,,,,,,,0,5,5,5,1,sixth,12,28,female,L,IMT ,2021-07-12_08h43.10.951,ImageRatingTask_S3,2021.1.4,MacIntel,62.5,,,,,,,,,
,,,,,,,,,,,,0,6,6,6,1,seventh,12,28,female,L,IMT ,2021-07-12_08h43.10.951,ImageRatingTask_S3,2021.1.4,MacIntel,62.5,,,,,,,,,
,,,,,,,,,,,,0,7,7,7,1,last,12,28,female,L,IMT ,2021-07-12_08h43.10.951,ImageRatingTask_S3,2021.1.4,MacIntel,62.5,,,,,,,,,
,,,,,,,,,,,,,,,,,,12,28,female,L,IMT ,2021-07-12_08h43.10.951,ImageRatingTask_S3,2021.1.4,MacIntel,62.5,0,55,55,71,1,DreamStudyImages_rs1000x750g/Children/Faces_032_h.jpg,,,
,,6,1.85,1,0.608,6,3.339,1,0.842,8,0.495,0,0,0,0,1,main,12,28,female,L,IMT ,2021-07-12_08h43.10.951,ImageRatingTask_S3,2021.1.4,MacIntel,62.5,,,,,,,,,
,,,,,,,,,,,,0,1,1,1,1,second,12,28,female,L,IMT ,2021-07-12_08h43.10.951,ImageRatingTask_S3,2021.1.4,MacIntel,62.5,,,,,,,,,
,,,,,,,,,,,,0,2,2,2,1,third,12,28,female,L,IMT ,2021-07-12_08h43.10.951,ImageRatingTask_S3,2021.1.4,MacIntel,62.5,,,,,,,,,
,,,,,,,,,,,,0,3,3,3,1,fourth,12,28,female,L,IMT ,2021-07-12_08h43.10.951,ImageRatingTask_S3,2021.1.4,MacIntel,62.5,,,,,,,,,
,,,,,,,,,,,,0,4,4,4,1,fifth,12,28,female,L,IMT ,2021-07-12_08h43.10.951,ImageRatingTask_S3,2021.1.4,MacIntel,62.5,,,,,,,,,
,,,,,,,,,,,,0,5,5,5,1,sixth,12,28,female,L,IMT ,2021-07-12_08h43.10.951,ImageRatingTask_S3,2021.1.4,MacIntel,62.5,,,,,,,,,
,,,,,,,,,,,,0,6,6,6,1,seventh,12,28,female,L,IMT ,2021-07-12_08h43.10.951,ImageRatingTask_S3,2021.1.4,MacIntel,62.5,,,,,,,,,
,,,,,,,,,,,,0,7,7,7,1,last,12,28,female,L,IMT ,2021-07-12_08h43.10.951,ImageRatingTask_S3,2021.1.4,MacIntel,62.5,,,,,,,,,
,,,,,,,,,,,,,,,,,,12,28,female,L,IMT ,2021-07-12_08h43.10.951,ImageRatingTask_S3,2021.1.4,MacIntel,62.5,0,56,56,124,1,DreamStudyImages_rs1000x750g/Water/Beach 2.jpg,,,
,,5,2.629,1,0.447,6,1.423,1,0.898,3,1.327,0,0,0,0,1,main,12,28,female,L,IMT ,2021-07-12_08h43.10.951,ImageRatingTask_S3,2021.1.4,MacIntel,62.5,,,,,,,,,
,,,,,,,,,,,,0,1,1,1,1,second,12,28,female,L,IMT ,2021-07-12_08h43.10.951,ImageRatingTask_S3,2021.1.4,MacIntel,62.5,,,,,,,,,
,,,,,,,,,,,,0,2,2,2,1,third,12,28,female,L,IMT ,2021-07-12_08h43.10.951,ImageRatingTask_S3,2021.1.4,MacIntel,62.5,,,,,,,,,
,,,,,,,,,,,,0,3,3,3,1,fourth,12,28,female,L,IMT ,2021-07-12_08h43.10.951,ImageRatingTask_S3,2021.1.4,MacIntel,62.5,,,,,,,,,
,,,,,,,,,,,,0,4,4,4,1,fifth,12,28,female,L,IMT ,2021-07-12_08h43.10.951,ImageRatingTask_S3,2021.1.4,MacIntel,62.5,,,,,,,,,
,,,,,,,,,,,,0,5,5,5,1,sixth,12,28,female,L,IMT ,2021-07-12_08h43.10.951,ImageRatingTask_S3,2021.1.4,MacIntel,62.5,,,,,,,,,
,,,,,,,,,,,,0,6,6,6,1,seventh,12,28,female,L,IMT ,2021-07-12_08h43.10.951,ImageRatingTask_S3,2021.1.4,MacIntel,62.5,,,,,,,,,
,,,,,,,,,,,,0,7,7,7,1,last,12,28,female,L,IMT ,2021-07-12_08h43.10.951,ImageRatingTask_S3,2021.1.4,MacIntel,62.5,,,,,,,,,
,,,,,,,,,,,,,,,,,,12,28,female,L,IMT ,2021-07-12_08h43.10.951,ImageRatingTask_S3,2021.1.4,MacIntel,62.5,0,57,57,7,1,DreamStudyImages_rs1000x750g/Mammals/Monkey 1.jpg,,,
,,7,1.689,1,0.764,5,2.165,1,0.723,5,0.565,0,0,0,0,1,main,12,28,female,L,IMT ,2021-07-12_08h43.10.951,ImageRatingTask_S3,2021.1.4,MacIntel,62.5,,,,,,,,,
,,,,,,,,,,,,0,1,1,1,1,second,12,28,female,L,IMT ,2021-07-12_08h43.10.951,ImageRatingTask_S3,2021.1.4,MacIntel,62.5,,,,,,,,,
,,,,,,,,,,,,0,2,2,2,1,third,12,28,female,L,IMT ,2021-07-12_08h43.10.951,ImageRatingTask_S3,2021.1.4,MacIntel,62.5,,,,,,,,,
,,,,,,,,,,,,0,3,3,3,1,fourth,12,28,female,L,IMT ,2021-07-12_08h43.10.951,ImageRatingTask_S3,2021.1.4,MacIntel,62.5,,,,,,,,,
,,,,,,,,,,,,0,4,4,4,1,fifth,12,28,female,L,IMT ,2021-07-12_08h43.10.951,ImageRatingTask_S3,2021.1.4,MacIntel,62.5,,,,,,,,,
,,,,,,,,,,,,0,5,5,5,1,sixth,12,28,female,L,IMT ,2021-07-12_08h43.10.951,ImageRatingTask_S3,2021.1.4,MacIntel,62.5,,,,,,,,,
,,,,,,,,,,,,0,6,6,6,1,seventh,12,28,female,L,IMT ,2021-07-12_08h43.10.951,ImageRatingTask_S3,2021.1.4,MacIntel,62.5,,,,,,,,,
,,,,,,,,,,,,0,7,7,7,1,last,12,28,female,L,IMT ,2021-07-12_08h43.10.951,ImageRatingTask_S3,2021.1.4,MacIntel,62.5,,,,,,,,,
,,,,,,,,,,,,,,,,,,12,28,female,L,IMT ,2021-07-12_08h43.10.951,ImageRatingTask_S3,2021.1.4,MacIntel,62.5,0,58,58,105,1,DreamStudyImages_rs1000x750g/Food/IAPS7350_pizza.jpg,,,
,,3,1.696,1,0.589,7,1.991,1,0.954,3,0.694,0,0,0,0,1,main,12,28,female,L,IMT ,2021-07-12_08h43.10.951,ImageRatingTask_S3,2021.1.4,MacIntel,62.5,,,,,,,,,
,,,,,,,,,,,,0,1,1,1,1,second,12,28,female,L,IMT ,2021-07-12_08h43.10.951,ImageRatingTask_S3,2021.1.4,MacIntel,62.5,,,,,,,,,
,,,,,,,,,,,,0,2,2,2,1,third,12,28,female,L,IMT ,2021-07-12_08h43.10.951,ImageRatingTask_S3,2021.1.4,MacIntel,62.5,,,,,,,,,
,,,,,,,,,,,,0,3,3,3,1,fourth,12,28,female,L,IMT ,2021-07-12_08h43.10.951,ImageRatingTask_S3,2021.1.4,MacIntel,62.5,,,,,,,,,
,,,,,,,,,,,,0,4,4,4,1,fifth,12,28,female,L,IMT ,2021-07-12_08h43.10.951,ImageRatingTask_S3,2021.1.4,MacIntel,62.5,,,,,,,,,
,,,,,,,,,,,,0,5,5,5,1,sixth,12,28,female,L,IMT ,2021-07-12_08h43.10.951,ImageRatingTask_S3,2021.1.4,MacIntel,62.5,,,,,,,,,
,,,,,,,,,,,,0,6,6,6,1,seventh,12,28,female,L,IMT ,2021-07-12_08h43.10.951,ImageRatingTask_S3,2021.1.4,MacIntel,62.5,,,,,,,,,
,,,,,,,,,,,,0,7,7,7,1,last,12,28,female,L,IMT ,2021-07-12_08h43.10.951,ImageRatingTask_S3,2021.1.4,MacIntel,62.5,,,,,,,,,
,,,,,,,,,,,,,,,,,,12,28,female,L,IMT ,2021-07-12_08h43.10.951,ImageRatingTask_S3,2021.1.4,MacIntel,62.5,0,59,59,158,1,DreamStudyImages_rs1000x750g/Mammals/Ferret 1.jpg,,,
,,7,1.567,1,1.04,6,6.757,1,8.395,5,0.964,0,0,0,0,1,main,12,28,female,L,IMT ,2021-07-12_08h43.10.951,ImageRatingTask_S3,2021.1.4,MacIntel,62.5,,,,,,,,,
,,,,,,,,,,,,0,1,1,1,1,second,12,28,female,L,IMT ,2021-07-12_08h43.10.951,ImageRatingTask_S3,2021.1.4,MacIntel,62.5,,,,,,,,,
,,,,,,,,,,,,0,2,2,2,1,third,12,28,female,L,IMT ,2021-07-12_08h43.10.951,ImageRatingTask_S3,2021.1.4,MacIntel,62.5,,,,,,,,,
,,,,,,,,,,,,0,3,3,3,1,fourth,12,28,female,L,IMT ,2021-07-12_08h43.10.951,ImageRatingTask_S3,2021.1.4,MacIntel,62.5,,,,,,,,,
,,,,,,,,,,,,0,4,4,4,1,fifth,12,28,female,L,IMT ,2021-07-12_08h43.10.951,ImageRatingTask_S3,2021.1.4,MacIntel,62.5,,,,,,,,,
,,,,,,,,,,,,0,5,5,5,1,sixth,12,28,female,L,IMT ,2021-07-12_08h43.10.951,ImageRatingTask_S3,2021.1.4,MacIntel,62.5,,,,,,,,,
,,,,,,,,,,,,0,6,6,6,1,seventh,12,28,female,L,IMT ,2021-07-12_08h43.10.951,ImageRatingTask_S3,2021.1.4,MacIntel,62.5,,,,,,,,,
,,,,,,,,,,,,0,7,7,7,1,last,12,28,female,L,IMT ,2021-07-12_08h43.10.951,ImageRatingTask_S3,2021.1.4,MacIntel,62.5,,,,,,,,,
,,,,,,,,,,,,,,,,,,12,28,female,L,IMT ,2021-07-12_08h43.10.951,ImageRatingTask_S3,2021.1.4,MacIntel,62.5,0,60,60,19,1,DreamStudyImages_rs1000x750g/Food/Objects_018_h.jpg,,,
,,5,2.239,1,0.373,8,1.464,1,0.88,5,0.384,0,0,0,0,1,main,12,28,female,L,IMT ,2021-07-12_08h43.10.951,ImageRatingTask_S3,2021.1.4,MacIntel,62.5,,,,,,,,,
,,,,,,,,,,,,0,1,1,1,1,second,12,28,female,L,IMT ,2021-07-12_08h43.10.951,ImageRatingTask_S3,2021.1.4,MacIntel,62.5,,,,,,,,,
,,,,,,,,,,,,0,2,2,2,1,third,12,28,female,L,IMT ,2021-07-12_08h43.10.951,ImageRatingTask_S3,2021.1.4,MacIntel,62.5,,,,,,,,,
,,,,,,,,,,,,0,3,3,3,1,fourth,12,28,female,L,IMT ,2021-07-12_08h43.10.951,ImageRatingTask_S3,2021.1.4,MacIntel,62.5,,,,,,,,,
,,,,,,,,,,,,0,4,4,4,1,fifth,12,28,female,L,IMT ,2021-07-12_08h43.10.951,ImageRatingTask_S3,2021.1.4,MacIntel,62.5,,,,,,,,,
,,,,,,,,,,,,0,5,5,5,1,sixth,12,28,female,L,IMT ,2021-07-12_08h43.10.951,ImageRatingTask_S3,2021.1.4,MacIntel,62.5,,,,,,,,,
,,,,,,,,,,,,0,6,6,6,1,seventh,12,28,female,L,IMT ,2021-07-12_08h43.10.951,ImageRatingTask_S3,2021.1.4,MacIntel,62.5,,,,,,,,,
,,,,,,,,,,,,0,7,7,7,1,last,12,28,female,L,IMT ,2021-07-12_08h43.10.951,ImageRatingTask_S3,2021.1.4,MacIntel,62.5,,,,,,,,,
,,,,,,,,,,,,,,,,,,12,28,female,L,IMT ,2021-07-12_08h43.10.951,ImageRatingTask_S3,2021.1.4,MacIntel,62.5,0,61,61,141,1,DreamStudyImages_rs1000x750g/Food/Objects_043_h.jpg,,,
,,4,1.728,1,0.656,8,1.496,1,0.876,6,0.426,0,0,0,0,1,main,12,28,female,L,IMT ,2021-07-12_08h43.10.951,ImageRatingTask_S3,2021.1.4,MacIntel,62.5,,,,,,,,,
,,,,,,,,,,,,0,1,1,1,1,second,12,28,female,L,IMT ,2021-07-12_08h43.10.951,ImageRatingTask_S3,2021.1.4,MacIntel,62.5,,,,,,,,,
,,,,,,,,,,,,0,2,2,2,1,third,12,28,female,L,IMT ,2021-07-12_08h43.10.951,ImageRatingTask_S3,2021.1.4,MacIntel,62.5,,,,,,,,,
,,,,,,,,,,,,0,3,3,3,1,fourth,12,28,female,L,IMT ,2021-07-12_08h43.10.951,ImageRatingTask_S3,2021.1.4,MacIntel,62.5,,,,,,,,,
,,,,,,,,,,,,0,4,4,4,1,fifth,12,28,female,L,IMT ,2021-07-12_08h43.10.951,ImageRatingTask_S3,2021.1.4,MacIntel,62.5,,,,,,,,,
,,,,,,,,,,,,0,5,5,5,1,sixth,12,28,female,L,IMT ,2021-07-12_08h43.10.951,ImageRatingTask_S3,2021.1.4,MacIntel,62.5,,,,,,,,,
,,,,,,,,,,,,0,6,6,6,1,seventh,12,28,female,L,IMT ,2021-07-12_08h43.10.951,ImageRatingTask_S3,2021.1.4,MacIntel,62.5,,,,,,,,,
,,,,,,,,,,,,0,7,7,7,1,last,12,28,female,L,IMT ,2021-07-12_08h43.10.951,ImageRatingTask_S3,2021.1.4,MacIntel,62.5,,,,,,,,,
,,,,,,,,,,,,,,,,,,12,28,female,L,IMT ,2021-07-12_08h43.10.951,ImageRatingTask_S3,2021.1.4,MacIntel,62.5,0,62,62,66,1,DreamStudyImages_rs1000x750g/Houses/NDPS110_buriedhouse.jpg,,,
,,3,1.37,2,1.564,6,1.717,1,0.744,2,0.235,0,0,0,0,1,main,12,28,female,L,IMT ,2021-07-12_08h43.10.951,ImageRatingTask_S3,2021.1.4,MacIntel,62.5,,,,,,,,,
,,,,,,,,,,,,0,1,1,1,1,second,12,28,female,L,IMT ,2021-07-12_08h43.10.951,ImageRatingTask_S3,2021.1.4,MacIntel,62.5,,,,,,,,,
,,,,,,,,,,,,0,2,2,2,1,third,12,28,female,L,IMT ,2021-07-12_08h43.10.951,ImageRatingTask_S3,2021.1.4,MacIntel,62.5,,,,,,,,,
,,,,,,,,,,,,0,3,3,3,1,fourth,12,28,female,L,IMT ,2021-07-12_08h43.10.951,ImageRatingTask_S3,2021.1.4,MacIntel,62.5,,,,,,,,,
,,,,,,,,,,,,0,4,4,4,1,fifth,12,28,female,L,IMT ,2021-07-12_08h43.10.951,ImageRatingTask_S3,2021.1.4,MacIntel,62.5,,,,,,,,,
,,,,,,,,,,,,0,5,5,5,1,sixth,12,28,female,L,IMT ,2021-07-12_08h43.10.951,ImageRatingTask_S3,2021.1.4,MacIntel,62.5,,,,,,,,,
,,,,,,,,,,,,0,6,6,6,1,seventh,12,28,female,L,IMT ,2021-07-12_08h43.10.951,ImageRatingTask_S3,2021.1.4,MacIntel,62.5,,,,,,,,,
,,,,,,,,,,,,0,7,7,7,1,last,12,28,female,L,IMT ,2021-07-12_08h43.10.951,ImageRatingTask_S3,2021.1.4,MacIntel,62.5,,,,,,,,,
,,,,,,,,,,,,,,,,,,12,28,female,L,IMT ,2021-07-12_08h43.10.951,ImageRatingTask_S3,2021.1.4,MacIntel,62.5,0,63,63,100,1,DreamStudyImages_rs1000x750g/Children/Faces_034_h.jpg,,,
,,6,1.349,1,0.456,7,1.704,1,0.618,2,0.22,0,0,0,0,1,main,12,28,female,L,IMT ,2021-07-12_08h43.10.951,ImageRatingTask_S3,2021.1.4,MacIntel,62.5,,,,,,,,,
,,,,,,,,,,,,0,1,1,1,1,second,12,28,female,L,IMT ,2021-07-12_08h43.10.951,ImageRatingTask_S3,2021.1.4,MacIntel,62.5,,,,,,,,,
,,,,,,,,,,,,0,2,2,2,1,third,12,28,female,L,IMT ,2021-07-12_08h43.10.951,ImageRatingTask_S3,2021.1.4,MacIntel,62.5,,,,,,,,,
,,,,,,,,,,,,0,3,3,3,1,fourth,12,28,female,L,IMT ,2021-07-12_08h43.10.951,ImageRatingTask_S3,2021.1.4,MacIntel,62.5,,,,,,,,,
,,,,,,,,,,,,0,4,4,4,1,fifth,12,28,female,L,IMT ,2021-07-12_08h43.10.951,ImageRatingTask_S3,2021.1.4,MacIntel,62.5,,,,,,,,,
,,,,,,,,,,,,0,5,5,5,1,sixth,12,28,female,L,IMT ,2021-07-12_08h43.10.951,ImageRatingTask_S3,2021.1.4,MacIntel,62.5,,,,,,,,,
,,,,,,,,,,,,0,6,6,6,1,seventh,12,28,female,L,IMT ,2021-07-12_08h43.10.951,ImageRatingTask_S3,2021.1.4,MacIntel,62.5,,,,,,,,,
,,,,,,,,,,,,0,7,7,7,1,last,12,28,female,L,IMT ,2021-07-12_08h43.10.951,ImageRatingTask_S3,2021.1.4,MacIntel,62.5,,,,,,,,,
,,,,,,,,,,,,,,,,,,12,28,female,L,IMT ,2021-07-12_08h43.10.951,ImageRatingTask_S3,2021.1.4,MacIntel,62.5,0,64,64,8,1,DreamStudyImages_rs1000x750g/Children/Faces_120_h.jpg,,,
,,6,1.353,1,0.554,7,1.585,1,2.845,2,0.598,0,0,0,0,1,main,12,28,female,L,IMT ,2021-07-12_08h43.10.951,ImageRatingTask_S3,2021.1.4,MacIntel,62.5,,,,,,,,,
,,,,,,,,,,,,0,1,1,1,1,second,12,28,female,L,IMT ,2021-07-12_08h43.10.951,ImageRatingTask_S3,2021.1.4,MacIntel,62.5,,,,,,,,,
,,,,,,,,,,,,0,2,2,2,1,third,12,28,female,L,IMT ,2021-07-12_08h43.10.951,ImageRatingTask_S3,2021.1.4,MacIntel,62.5,,,,,,,,,
,,,,,,,,,,,,0,3,3,3,1,fourth,12,28,female,L,IMT ,2021-07-12_08h43.10.951,ImageRatingTask_S3,2021.1.4,MacIntel,62.5,,,,,,,,,
,,,,,,,,,,,,0,4,4,4,1,fifth,12,28,female,L,IMT ,2021-07-12_08h43.10.951,ImageRatingTask_S3,2021.1.4,MacIntel,62.5,,,,,,,,,
,,,,,,,,,,,,0,5,5,5,1,sixth,12,28,female,L,IMT ,2021-07-12_08h43.10.951,ImageRatingTask_S3,2021.1.4,MacIntel,62.5,,,,,,,,,
,,,,,,,,,,,,0,6,6,6,1,seventh,12,28,female,L,IMT ,2021-07-12_08h43.10.951,ImageRatingTask_S3,2021.1.4,MacIntel,62.5,,,,,,,,,
,,,,,,,,,,,,0,7,7,7,1,last,12,28,female,L,IMT ,2021-07-12_08h43.10.951,ImageRatingTask_S3,2021.1.4,MacIntel,62.5,,,,,,,,,
,,,,,,,,,,,,,,,,,,12,28,female,L,IMT ,2021-07-12_08h43.10.951,ImageRatingTask_S3,2021.1.4,MacIntel,62.5,0,65,65,45,1,DreamStudyImages_rs1000x750g/Children/Faces_128_h.jpg,,,
,,5,1.288,1,0.499,7,1.491,1,1.097,7,0.633,0,0,0,0,1,main,12,28,female,L,IMT ,2021-07-12_08h43.10.951,ImageRatingTask_S3,2021.1.4,MacIntel,62.5,,,,,,,,,
,,,,,,,,,,,,0,1,1,1,1,second,12,28,female,L,IMT ,2021-07-12_08h43.10.951,ImageRatingTask_S3,2021.1.4,MacIntel,62.5,,,,,,,,,
,,,,,,,,,,,,0,2,2,2,1,third,12,28,female,L,IMT ,2021-07-12_08h43.10.951,ImageRatingTask_S3,2021.1.4,MacIntel,62.5,,,,,,,,,
,,,,,,,,,,,,0,3,3,3,1,fourth,12,28,female,L,IMT ,2021-07-12_08h43.10.951,ImageRatingTask_S3,2021.1.4,MacIntel,62.5,,,,,,,,,
,,,,,,,,,,,,0,4,4,4,1,fifth,12,28,female,L,IMT ,2021-07-12_08h43.10.951,ImageRatingTask_S3,2021.1.4,MacIntel,62.5,,,,,,,,,
,,,,,,,,,,,,0,5,5,5,1,sixth,12,28,female,L,IMT ,2021-07-12_08h43.10.951,ImageRatingTask_S3,2021.1.4,MacIntel,62.5,,,,,,,,,
,,,,,,,,,,,,0,6,6,6,1,seventh,12,28,female,L,IMT ,2021-07-12_08h43.10.951,ImageRatingTask_S3,2021.1.4,MacIntel,62.5,,,,,,,,,
,,,,,,,,,,,,0,7,7,7,1,last,12,28,female,L,IMT ,2021-07-12_08h43.10.951,ImageRatingTask_S3,2021.1.4,MacIntel,62.5,,,,,,,,,
,,,,,,,,,,,,,,,,,,12,28,female,L,IMT ,2021-07-12_08h43.10.951,ImageRatingTask_S3,2021.1.4,MacIntel,62.5,0,66,66,153,1,DreamStudyImages_rs1000x750g/Vehicles/Objects_297_h.jpg,,,
,,7,2.833,1,0.524,6,1.378,1,0.558,3,0.329,0,0,0,0,1,main,12,28,female,L,IMT ,2021-07-12_08h43.10.951,ImageRatingTask_S3,2021.1.4,MacIntel,62.5,,,,,,,,,
,,,,,,,,,,,,0,1,1,1,1,second,12,28,female,L,IMT ,2021-07-12_08h43.10.951,ImageRatingTask_S3,2021.1.4,MacIntel,62.5,,,,,,,,,
,,,,,,,,,,,,0,2,2,2,1,third,12,28,female,L,IMT ,2021-07-12_08h43.10.951,ImageRatingTask_S3,2021.1.4,MacIntel,62.5,,,,,,,,,
,,,,,,,,,,,,0,3,3,3,1,fourth,12,28,female,L,IMT ,2021-07-12_08h43.10.951,ImageRatingTask_S3,2021.1.4,MacIntel,62.5,,,,,,,,,
,,,,,,,,,,,,0,4,4,4,1,fifth,12,28,female,L,IMT ,2021-07-12_08h43.10.951,ImageRatingTask_S3,2021.1.4,MacIntel,62.5,,,,,,,,,
,,,,,,,,,,,,0,5,5,5,1,sixth,12,28,female,L,IMT ,2021-07-12_08h43.10.951,ImageRatingTask_S3,2021.1.4,MacIntel,62.5,,,,,,,,,
,,,,,,,,,,,,0,6,6,6,1,seventh,12,28,female,L,IMT ,2021-07-12_08h43.10.951,ImageRatingTask_S3,2021.1.4,MacIntel,62.5,,,,,,,,,
,,,,,,,,,,,,0,7,7,7,1,last,12,28,female,L,IMT ,2021-07-12_08h43.10.951,ImageRatingTask_S3,2021.1.4,MacIntel,62.5,,,,,,,,,
,,,,,,,,,,,,,,,,,,12,28,female,L,IMT ,2021-07-12_08h43.10.951,ImageRatingTask_S3,2021.1.4,MacIntel,62.5,0,67,67,77,1,DreamStudyImages_rs1000x750g/Mammals/Animals_148_h.jpg,,,
,,6,11.846,2,0.723,8,1.433,1,1.173,3,0.814,0,0,0,0,1,main,12,28,female,L,IMT ,2021-07-12_08h43.10.951,ImageRatingTask_S3,2021.1.4,MacIntel,62.5,,,,,,,,,
,,,,,,,,,,,,0,1,1,1,1,second,12,28,female,L,IMT ,2021-07-12_08h43.10.951,ImageRatingTask_S3,2021.1.4,MacIntel,62.5,,,,,,,,,
,,,,,,,,,,,,0,2,2,2,1,third,12,28,female,L,IMT ,2021-07-12_08h43.10.951,ImageRatingTask_S3,2021.1.4,MacIntel,62.5,,,,,,,,,
,,,,,,,,,,,,0,3,3,3,1,fourth,12,28,female,L,IMT ,2021-07-12_08h43.10.951,ImageRatingTask_S3,2021.1.4,MacIntel,62.5,,,,,,,,,
,,,,,,,,,,,,0,4,4,4,1,fifth,12,28,female,L,IMT ,2021-07-12_08h43.10.951,ImageRatingTask_S3,2021.1.4,MacIntel,62.5,,,,,,,,,
,,,,,,,,,,,,0,5,5,5,1,sixth,12,28,female,L,IMT ,2021-07-12_08h43.10.951,ImageRatingTask_S3,2021.1.4,MacIntel,62.5,,,,,,,,,
,,,,,,,,,,,,0,6,6,6,1,seventh,12,28,female,L,IMT ,2021-07-12_08h43.10.951,ImageRatingTask_S3,2021.1.4,MacIntel,62.5,,,,,,,,,
,,,,,,,,,,,,0,7,7,7,1,last,12,28,female,L,IMT ,2021-07-12_08h43.10.951,ImageRatingTask_S3,2021.1.4,MacIntel,62.5,,,,,,,,,
,,,,,,,,,,,,,,,,,,12,28,female,L,IMT ,2021-07-12_08h43.10.951,ImageRatingTask_S3,2021.1.4,MacIntel,62.5,0,68,68,58,1,DreamStudyImages_rs1000x750g/Mammals/Animals_137_h.jpg,,,
,,5,1.539,1,0.434,4,1.532,1,19.827,7,0.81,0,0,0,0,1,main,12,28,female,L,IMT ,2021-07-12_08h43.10.951,ImageRatingTask_S3,2021.1.4,MacIntel,62.5,,,,,,,,,
,,,,,,,,,,,,0,1,1,1,1,second,12,28,female,L,IMT ,2021-07-12_08h43.10.951,ImageRatingTask_S3,2021.1.4,MacIntel,62.5,,,,,,,,,
,,,,,,,,,,,,0,2,2,2,1,third,12,28,female,L,IMT ,2021-07-12_08h43.10.951,ImageRatingTask_S3,2021.1.4,MacIntel,62.5,,,,,,,,,
,,,,,,,,,,,,0,3,3,3,1,fourth,12,28,female,L,IMT ,2021-07-12_08h43.10.951,ImageRatingTask_S3,2021.1.4,MacIntel,62.5,,,,,,,,,
,,,,,,,,,,,,0,4,4,4,1,fifth,12,28,female,L,IMT ,2021-07-12_08h43.10.951,ImageRatingTask_S3,2021.1.4,MacIntel,62.5,,,,,,,,,
,,,,,,,,,,,,0,5,5,5,1,sixth,12,28,female,L,IMT ,2021-07-12_08h43.10.951,ImageRatingTask_S3,2021.1.4,MacIntel,62.5,,,,,,,,,
,,,,,,,,,,,,0,6,6,6,1,seventh,12,28,female,L,IMT ,2021-07-12_08h43.10.951,ImageRatingTask_S3,2021.1.4,MacIntel,62.5,,,,,,,,,
,,,,,,,,,,,,0,7,7,7,1,last,12,28,female,L,IMT ,2021-07-12_08h43.10.951,ImageRatingTask_S3,2021.1.4,MacIntel,62.5,,,,,,,,,
,,,,,,,,,,,,,,,,,,12,28,female,L,IMT ,2021-07-12_08h43.10.951,ImageRatingTask_S3,2021.1.4,MacIntel,62.5,0,69,69,119,1,DreamStudyImages_rs1000x750g/Vehicles/5450.jpg,,,
,,6,1.422,1,1.216,5,1.563,1,0.946,6,1.043,0,0,0,0,1,main,12,28,female,L,IMT ,2021-07-12_08h43.10.951,ImageRatingTask_S3,2021.1.4,MacIntel,62.5,,,,,,,,,
,,,,,,,,,,,,0,1,1,1,1,second,12,28,female,L,IMT ,2021-07-12_08h43.10.951,ImageRatingTask_S3,2021.1.4,MacIntel,62.5,,,,,,,,,
,,,,,,,,,,,,0,2,2,2,1,third,12,28,female,L,IMT ,2021-07-12_08h43.10.951,ImageRatingTask_S3,2021.1.4,MacIntel,62.5,,,,,,,,,
,,,,,,,,,,,,0,3,3,3,1,fourth,12,28,female,L,IMT ,2021-07-12_08h43.10.951,ImageRatingTask_S3,2021.1.4,MacIntel,62.5,,,,,,,,,
,,,,,,,,,,,,0,4,4,4,1,fifth,12,28,female,L,IMT ,2021-07-12_08h43.10.951,ImageRatingTask_S3,2021.1.4,MacIntel,62.5,,,,,,,,,
,,,,,,,,,,,,0,5,5,5,1,sixth,12,28,female,L,IMT ,2021-07-12_08h43.10.951,ImageRatingTask_S3,2021.1.4,MacIntel,62.5,,,,,,,,,
,,,,,,,,,,,,0,6,6,6,1,seventh,12,28,female,L,IMT ,2021-07-12_08h43.10.951,ImageRatingTask_S3,2021.1.4,MacIntel,62.5,,,,,,,,,
,,,,,,,,,,,,0,7,7,7,1,last,12,28,female,L,IMT ,2021-07-12_08h43.10.951,ImageRatingTask_S3,2021.1.4,MacIntel,62.5,,,,,,,,,
,,,,,,,,,,,,,,,,,,12,28,female,L,IMT ,2021-07-12_08h43.10.951,ImageRatingTask_S3,2021.1.4,MacIntel,62.5,0,70,70,89,1,DreamStudyImages_rs1000x750g/Houses/snowchalet.jpg,,,
,,7,11.763,2,0.664,5,1.274,1,0.83,8,0.419,0,0,0,0,1,main,12,28,female,L,IMT ,2021-07-12_08h43.10.951,ImageRatingTask_S3,2021.1.4,MacIntel,62.5,,,,,,,,,
,,,,,,,,,,,,0,1,1,1,1,second,12,28,female,L,IMT ,2021-07-12_08h43.10.951,ImageRatingTask_S3,2021.1.4,MacIntel,62.5,,,,,,,,,
,,,,,,,,,,,,0,2,2,2,1,third,12,28,female,L,IMT ,2021-07-12_08h43.10.951,ImageRatingTask_S3,2021.1.4,MacIntel,62.5,,,,,,,,,
,,,,,,,,,,,,0,3,3,3,1,fourth,12,28,female,L,IMT ,2021-07-12_08h43.10.951,ImageRatingTask_S3,2021.1.4,MacIntel,62.5,,,,,,,,,
,,,,,,,,,,,,0,4,4,4,1,fifth,12,28,female,L,IMT ,2021-07-12_08h43.10.951,ImageRatingTask_S3,2021.1.4,MacIntel,62.5,,,,,,,,,
,,,,,,,,,,,,0,5,5,5,1,sixth,12,28,female,L,IMT ,2021-07-12_08h43.10.951,ImageRatingTask_S3,2021.1.4,MacIntel,62.5,,,,,,,,,
,,,,,,,,,,,,0,6,6,6,1,seventh,12,28,female,L,IMT ,2021-07-12_08h43.10.951,ImageRatingTask_S3,2021.1.4,MacIntel,62.5,,,,,,,,,
,,,,,,,,,,,,0,7,7,7,1,last,12,28,female,L,IMT ,2021-07-12_08h43.10.951,ImageRatingTask_S3,2021.1.4,MacIntel,62.5,,,,,,,,,
,,,,,,,,,,,,,,,,,,12,28,female,L,IMT ,2021-07-12_08h43.10.951,ImageRatingTask_S3,2021.1.4,MacIntel,62.5,0,71,71,95,1,DreamStudyImages_rs1000x750g/Water/Lake 14.jpg,,,
,,6,2.549,1,0.607,5,1.278,1,0.533,3,0.337,0,0,0,0,1,main,12,28,female,L,IMT ,2021-07-12_08h43.10.951,ImageRatingTask_S3,2021.1.4,MacIntel,62.5,,,,,,,,,
,,,,,,,,,,,,0,1,1,1,1,second,12,28,female,L,IMT ,2021-07-12_08h43.10.951,ImageRatingTask_S3,2021.1.4,MacIntel,62.5,,,,,,,,,
,,,,,,,,,,,,0,2,2,2,1,third,12,28,female,L,IMT ,2021-07-12_08h43.10.951,ImageRatingTask_S3,2021.1.4,MacIntel,62.5,,,,,,,,,
,,,,,,,,,,,,0,3,3,3,1,fourth,12,28,female,L,IMT ,2021-07-12_08h43.10.951,ImageRatingTask_S3,2021.1.4,MacIntel,62.5,,,,,,,,,
,,,,,,,,,,,,0,4,4,4,1,fifth,12,28,female,L,IMT ,2021-07-12_08h43.10.951,ImageRatingTask_S3,2021.1.4,MacIntel,62.5,,,,,,,,,
,,,,,,,,,,,,0,5,5,5,1,sixth,12,28,female,L,IMT ,2021-07-12_08h43.10.951,ImageRatingTask_S3,2021.1.4,MacIntel,62.5,,,,,,,,,
,,,,,,,,,,,,0,6,6,6,1,seventh,12,28,female,L,IMT ,2021-07-12_08h43.10.951,ImageRatingTask_S3,2021.1.4,MacIntel,62.5,,,,,,,,,
,,,,,,,,,,,,0,7,7,7,1,last,12,28,female,L,IMT ,2021-07-12_08h43.10.951,ImageRatingTask_S3,2021.1.4,MacIntel,62.5,,,,,,,,,
,,,,,,,,,,,,,,,,,,12,28,female,L,IMT ,2021-07-12_08h43.10.951,ImageRatingTask_S3,2021.1.4,MacIntel,62.5,0,72,72,10,1,DreamStudyImages_rs1000x750g/Mammals/Zebra 1.jpg,,,
,,3,1.461,1,0.505,5,2.99,1,0.646,7,0.577,0,0,0,0,1,main,12,28,female,L,IMT ,2021-07-12_08h43.10.951,ImageRatingTask_S3,2021.1.4,MacIntel,62.5,,,,,,,,,
,,,,,,,,,,,,0,1,1,1,1,second,12,28,female,L,IMT ,2021-07-12_08h43.10.951,ImageRatingTask_S3,2021.1.4,MacIntel,62.5,,,,,,,,,
,,,,,,,,,,,,0,2,2,2,1,third,12,28,female,L,IMT ,2021-07-12_08h43.10.951,ImageRatingTask_S3,2021.1.4,MacIntel,62.5,,,,,,,,,
,,,,,,,,,,,,0,3,3,3,1,fourth,12,28,female,L,IMT ,2021-07-12_08h43.10.951,ImageRatingTask_S3,2021.1.4,MacIntel,62.5,,,,,,,,,
,,,,,,,,,,,,0,4,4,4,1,fifth,12,28,female,L,IMT ,2021-07-12_08h43.10.951,ImageRatingTask_S3,2021.1.4,MacIntel,62.5,,,,,,,,,
,,,,,,,,,,,,0,5,5,5,1,sixth,12,28,female,L,IMT ,2021-07-12_08h43.10.951,ImageRatingTask_S3,2021.1.4,MacIntel,62.5,,,,,,,,,
,,,,,,,,,,,,0,6,6,6,1,seventh,12,28,female,L,IMT ,2021-07-12_08h43.10.951,ImageRatingTask_S3,2021.1.4,MacIntel,62.5,,,,,,,,,
,,,,,,,,,,,,0,7,7,7,1,last,12,28,female,L,IMT ,2021-07-12_08h43.10.951,ImageRatingTask_S3,2021.1.4,MacIntel,62.5,,,,,,,,,
,,,,,,,,,,,,,,,,,,12,28,female,L,IMT ,2021-07-12_08h43.10.951,ImageRatingTask_S3,2021.1.4,MacIntel,62.5,0,73,73,130,1,DreamStudyImages_rs1000x750g/Vehicles/IAPS9911_carcrash8.jpg,,,
,,5,1.683,1,0.474,5,1.5,1,3.319,7,0.939,0,0,0,0,1,main,12,28,female,L,IMT ,2021-07-12_08h43.10.951,ImageRatingTask_S3,2021.1.4,MacIntel,62.5,,,,,,,,,
,,,,,,,,,,,,0,1,1,1,1,second,12,28,female,L,IMT ,2021-07-12_08h43.10.951,ImageRatingTask_S3,2021.1.4,MacIntel,62.5,,,,,,,,,
,,,,,,,,,,,,0,2,2,2,1,third,12,28,female,L,IMT ,2021-07-12_08h43.10.951,ImageRatingTask_S3,2021.1.4,MacIntel,62.5,,,,,,,,,
,,,,,,,,,,,,0,3,3,3,1,fourth,12,28,female,L,IMT ,2021-07-12_08h43.10.951,ImageRatingTask_S3,2021.1.4,MacIntel,62.5,,,,,,,,,
,,,,,,,,,,,,0,4,4,4,1,fifth,12,28,female,L,IMT ,2021-07-12_08h43.10.951,ImageRatingTask_S3,2021.1.4,MacIntel,62.5,,,,,,,,,
,,,,,,,,,,,,0,5,5,5,1,sixth,12,28,female,L,IMT ,2021-07-12_08h43.10.951,ImageRatingTask_S3,2021.1.4,MacIntel,62.5,,,,,,,,,
,,,,,,,,,,,,0,6,6,6,1,seventh,12,28,female,L,IMT ,2021-07-12_08h43.10.951,ImageRatingTask_S3,2021.1.4,MacIntel,62.5,,,,,,,,,
,,,,,,,,,,,,0,7,7,7,1,last,12,28,female,L,IMT ,2021-07-12_08h43.10.951,ImageRatingTask_S3,2021.1.4,MacIntel,62.5,,,,,,,,,
,,,,,,,,,,,,,,,,,,12,28,female,L,IMT ,2021-07-12_08h43.10.951,ImageRatingTask_S3,2021.1.4,MacIntel,62.5,0,74,74,112,1,DreamStudyImages_rs1000x750g/Vehicles/Thunderstorm 3.jpg,,,
,,3,1.221,1,0.737,7,2.098,1,1.022,2,0.437,0,0,0,0,1,main,12,28,female,L,IMT ,2021-07-12_08h43.10.951,ImageRatingTask_S3,2021.1.4,MacIntel,62.5,,,,,,,,,
,,,,,,,,,,,,0,1,1,1,1,second,12,28,female,L,IMT ,2021-07-12_08h43.10.951,ImageRatingTask_S3,2021.1.4,MacIntel,62.5,,,,,,,,,
,,,,,,,,,,,,0,2,2,2,1,third,12,28,female,L,IMT ,2021-07-12_08h43.10.951,ImageRatingTask_S3,2021.1.4,MacIntel,62.5,,,,,,,,,
,,,,,,,,,,,,0,3,3,3,1,fourth,12,28,female,L,IMT ,2021-07-12_08h43.10.951,ImageRatingTask_S3,2021.1.4,MacIntel,62.5,,,,,,,,,
,,,,,,,,,,,,0,4,4,4,1,fifth,12,28,female,L,IMT ,2021-07-12_08h43.10.951,ImageRatingTask_S3,2021.1.4,MacIntel,62.5,,,,,,,,,
,,,,,,,,,,,,0,5,5,5,1,sixth,12,28,female,L,IMT ,2021-07-12_08h43.10.951,ImageRatingTask_S3,2021.1.4,MacIntel,62.5,,,,,,,,,
,,,,,,,,,,,,0,6,6,6,1,seventh,12,28,female,L,IMT ,2021-07-12_08h43.10.951,ImageRatingTask_S3,2021.1.4,MacIntel,62.5,,,,,,,,,
,,,,,,,,,,,,0,7,7,7,1,last,12,28,female,L,IMT ,2021-07-12_08h43.10.951,ImageRatingTask_S3,2021.1.4,MacIntel,62.5,,,,,,,,,
,,,,,,,,,,,,,,,,,,12,28,female,L,IMT ,2021-07-12_08h43.10.951,ImageRatingTask_S3,2021.1.4,MacIntel,62.5,0,75,75,72,1,DreamStudyImages_rs1000x750g/Children/NDPS136_hurtchild2_humans.jpg,,,
,,1,15.102,1,4.294,2,3.081,5,0.654,5,4.238,0,0,0,0,1,main,12,28,female,L,IMT ,2021-07-12_08h43.10.951,ImageRatingTask_S3,2021.1.4,MacIntel,62.5,,,,,,,,,
,,,,,,,,,,5,1.648,0,1,1,1,1,second,12,28,female,L,IMT ,2021-07-12_08h43.10.951,ImageRatingTask_S3,2021.1.4,MacIntel,62.5,,,,,,,,,
,,,,,,,,,,5,0.293,0,2,2,2,1,third,12,28,female,L,IMT ,2021-07-12_08h43.10.951,ImageRatingTask_S3,2021.1.4,MacIntel,62.5,,,,,,,,,
,,,,,,,,,,5,0.257,0,3,3,3,1,fourth,12,28,female,L,IMT ,2021-07-12_08h43.10.951,ImageRatingTask_S3,2021.1.4,MacIntel,62.5,,,,,,,,,
,,,,,,,,,,5,0.275,0,4,4,4,1,fifth,12,28,female,L,IMT ,2021-07-12_08h43.10.951,ImageRatingTask_S3,2021.1.4,MacIntel,62.5,,,,,,,,,
,,,,,,,,,,,,0,5,5,5,1,sixth,12,28,female,L,IMT ,2021-07-12_08h43.10.951,ImageRatingTask_S3,2021.1.4,MacIntel,62.5,,,,,,,,,
,,,,,,,,,,,,0,6,6,6,1,seventh,12,28,female,L,IMT ,2021-07-12_08h43.10.951,ImageRatingTask_S3,2021.1.4,MacIntel,62.5,,,,,,,,,
,,,,,,,,,,,,0,7,7,7,1,last,12,28,female,L,IMT ,2021-07-12_08h43.10.951,ImageRatingTask_S3,2021.1.4,MacIntel,62.5,,,,,,,,,
,,,,,,,,,,,,,,,,,,12,28,female,L,IMT ,2021-07-12_08h43.10.951,ImageRatingTask_S3,2021.1.4,MacIntel,62.5,0,76,76,52,1,DreamStudyImages_rs1000x750g/Food/Objects_058_h.jpg,,,
,,5,9.88,1,0.498,5,1.331,1,0.955,6,0.931,0,0,0,0,1,main,12,28,female,L,IMT ,2021-07-12_08h43.10.951,ImageRatingTask_S3,2021.1.4,MacIntel,62.5,,,,,,,,,
,,,,,,,,,,,,0,1,1,1,1,second,12,28,female,L,IMT ,2021-07-12_08h43.10.951,ImageRatingTask_S3,2021.1.4,MacIntel,62.5,,,,,,,,,
,,,,,,,,,,,,0,2,2,2,1,third,12,28,female,L,IMT ,2021-07-12_08h43.10.951,ImageRatingTask_S3,2021.1.4,MacIntel,62.5,,,,,,,,,
,,,,,,,,,,,,0,3,3,3,1,fourth,12,28,female,L,IMT ,2021-07-12_08h43.10.951,ImageRatingTask_S3,2021.1.4,MacIntel,62.5,,,,,,,,,
,,,,,,,,,,,,0,4,4,4,1,fifth,12,28,female,L,IMT ,2021-07-12_08h43.10.951,ImageRatingTask_S3,2021.1.4,MacIntel,62.5,,,,,,,,,
,,,,,,,,,,,,0,5,5,5,1,sixth,12,28,female,L,IMT ,2021-07-12_08h43.10.951,ImageRatingTask_S3,2021.1.4,MacIntel,62.5,,,,,,,,,
,,,,,,,,,,,,0,6,6,6,1,seventh,12,28,female,L,IMT ,2021-07-12_08h43.10.951,ImageRatingTask_S3,2021.1.4,MacIntel,62.5,,,,,,,,,
,,,,,,,,,,,,0,7,7,7,1,last,12,28,female,L,IMT ,2021-07-12_08h43.10.951,ImageRatingTask_S3,2021.1.4,MacIntel,62.5,,,,,,,,,
,,,,,,,,,,,,,,,,,,12,28,female,L,IMT ,2021-07-12_08h43.10.951,ImageRatingTask_S3,2021.1.4,MacIntel,62.5,0,77,77,24,1,DreamStudyImages_rs1000x750g/Houses/Landscapes_015_h.jpg,,,
,,4,1.625,1,0.629,6,3.425,1,0.615,2,0.245,0,0,0,0,1,main,12,28,female,L,IMT ,2021-07-12_08h43.10.951,ImageRatingTask_S3,2021.1.4,MacIntel,62.5,,,,,,,,,
,,,,,,,,,,,,0,1,1,1,1,second,12,28,female,L,IMT ,2021-07-12_08h43.10.951,ImageRatingTask_S3,2021.1.4,MacIntel,62.5,,,,,,,,,
,,,,,,,,,,,,0,2,2,2,1,third,12,28,female,L,IMT ,2021-07-12_08h43.10.951,ImageRatingTask_S3,2021.1.4,MacIntel,62.5,,,,,,,,,
,,,,,,,,,,,,0,3,3,3,1,fourth,12,28,female,L,IMT ,2021-07-12_08h43.10.951,ImageRatingTask_S3,2021.1.4,MacIntel,62.5,,,,,,,,,
,,,,,,,,,,,,0,4,4,4,1,fifth,12,28,female,L,IMT ,2021-07-12_08h43.10.951,ImageRatingTask_S3,2021.1.4,MacIntel,62.5,,,,,,,,,
,,,,,,,,,,,,0,5,5,5,1,sixth,12,28,female,L,IMT ,2021-07-12_08h43.10.951,ImageRatingTask_S3,2021.1.4,MacIntel,62.5,,,,,,,,,
,,,,,,,,,,,,0,6,6,6,1,seventh,12,28,female,L,IMT ,2021-07-12_08h43.10.951,ImageRatingTask_S3,2021.1.4,MacIntel,62.5,,,,,,,,,
,,,,,,,,,,,,0,7,7,7,1,last,12,28,female,L,IMT ,2021-07-12_08h43.10.951,ImageRatingTask_S3,2021.1.4,MacIntel,62.5,,,,,,,,,
,,,,,,,,,,,,,,,,,,12,28,female,L,IMT ,2021-07-12_08h43.10.951,ImageRatingTask_S3,2021.1.4,MacIntel,62.5,0,78,78,150,1,DreamStudyImages_rs1000x750g/Children/Faces_369_v.jpg,,,
,,6,2.679,1,0.493,6,1.411,1,1.975,6,0.712,0,0,0,0,1,main,12,28,female,L,IMT ,2021-07-12_08h43.10.951,ImageRatingTask_S3,2021.1.4,MacIntel,62.5,,,,,,,,,
,,,,,,,,,,,,0,1,1,1,1,second,12,28,female,L,IMT ,2021-07-12_08h43.10.951,ImageRatingTask_S3,2021.1.4,MacIntel,62.5,,,,,,,,,
,,,,,,,,,,,,0,2,2,2,1,third,12,28,female,L,IMT ,2021-07-12_08h43.10.951,ImageRatingTask_S3,2021.1.4,MacIntel,62.5,,,,,,,,,
,,,,,,,,,,,,0,3,3,3,1,fourth,12,28,female,L,IMT ,2021-07-12_08h43.10.951,ImageRatingTask_S3,2021.1.4,MacIntel,62.5,,,,,,,,,
,,,,,,,,,,,,0,4,4,4,1,fifth,12,28,female,L,IMT ,2021-07-12_08h43.10.951,ImageRatingTask_S3,2021.1.4,MacIntel,62.5,,,,,,,,,
,,,,,,,,,,,,0,5,5,5,1,sixth,12,28,female,L,IMT ,2021-07-12_08h43.10.951,ImageRatingTask_S3,2021.1.4,MacIntel,62.5,,,,,,,,,
,,,,,,,,,,,,0,6,6,6,1,seventh,12,28,female,L,IMT ,2021-07-12_08h43.10.951,ImageRatingTask_S3,2021.1.4,MacIntel,62.5,,,,,,,,,
,,,,,,,,,,,,0,7,7,7,1,last,12,28,female,L,IMT ,2021-07-12_08h43.10.951,ImageRatingTask_S3,2021.1.4,MacIntel,62.5,,,,,,,,,
,,,,,,,,,,,,,,,,,,12,28,female,L,IMT ,2021-07-12_08h43.10.951,ImageRatingTask_S3,2021.1.4,MacIntel,62.5,0,79,79,82,1,DreamStudyImages_rs1000x750g/Houses/whitehouse.jpg,,,
,,5,1.22,1,0.458,8,1.871,1,1.498,6,0.689,0,0,0,0,1,main,12,28,female,L,IMT ,2021-07-12_08h43.10.951,ImageRatingTask_S3,2021.1.4,MacIntel,62.5,,,,,,,,,
,,,,,,,,,,,,0,1,1,1,1,second,12,28,female,L,IMT ,2021-07-12_08h43.10.951,ImageRatingTask_S3,2021.1.4,MacIntel,62.5,,,,,,,,,
,,,,,,,,,,,,0,2,2,2,1,third,12,28,female,L,IMT ,2021-07-12_08h43.10.951,ImageRatingTask_S3,2021.1.4,MacIntel,62.5,,,,,,,,,
,,,,,,,,,,,,0,3,3,3,1,fourth,12,28,female,L,IMT ,2021-07-12_08h43.10.951,ImageRatingTask_S3,2021.1.4,MacIntel,62.5,,,,,,,,,
,,,,,,,,,,,,0,4,4,4,1,fifth,12,28,female,L,IMT ,2021-07-12_08h43.10.951,ImageRatingTask_S3,2021.1.4,MacIntel,62.5,,,,,,,,,
,,,,,,,,,,,,0,5,5,5,1,sixth,12,28,female,L,IMT ,2021-07-12_08h43.10.951,ImageRatingTask_S3,2021.1.4,MacIntel,62.5,,,,,,,,,
,,,,,,,,,,,,0,6,6,6,1,seventh,12,28,female,L,IMT ,2021-07-12_08h43.10.951,ImageRatingTask_S3,2021.1.4,MacIntel,62.5,,,,,,,,,
,,,,,,,,,,,,0,7,7,7,1,last,12,28,female,L,IMT ,2021-07-12_08h43.10.951,ImageRatingTask_S3,2021.1.4,MacIntel,62.5,,,,,,,,,
,,,,,,,,,,,,,,,,,,12,28,female,L,IMT ,2021-07-12_08h43.10.951,ImageRatingTask_S3,2021.1.4,MacIntel,62.5,0,80,80,1,1,DreamStudyImages_rs1000x750g/Houses/Landscapes_091_h.jpg,,,
,,5,3.554,1,0.482,7,2.681,0,3.047,,,0,0,0,0,1,main,12,28,female,L,IMT ,2021-07-12_08h43.10.951,ImageRatingTask_S3,2021.1.4,MacIntel,62.5,,,,,,,,,
,,,,,,,,,,,,0,1,1,1,1,second,12,28,female,L,IMT ,2021-07-12_08h43.10.951,ImageRatingTask_S3,2021.1.4,MacIntel,62.5,,,,,,,,,
,,,,,,,,,,,,0,2,2,2,1,third,12,28,female,L,IMT ,2021-07-12_08h43.10.951,ImageRatingTask_S3,2021.1.4,MacIntel,62.5,,,,,,,,,
,,,,,,,,,,,,0,3,3,3,1,fourth,12,28,female,L,IMT ,2021-07-12_08h43.10.951,ImageRatingTask_S3,2021.1.4,MacIntel,62.5,,,,,,,,,
,,,,,,,,,,,,0,4,4,4,1,fifth,12,28,female,L,IMT ,2021-07-12_08h43.10.951,ImageRatingTask_S3,2021.1.4,MacIntel,62.5,,,,,,,,,
,,,,,,,,,,,,0,5,5,5,1,sixth,12,28,female,L,IMT ,2021-07-12_08h43.10.951,ImageRatingTask_S3,2021.1.4,MacIntel,62.5,,,,,,,,,
,,,,,,,,,,,,0,6,6,6,1,seventh,12,28,female,L,IMT ,2021-07-12_08h43.10.951,ImageRatingTask_S3,2021.1.4,MacIntel,62.5,,,,,,,,,
,,,,,,,,,,,,0,7,7,7,1,last,12,28,female,L,IMT ,2021-07-12_08h43.10.951,ImageRatingTask_S3,2021.1.4,MacIntel,62.5,,,,,,,,,
,,,,,,,,,,,,,,,,,,12,28,female,L,IMT ,2021-07-12_08h43.10.951,ImageRatingTask_S3,2021.1.4,MacIntel,62.5,0,81,81,61,1,DreamStudyImages_rs1000x750g/Houses/Objects_241_h.jpg,,,
,,4,1.755,1,0.479,5,1.562,1,5.543,3,0.849,0,0,0,0,1,main,12,28,female,L,IMT ,2021-07-12_08h43.10.951,ImageRatingTask_S3,2021.1.4,MacIntel,62.5,,,,,,,,,
,,,,,,,,,,,,0,1,1,1,1,second,12,28,female,L,IMT ,2021-07-12_08h43.10.951,ImageRatingTask_S3,2021.1.4,MacIntel,62.5,,,,,,,,,
,,,,,,,,,,,,0,2,2,2,1,third,12,28,female,L,IMT ,2021-07-12_08h43.10.951,ImageRatingTask_S3,2021.1.4,MacIntel,62.5,,,,,,,,,
,,,,,,,,,,,,0,3,3,3,1,fourth,12,28,female,L,IMT ,2021-07-12_08h43.10.951,ImageRatingTask_S3,2021.1.4,MacIntel,62.5,,,,,,,,,
,,,,,,,,,,,,0,4,4,4,1,fifth,12,28,female,L,IMT ,2021-07-12_08h43.10.951,ImageRatingTask_S3,2021.1.4,MacIntel,62.5,,,,,,,,,
,,,,,,,,,,,,0,5,5,5,1,sixth,12,28,female,L,IMT ,2021-07-12_08h43.10.951,ImageRatingTask_S3,2021.1.4,MacIntel,62.5,,,,,,,,,
,,,,,,,,,,,,0,6,6,6,1,seventh,12,28,female,L,IMT ,2021-07-12_08h43.10.951,ImageRatingTask_S3,2021.1.4,MacIntel,62.5,,,,,,,,,
,,,,,,,,,,,,0,7,7,7,1,last,12,28,female,L,IMT ,2021-07-12_08h43.10.951,ImageRatingTask_S3,2021.1.4,MacIntel,62.5,,,,,,,,,
,,,,,,,,,,,,,,,,,,12,28,female,L,IMT ,2021-07-12_08h43.10.951,ImageRatingTask_S3,2021.1.4,MacIntel,62.5,0,82,82,92,1,DreamStudyImages_rs1000x750g/Mammals/Monkey 3.jpg,,,
,,5,1.447,1,0.606,3,1.131,1,0.874,7,0.639,0,0,0,0,1,main,12,28,female,L,IMT ,2021-07-12_08h43.10.951,ImageRatingTask_S3,2021.1.4,MacIntel,62.5,,,,,,,,,
,,,,,,,,,,,,0,1,1,1,1,second,12,28,female,L,IMT ,2021-07-12_08h43.10.951,ImageRatingTask_S3,2021.1.4,MacIntel,62.5,,,,,,,,,
,,,,,,,,,,,,0,2,2,2,1,third,12,28,female,L,IMT ,2021-07-12_08h43.10.951,ImageRatingTask_S3,2021.1.4,MacIntel,62.5,,,,,,,,,
,,,,,,,,,,,,0,3,3,3,1,fourth,12,28,female,L,IMT ,2021-07-12_08h43.10.951,ImageRatingTask_S3,2021.1.4,MacIntel,62.5,,,,,,,,,
,,,,,,,,,,,,0,4,4,4,1,fifth,12,28,female,L,IMT ,2021-07-12_08h43.10.951,ImageRatingTask_S3,2021.1.4,MacIntel,62.5,,,,,,,,,
,,,,,,,,,,,,0,5,5,5,1,sixth,12,28,female,L,IMT ,2021-07-12_08h43.10.951,ImageRatingTask_S3,2021.1.4,MacIntel,62.5,,,,,,,,,
