slider_pre.response,slider_pre.rt,key_val.keys,key_val.rt,key_aro.keys,key_aro.rt,key_qual.keys,key_qual.rt,key_ncat.keys,key_ncat.rt,key_cats.keys,key_cats.rt,ncat_order.thisRepN,ncat_order.thisTrialN,ncat_order.thisN,ncat_order.thisIndex,ncat_order.ran,cond_cat,participant,age,gender,handedness (L/R),site (IMT/Donders),date,expName,psychopyVersion,OS,frameRate,img_trials.thisRepN,img_trials.thisTrialN,img_trials.thisN,img_trials.thisIndex,img_trials.ran,filename,slider_post.response,slider_post.rt,textbox_openfb.text
4,4.362,4,4.78,2,1.498,6,1.582,1,2.616,7,0.71,0,0,0,0,1,main,12,28,female,L,IMT,2021-07-10_08h58.00.005,ImageRatingTask_S2,2021.1.4,MacIntel,58.82352941,,,,,,,,,
,,,,,,,,,,,,0,1,1,1,1,second,12,28,female,L,IMT,2021-07-10_08h58.00.005,ImageRatingTask_S2,2021.1.4,MacIntel,58.82352941,,,,,,,,,
,,,,,,,,,,,,0,2,2,2,1,third,12,28,female,L,IMT,2021-07-10_08h58.00.005,ImageRatingTask_S2,2021.1.4,MacIntel,58.82352941,,,,,,,,,
,,,,,,,,,,,,0,3,3,3,1,fourth,12,28,female,L,IMT,2021-07-10_08h58.00.005,ImageRatingTask_S2,2021.1.4,MacIntel,58.82352941,,,,,,,,,
,,,,,,,,,,,,0,4,4,4,1,fifth,12,28,female,L,IMT,2021-07-10_08h58.00.005,ImageRatingTask_S2,2021.1.4,MacIntel,58.82352941,,,,,,,,,
,,,,,,,,,,,,0,5,5,5,1,sixth,12,28,female,L,IMT,2021-07-10_08h58.00.005,ImageRatingTask_S2,2021.1.4,MacIntel,58.82352941,,,,,,,,,
,,,,,,,,,,,,0,6,6,6,1,seventh,12,28,female,L,IMT,2021-07-10_08h58.00.005,ImageRatingTask_S2,2021.1.4,MacIntel,58.82352941,,,,,,,,,
,,,,,,,,,,,,0,7,7,7,1,last,12,28,female,L,IMT,2021-07-10_08h58.00.005,ImageRatingTask_S2,2021.1.4,MacIntel,58.82352941,,,,,,,,,
,,,,,,,,,,,,,,,,,,12,28,female,L,IMT,2021-07-10_08h58.00.005,ImageRatingTask_S2,2021.1.4,MacIntel,58.82352941,0,0,0,93,1,DreamStudyImages_rs1000x750g/Vehicles/9904.jpg,,,
,,5,2.214,1,0.564,5,1.879,1,2.841,6,0.843,0,0,0,0,1,main,12,28,female,L,IMT,2021-07-10_08h58.00.005,ImageRatingTask_S2,2021.1.4,MacIntel,58.82352941,,,,,,,,,
,,,,,,,,,,,,0,1,1,1,1,second,12,28,female,L,IMT,2021-07-10_08h58.00.005,ImageRatingTask_S2,2021.1.4,MacIntel,58.82352941,,,,,,,,,
,,,,,,,,,,,,0,2,2,2,1,third,12,28,female,L,IMT,2021-07-10_08h58.00.005,ImageRatingTask_S2,2021.1.4,MacIntel,58.82352941,,,,,,,,,
,,,,,,,,,,,,0,3,3,3,1,fourth,12,28,female,L,IMT,2021-07-10_08h58.00.005,ImageRatingTask_S2,2021.1.4,MacIntel,58.82352941,,,,,,,,,
,,,,,,,,,,,,0,4,4,4,1,fifth,12,28,female,L,IMT,2021-07-10_08h58.00.005,ImageRatingTask_S2,2021.1.4,MacIntel,58.82352941,,,,,,,,,
,,,,,,,,,,,,0,5,5,5,1,sixth,12,28,female,L,IMT,2021-07-10_08h58.00.005,ImageRatingTask_S2,2021.1.4,MacIntel,58.82352941,,,,,,,,,
,,,,,,,,,,,,0,6,6,6,1,seventh,12,28,female,L,IMT,2021-07-10_08h58.00.005,ImageRatingTask_S2,2021.1.4,MacIntel,58.82352941,,,,,,,,,
,,,,,,,,,,,,0,7,7,7,1,last,12,28,female,L,IMT,2021-07-10_08h58.00.005,ImageRatingTask_S2,2021.1.4,MacIntel,58.82352941,,,,,,,,,
,,,,,,,,,,,,,,,,,,12,28,female,L,IMT,2021-07-10_08h58.00.005,ImageRatingTask_S2,2021.1.4,MacIntel,58.82352941,0,1,1,68,1,DreamStudyImages_rs1000x750g/Houses/IAPS7546_skyline.jpg,,,
,,6,2.322,2,0.919,8,2.53,1,1.19,3,0.741,0,0,0,0,1,main,12,28,female,L,IMT,2021-07-10_08h58.00.005,ImageRatingTask_S2,2021.1.4,MacIntel,58.82352941,,,,,,,,,
,,,,,,,,,,,,0,1,1,1,1,second,12,28,female,L,IMT,2021-07-10_08h58.00.005,ImageRatingTask_S2,2021.1.4,MacIntel,58.82352941,,,,,,,,,
,,,,,,,,,,,,0,2,2,2,1,third,12,28,female,L,IMT,2021-07-10_08h58.00.005,ImageRatingTask_S2,2021.1.4,MacIntel,58.82352941,,,,,,,,,
,,,,,,,,,,,,0,3,3,3,1,fourth,12,28,female,L,IMT,2021-07-10_08h58.00.005,ImageRatingTask_S2,2021.1.4,MacIntel,58.82352941,,,,,,,,,
,,,,,,,,,,,,0,4,4,4,1,fifth,12,28,female,L,IMT,2021-07-10_08h58.00.005,ImageRatingTask_S2,2021.1.4,MacIntel,58.82352941,,,,,,,,,
,,,,,,,,,,,,0,5,5,5,1,sixth,12,28,female,L,IMT,2021-07-10_08h58.00.005,ImageRatingTask_S2,2021.1.4,MacIntel,58.82352941,,,,,,,,,
,,,,,,,,,,,,0,6,6,6,1,seventh,12,28,female,L,IMT,2021-07-10_08h58.00.005,ImageRatingTask_S2,2021.1.4,MacIntel,58.82352941,,,,,,,,,
,,,,,,,,,,,,0,7,7,7,1,last,12,28,female,L,IMT,2021-07-10_08h58.00.005,ImageRatingTask_S2,2021.1.4,MacIntel,58.82352941,,,,,,,,,
,,,,,,,,,,,,,,,,,,12,28,female,L,IMT,2021-07-10_08h58.00.005,ImageRatingTask_S2,2021.1.4,MacIntel,58.82352941,0,2,2,44,1,DreamStudyImages_rs1000x750g/Mammals/Animals_053_h.jpg,,,
,,5,1.296,1,0.944,6,2.99,1,1.354,5,0.745,0,0,0,0,1,main,12,28,female,L,IMT,2021-07-10_08h58.00.005,ImageRatingTask_S2,2021.1.4,MacIntel,58.82352941,,,,,,,,,
,,,,,,,,,,,,0,1,1,1,1,second,12,28,female,L,IMT,2021-07-10_08h58.00.005,ImageRatingTask_S2,2021.1.4,MacIntel,58.82352941,,,,,,,,,
,,,,,,,,,,,,0,2,2,2,1,third,12,28,female,L,IMT,2021-07-10_08h58.00.005,ImageRatingTask_S2,2021.1.4,MacIntel,58.82352941,,,,,,,,,
,,,,,,,,,,,,0,3,3,3,1,fourth,12,28,female,L,IMT,2021-07-10_08h58.00.005,ImageRatingTask_S2,2021.1.4,MacIntel,58.82352941,,,,,,,,,
,,,,,,,,,,,,0,4,4,4,1,fifth,12,28,female,L,IMT,2021-07-10_08h58.00.005,ImageRatingTask_S2,2021.1.4,MacIntel,58.82352941,,,,,,,,,
,,,,,,,,,,,,0,5,5,5,1,sixth,12,28,female,L,IMT,2021-07-10_08h58.00.005,ImageRatingTask_S2,2021.1.4,MacIntel,58.82352941,,,,,,,,,
,,,,,,,,,,,,0,6,6,6,1,seventh,12,28,female,L,IMT,2021-07-10_08h58.00.005,ImageRatingTask_S2,2021.1.4,MacIntel,58.82352941,,,,,,,,,
,,,,,,,,,,,,0,7,7,7,1,last,12,28,female,L,IMT,2021-07-10_08h58.00.005,ImageRatingTask_S2,2021.1.4,MacIntel,58.82352941,,,,,,,,,
,,,,,,,,,,,,,,,,,,12,28,female,L,IMT,2021-07-10_08h58.00.005,ImageRatingTask_S2,2021.1.4,MacIntel,58.82352941,0,3,3,86,1,DreamStudyImages_rs1000x750g/Food/Dessert 5.jpg,,,
,,7,2.159,2,1.128,7,3.27,1,1.03,3,1.326,0,0,0,0,1,main,12,28,female,L,IMT,2021-07-10_08h58.00.005,ImageRatingTask_S2,2021.1.4,MacIntel,58.82352941,,,,,,,,,
,,,,,,,,,,,,0,1,1,1,1,second,12,28,female,L,IMT,2021-07-10_08h58.00.005,ImageRatingTask_S2,2021.1.4,MacIntel,58.82352941,,,,,,,,,
,,,,,,,,,,,,0,2,2,2,1,third,12,28,female,L,IMT,2021-07-10_08h58.00.005,ImageRatingTask_S2,2021.1.4,MacIntel,58.82352941,,,,,,,,,
,,,,,,,,,,,,0,3,3,3,1,fourth,12,28,female,L,IMT,2021-07-10_08h58.00.005,ImageRatingTask_S2,2021.1.4,MacIntel,58.82352941,,,,,,,,,
,,,,,,,,,,,,0,4,4,4,1,fifth,12,28,female,L,IMT,2021-07-10_08h58.00.005,ImageRatingTask_S2,2021.1.4,MacIntel,58.82352941,,,,,,,,,
,,,,,,,,,,,,0,5,5,5,1,sixth,12,28,female,L,IMT,2021-07-10_08h58.00.005,ImageRatingTask_S2,2021.1.4,MacIntel,58.82352941,,,,,,,,,
,,,,,,,,,,,,0,6,6,6,1,seventh,12,28,female,L,IMT,2021-07-10_08h58.00.005,ImageRatingTask_S2,2021.1.4,MacIntel,58.82352941,,,,,,,,,
,,,,,,,,,,,,0,7,7,7,1,last,12,28,female,L,IMT,2021-07-10_08h58.00.005,ImageRatingTask_S2,2021.1.4,MacIntel,58.82352941,,,,,,,,,
,,,,,,,,,,,,,,,,,,12,28,female,L,IMT,2021-07-10_08h58.00.005,ImageRatingTask_S2,2021.1.4,MacIntel,58.82352941,0,4,4,0,1,DreamStudyImages_rs1000x750g/Mammals/Animals_165_h.jpg,,,
,,6,2.663,3,1.506,7,4.025,1,1.846,8,1.335,0,0,0,0,1,main,12,28,female,L,IMT,2021-07-10_08h58.00.005,ImageRatingTask_S2,2021.1.4,MacIntel,58.82352941,,,,,,,,,
,,,,,,,,,,,,0,1,1,1,1,second,12,28,female,L,IMT,2021-07-10_08h58.00.005,ImageRatingTask_S2,2021.1.4,MacIntel,58.82352941,,,,,,,,,
,,,,,,,,,,,,0,2,2,2,1,third,12,28,female,L,IMT,2021-07-10_08h58.00.005,ImageRatingTask_S2,2021.1.4,MacIntel,58.82352941,,,,,,,,,
,,,,,,,,,,,,0,3,3,3,1,fourth,12,28,female,L,IMT,2021-07-10_08h58.00.005,ImageRatingTask_S2,2021.1.4,MacIntel,58.82352941,,,,,,,,,
,,,,,,,,,,,,0,4,4,4,1,fifth,12,28,female,L,IMT,2021-07-10_08h58.00.005,ImageRatingTask_S2,2021.1.4,MacIntel,58.82352941,,,,,,,,,
,,,,,,,,,,,,0,5,5,5,1,sixth,12,28,female,L,IMT,2021-07-10_08h58.00.005,ImageRatingTask_S2,2021.1.4,MacIntel,58.82352941,,,,,,,,,
,,,,,,,,,,,,0,6,6,6,1,seventh,12,28,female,L,IMT,2021-07-10_08h58.00.005,ImageRatingTask_S2,2021.1.4,MacIntel,58.82352941,,,,,,,,,
,,,,,,,,,,,,0,7,7,7,1,last,12,28,female,L,IMT,2021-07-10_08h58.00.005,ImageRatingTask_S2,2021.1.4,MacIntel,58.82352941,,,,,,,,,
,,,,,,,,,,,,,,,,,,12,28,female,L,IMT,2021-07-10_08h58.00.005,ImageRatingTask_S2,2021.1.4,MacIntel,58.82352941,0,5,5,89,1,DreamStudyImages_rs1000x750g/Water/Lake 1.jpg,,,
,,6,2.357,1,0.98,6,6.445,1,1.061,3,1.055,0,0,0,0,1,main,12,28,female,L,IMT,2021-07-10_08h58.00.005,ImageRatingTask_S2,2021.1.4,MacIntel,58.82352941,,,,,,,,,
,,,,,,,,,,,,0,1,1,1,1,second,12,28,female,L,IMT,2021-07-10_08h58.00.005,ImageRatingTask_S2,2021.1.4,MacIntel,58.82352941,,,,,,,,,
,,,,,,,,,,,,0,2,2,2,1,third,12,28,female,L,IMT,2021-07-10_08h58.00.005,ImageRatingTask_S2,2021.1.4,MacIntel,58.82352941,,,,,,,,,
,,,,,,,,,,,,0,3,3,3,1,fourth,12,28,female,L,IMT,2021-07-10_08h58.00.005,ImageRatingTask_S2,2021.1.4,MacIntel,58.82352941,,,,,,,,,
,,,,,,,,,,,,0,4,4,4,1,fifth,12,28,female,L,IMT,2021-07-10_08h58.00.005,ImageRatingTask_S2,2021.1.4,MacIntel,58.82352941,,,,,,,,,
,,,,,,,,,,,,0,5,5,5,1,sixth,12,28,female,L,IMT,2021-07-10_08h58.00.005,ImageRatingTask_S2,2021.1.4,MacIntel,58.82352941,,,,,,,,,
,,,,,,,,,,,,0,6,6,6,1,seventh,12,28,female,L,IMT,2021-07-10_08h58.00.005,ImageRatingTask_S2,2021.1.4,MacIntel,58.82352941,,,,,,,,,
,,,,,,,,,,,,0,7,7,7,1,last,12,28,female,L,IMT,2021-07-10_08h58.00.005,ImageRatingTask_S2,2021.1.4,MacIntel,58.82352941,,,,,,,,,
,,,,,,,,,,,,,,,,,,12,28,female,L,IMT,2021-07-10_08h58.00.005,ImageRatingTask_S2,2021.1.4,MacIntel,58.82352941,0,6,6,16,1,DreamStudyImages_rs1000x750g/Mammals/Cat 7.jpg,,,
,,5,1.803,1,0.606,4,1.265,1,1.245,7,0.693,0,0,0,0,1,main,12,28,female,L,IMT,2021-07-10_08h58.00.005,ImageRatingTask_S2,2021.1.4,MacIntel,58.82352941,,,,,,,,,
,,,,,,,,,,,,0,1,1,1,1,second,12,28,female,L,IMT,2021-07-10_08h58.00.005,ImageRatingTask_S2,2021.1.4,MacIntel,58.82352941,,,,,,,,,
,,,,,,,,,,,,0,2,2,2,1,third,12,28,female,L,IMT,2021-07-10_08h58.00.005,ImageRatingTask_S2,2021.1.4,MacIntel,58.82352941,,,,,,,,,
,,,,,,,,,,,,0,3,3,3,1,fourth,12,28,female,L,IMT,2021-07-10_08h58.00.005,ImageRatingTask_S2,2021.1.4,MacIntel,58.82352941,,,,,,,,,
,,,,,,,,,,,,0,4,4,4,1,fifth,12,28,female,L,IMT,2021-07-10_08h58.00.005,ImageRatingTask_S2,2021.1.4,MacIntel,58.82352941,,,,,,,,,
,,,,,,,,,,,,0,5,5,5,1,sixth,12,28,female,L,IMT,2021-07-10_08h58.00.005,ImageRatingTask_S2,2021.1.4,MacIntel,58.82352941,,,,,,,,,
,,,,,,,,,,,,0,6,6,6,1,seventh,12,28,female,L,IMT,2021-07-10_08h58.00.005,ImageRatingTask_S2,2021.1.4,MacIntel,58.82352941,,,,,,,,,
,,,,,,,,,,,,0,7,7,7,1,last,12,28,female,L,IMT,2021-07-10_08h58.00.005,ImageRatingTask_S2,2021.1.4,MacIntel,58.82352941,,,,,,,,,
,,,,,,,,,,,,,,,,,,12,28,female,L,IMT,2021-07-10_08h58.00.005,ImageRatingTask_S2,2021.1.4,MacIntel,58.82352941,0,7,7,57,1,DreamStudyImages_rs1000x750g/Vehicles/rheingoldtrain_CROPPED.jpg,,,
,,4,2.953,1,0.965,8,3.257,1,2.035,4,6.683,0,0,0,0,1,main,12,28,female,L,IMT,2021-07-10_08h58.00.005,ImageRatingTask_S2,2021.1.4,MacIntel,58.82352941,,,,,,,,,
,,,,,,,,,,,,0,1,1,1,1,second,12,28,female,L,IMT,2021-07-10_08h58.00.005,ImageRatingTask_S2,2021.1.4,MacIntel,58.82352941,,,,,,,,,
,,,,,,,,,,,,0,2,2,2,1,third,12,28,female,L,IMT,2021-07-10_08h58.00.005,ImageRatingTask_S2,2021.1.4,MacIntel,58.82352941,,,,,,,,,
,,,,,,,,,,,,0,3,3,3,1,fourth,12,28,female,L,IMT,2021-07-10_08h58.00.005,ImageRatingTask_S2,2021.1.4,MacIntel,58.82352941,,,,,,,,,
,,,,,,,,,,,,0,4,4,4,1,fifth,12,28,female,L,IMT,2021-07-10_08h58.00.005,ImageRatingTask_S2,2021.1.4,MacIntel,58.82352941,,,,,,,,,
,,,,,,,,,,,,0,5,5,5,1,sixth,12,28,female,L,IMT,2021-07-10_08h58.00.005,ImageRatingTask_S2,2021.1.4,MacIntel,58.82352941,,,,,,,,,
,,,,,,,,,,,,0,6,6,6,1,seventh,12,28,female,L,IMT,2021-07-10_08h58.00.005,ImageRatingTask_S2,2021.1.4,MacIntel,58.82352941,,,,,,,,,
,,,,,,,,,,,,0,7,7,7,1,last,12,28,female,L,IMT,2021-07-10_08h58.00.005,ImageRatingTask_S2,2021.1.4,MacIntel,58.82352941,,,,,,,,,
,,,,,,,,,,,,,,,,,,12,28,female,L,IMT,2021-07-10_08h58.00.005,ImageRatingTask_S2,2021.1.4,MacIntel,58.82352941,0,8,8,91,1,DreamStudyImages_rs1000x750g/Mammals/Animals_111_h.jpg,,,
,,7,2.579,2,0.85,8,1.489,1,1.138,3,0.363,0,0,0,0,1,main,12,28,female,L,IMT,2021-07-10_08h58.00.005,ImageRatingTask_S2,2021.1.4,MacIntel,58.82352941,,,,,,,,,
,,,,,,,,,,,,0,1,1,1,1,second,12,28,female,L,IMT,2021-07-10_08h58.00.005,ImageRatingTask_S2,2021.1.4,MacIntel,58.82352941,,,,,,,,,
,,,,,,,,,,,,0,2,2,2,1,third,12,28,female,L,IMT,2021-07-10_08h58.00.005,ImageRatingTask_S2,2021.1.4,MacIntel,58.82352941,,,,,,,,,
,,,,,,,,,,,,0,3,3,3,1,fourth,12,28,female,L,IMT,2021-07-10_08h58.00.005,ImageRatingTask_S2,2021.1.4,MacIntel,58.82352941,,,,,,,,,
,,,,,,,,,,,,0,4,4,4,1,fifth,12,28,female,L,IMT,2021-07-10_08h58.00.005,ImageRatingTask_S2,2021.1.4,MacIntel,58.82352941,,,,,,,,,
,,,,,,,,,,,,0,5,5,5,1,sixth,12,28,female,L,IMT,2021-07-10_08h58.00.005,ImageRatingTask_S2,2021.1.4,MacIntel,58.82352941,,,,,,,,,
,,,,,,,,,,,,0,6,6,6,1,seventh,12,28,female,L,IMT,2021-07-10_08h58.00.005,ImageRatingTask_S2,2021.1.4,MacIntel,58.82352941,,,,,,,,,
,,,,,,,,,,,,0,7,7,7,1,last,12,28,female,L,IMT,2021-07-10_08h58.00.005,ImageRatingTask_S2,2021.1.4,MacIntel,58.82352941,,,,,,,,,
,,,,,,,,,,,,,,,,,,12,28,female,L,IMT,2021-07-10_08h58.00.005,ImageRatingTask_S2,2021.1.4,MacIntel,58.82352941,0,9,9,51,1,DreamStudyImages_rs1000x750g/Mammals/Animals_034_h.jpg,,,
,,6,136.7,2,1.779,6,1.345,1,2.269,6,0.901,0,0,0,0,1,main,12,28,female,L,IMT,2021-07-10_08h58.00.005,ImageRatingTask_S2,2021.1.4,MacIntel,58.82352941,,,,,,,,,
,,,,,,,,,,,,0,1,1,1,1,second,12,28,female,L,IMT,2021-07-10_08h58.00.005,ImageRatingTask_S2,2021.1.4,MacIntel,58.82352941,,,,,,,,,
,,,,,,,,,,,,0,2,2,2,1,third,12,28,female,L,IMT,2021-07-10_08h58.00.005,ImageRatingTask_S2,2021.1.4,MacIntel,58.82352941,,,,,,,,,
,,,,,,,,,,,,0,3,3,3,1,fourth,12,28,female,L,IMT,2021-07-10_08h58.00.005,ImageRatingTask_S2,2021.1.4,MacIntel,58.82352941,,,,,,,,,
,,,,,,,,,,,,0,4,4,4,1,fifth,12,28,female,L,IMT,2021-07-10_08h58.00.005,ImageRatingTask_S2,2021.1.4,MacIntel,58.82352941,,,,,,,,,
,,,,,,,,,,,,0,5,5,5,1,sixth,12,28,female,L,IMT,2021-07-10_08h58.00.005,ImageRatingTask_S2,2021.1.4,MacIntel,58.82352941,,,,,,,,,
,,,,,,,,,,,,0,6,6,6,1,seventh,12,28,female,L,IMT,2021-07-10_08h58.00.005,ImageRatingTask_S2,2021.1.4,MacIntel,58.82352941,,,,,,,,,
,,,,,,,,,,,,0,7,7,7,1,last,12,28,female,L,IMT,2021-07-10_08h58.00.005,ImageRatingTask_S2,2021.1.4,MacIntel,58.82352941,,,,,,,,,
,,,,,,,,,,,,,,,,,,12,28,female,L,IMT,2021-07-10_08h58.00.005,ImageRatingTask_S2,2021.1.4,MacIntel,58.82352941,0,10,10,76,1,DreamStudyImages_rs1000x750g/Houses/IAPS5731_house2.jpg,,,
,,5,4.646,1,0.866,6,1.62,1,1.042,2,0.423,0,0,0,0,1,main,12,28,female,L,IMT,2021-07-10_08h58.00.005,ImageRatingTask_S2,2021.1.4,MacIntel,58.82352941,,,,,,,,,
,,,,,,,,,,,,0,1,1,1,1,second,12,28,female,L,IMT,2021-07-10_08h58.00.005,ImageRatingTask_S2,2021.1.4,MacIntel,58.82352941,,,,,,,,,
,,,,,,,,,,,,0,2,2,2,1,third,12,28,female,L,IMT,2021-07-10_08h58.00.005,ImageRatingTask_S2,2021.1.4,MacIntel,58.82352941,,,,,,,,,
,,,,,,,,,,,,0,3,3,3,1,fourth,12,28,female,L,IMT,2021-07-10_08h58.00.005,ImageRatingTask_S2,2021.1.4,MacIntel,58.82352941,,,,,,,,,
,,,,,,,,,,,,0,4,4,4,1,fifth,12,28,female,L,IMT,2021-07-10_08h58.00.005,ImageRatingTask_S2,2021.1.4,MacIntel,58.82352941,,,,,,,,,
,,,,,,,,,,,,0,5,5,5,1,sixth,12,28,female,L,IMT,2021-07-10_08h58.00.005,ImageRatingTask_S2,2021.1.4,MacIntel,58.82352941,,,,,,,,,
,,,,,,,,,,,,0,6,6,6,1,seventh,12,28,female,L,IMT,2021-07-10_08h58.00.005,ImageRatingTask_S2,2021.1.4,MacIntel,58.82352941,,,,,,,,,
,,,,,,,,,,,,0,7,7,7,1,last,12,28,female,L,IMT,2021-07-10_08h58.00.005,ImageRatingTask_S2,2021.1.4,MacIntel,58.82352941,,,,,,,,,
,,,,,,,,,,,,,,,,,,12,28,female,L,IMT,2021-07-10_08h58.00.005,ImageRatingTask_S2,2021.1.4,MacIntel,58.82352941,0,11,11,146,1,DreamStudyImages_rs1000x750g/Children/IAPS2260_baby20.jpg,,,
,,5,2.629,1,0.908,7,2.376,1,0.947,2,1.748,0,0,0,0,1,main,12,28,female,L,IMT,2021-07-10_08h58.00.005,ImageRatingTask_S2,2021.1.4,MacIntel,58.82352941,,,,,,,,,
,,,,,,,,,,,,0,1,1,1,1,second,12,28,female,L,IMT,2021-07-10_08h58.00.005,ImageRatingTask_S2,2021.1.4,MacIntel,58.82352941,,,,,,,,,
,,,,,,,,,,,,0,2,2,2,1,third,12,28,female,L,IMT,2021-07-10_08h58.00.005,ImageRatingTask_S2,2021.1.4,MacIntel,58.82352941,,,,,,,,,
,,,,,,,,,,,,0,3,3,3,1,fourth,12,28,female,L,IMT,2021-07-10_08h58.00.005,ImageRatingTask_S2,2021.1.4,MacIntel,58.82352941,,,,,,,,,
,,,,,,,,,,,,0,4,4,4,1,fifth,12,28,female,L,IMT,2021-07-10_08h58.00.005,ImageRatingTask_S2,2021.1.4,MacIntel,58.82352941,,,,,,,,,
,,,,,,,,,,,,0,5,5,5,1,sixth,12,28,female,L,IMT,2021-07-10_08h58.00.005,ImageRatingTask_S2,2021.1.4,MacIntel,58.82352941,,,,,,,,,
,,,,,,,,,,,,0,6,6,6,1,seventh,12,28,female,L,IMT,2021-07-10_08h58.00.005,ImageRatingTask_S2,2021.1.4,MacIntel,58.82352941,,,,,,,,,
,,,,,,,,,,,,0,7,7,7,1,last,12,28,female,L,IMT,2021-07-10_08h58.00.005,ImageRatingTask_S2,2021.1.4,MacIntel,58.82352941,,,,,,,,,
,,,,,,,,,,,,,,,,,,12,28,female,L,IMT,2021-07-10_08h58.00.005,ImageRatingTask_S2,2021.1.4,MacIntel,58.82352941,0,12,12,9,1,DreamStudyImages_rs1000x750g/Children/Faces_076_h.jpg,,,
,,3,2.533,1,0.974,7,3.681,1,2.23,6,1.02,0,0,0,0,1,main,12,28,female,L,IMT,2021-07-10_08h58.00.005,ImageRatingTask_S2,2021.1.4,MacIntel,58.82352941,,,,,,,,,
,,,,,,,,,,,,0,1,1,1,1,second,12,28,female,L,IMT,2021-07-10_08h58.00.005,ImageRatingTask_S2,2021.1.4,MacIntel,58.82352941,,,,,,,,,
,,,,,,,,,,,,0,2,2,2,1,third,12,28,female,L,IMT,2021-07-10_08h58.00.005,ImageRatingTask_S2,2021.1.4,MacIntel,58.82352941,,,,,,,,,
,,,,,,,,,,,,0,3,3,3,1,fourth,12,28,female,L,IMT,2021-07-10_08h58.00.005,ImageRatingTask_S2,2021.1.4,MacIntel,58.82352941,,,,,,,,,
,,,,,,,,,,,,0,4,4,4,1,fifth,12,28,female,L,IMT,2021-07-10_08h58.00.005,ImageRatingTask_S2,2021.1.4,MacIntel,58.82352941,,,,,,,,,
,,,,,,,,,,,,0,5,5,5,1,sixth,12,28,female,L,IMT,2021-07-10_08h58.00.005,ImageRatingTask_S2,2021.1.4,MacIntel,58.82352941,,,,,,,,,
,,,,,,,,,,,,0,6,6,6,1,seventh,12,28,female,L,IMT,2021-07-10_08h58.00.005,ImageRatingTask_S2,2021.1.4,MacIntel,58.82352941,,,,,,,,,
,,,,,,,,,,,,0,7,7,7,1,last,12,28,female,L,IMT,2021-07-10_08h58.00.005,ImageRatingTask_S2,2021.1.4,MacIntel,58.82352941,,,,,,,,,
,,,,,,,,,,,,,,,,,,12,28,female,L,IMT,2021-07-10_08h58.00.005,ImageRatingTask_S2,2021.1.4,MacIntel,58.82352941,0,13,13,155,1,DreamStudyImages_rs1000x750g/Houses/Landscapes_007_h.jpg,,,
,,4,3.054,1,1.14,3,5.089,1,2.602,7,0.636,0,0,0,0,1,main,12,28,female,L,IMT,2021-07-10_08h58.00.005,ImageRatingTask_S2,2021.1.4,MacIntel,58.82352941,,,,,,,,,
,,,,,,,,,,,,0,1,1,1,1,second,12,28,female,L,IMT,2021-07-10_08h58.00.005,ImageRatingTask_S2,2021.1.4,MacIntel,58.82352941,,,,,,,,,
,,,,,,,,,,,,0,2,2,2,1,third,12,28,female,L,IMT,2021-07-10_08h58.00.005,ImageRatingTask_S2,2021.1.4,MacIntel,58.82352941,,,,,,,,,
,,,,,,,,,,,,0,3,3,3,1,fourth,12,28,female,L,IMT,2021-07-10_08h58.00.005,ImageRatingTask_S2,2021.1.4,MacIntel,58.82352941,,,,,,,,,
,,,,,,,,,,,,0,4,4,4,1,fifth,12,28,female,L,IMT,2021-07-10_08h58.00.005,ImageRatingTask_S2,2021.1.4,MacIntel,58.82352941,,,,,,,,,
,,,,,,,,,,,,0,5,5,5,1,sixth,12,28,female,L,IMT,2021-07-10_08h58.00.005,ImageRatingTask_S2,2021.1.4,MacIntel,58.82352941,,,,,,,,,
,,,,,,,,,,,,0,6,6,6,1,seventh,12,28,female,L,IMT,2021-07-10_08h58.00.005,ImageRatingTask_S2,2021.1.4,MacIntel,58.82352941,,,,,,,,,
,,,,,,,,,,,,0,7,7,7,1,last,12,28,female,L,IMT,2021-07-10_08h58.00.005,ImageRatingTask_S2,2021.1.4,MacIntel,58.82352941,,,,,,,,,
,,,,,,,,,,,,,,,,,,12,28,female,L,IMT,2021-07-10_08h58.00.005,ImageRatingTask_S2,2021.1.4,MacIntel,58.82352941,0,14,14,147,1,DreamStudyImages_rs1000x750g/Vehicles/IAPS9090_car3.jpg,,,
,,3,3.564,1,0.689,7,1.731,0,2.947,,,0,0,0,0,1,main,12,28,female,L,IMT,2021-07-10_08h58.00.005,ImageRatingTask_S2,2021.1.4,MacIntel,58.82352941,,,,,,,,,
,,,,,,,,,,,,0,1,1,1,1,second,12,28,female,L,IMT,2021-07-10_08h58.00.005,ImageRatingTask_S2,2021.1.4,MacIntel,58.82352941,,,,,,,,,
,,,,,,,,,,,,0,2,2,2,1,third,12,28,female,L,IMT,2021-07-10_08h58.00.005,ImageRatingTask_S2,2021.1.4,MacIntel,58.82352941,,,,,,,,,
,,,,,,,,,,,,0,3,3,3,1,fourth,12,28,female,L,IMT,2021-07-10_08h58.00.005,ImageRatingTask_S2,2021.1.4,MacIntel,58.82352941,,,,,,,,,
,,,,,,,,,,,,0,4,4,4,1,fifth,12,28,female,L,IMT,2021-07-10_08h58.00.005,ImageRatingTask_S2,2021.1.4,MacIntel,58.82352941,,,,,,,,,
,,,,,,,,,,,,0,5,5,5,1,sixth,12,28,female,L,IMT,2021-07-10_08h58.00.005,ImageRatingTask_S2,2021.1.4,MacIntel,58.82352941,,,,,,,,,
,,,,,,,,,,,,0,6,6,6,1,seventh,12,28,female,L,IMT,2021-07-10_08h58.00.005,ImageRatingTask_S2,2021.1.4,MacIntel,58.82352941,,,,,,,,,
,,,,,,,,,,,,0,7,7,7,1,last,12,28,female,L,IMT,2021-07-10_08h58.00.005,ImageRatingTask_S2,2021.1.4,MacIntel,58.82352941,,,,,,,,,
,,,,,,,,,,,,,,,,,,12,28,female,L,IMT,2021-07-10_08h58.00.005,ImageRatingTask_S2,2021.1.4,MacIntel,58.82352941,0,15,15,150,1,DreamStudyImages_rs1000x750g/Food/food_neg_3bis.jpg,,,
,,5,5.123,1,0.718,7,2.47,0,1.746,,,0,0,0,0,1,main,12,28,female,L,IMT,2021-07-10_08h58.00.005,ImageRatingTask_S2,2021.1.4,MacIntel,58.82352941,,,,,,,,,
,,,,,,,,,,,,0,1,1,1,1,second,12,28,female,L,IMT,2021-07-10_08h58.00.005,ImageRatingTask_S2,2021.1.4,MacIntel,58.82352941,,,,,,,,,
,,,,,,,,,,,,0,2,2,2,1,third,12,28,female,L,IMT,2021-07-10_08h58.00.005,ImageRatingTask_S2,2021.1.4,MacIntel,58.82352941,,,,,,,,,
,,,,,,,,,,,,0,3,3,3,1,fourth,12,28,female,L,IMT,2021-07-10_08h58.00.005,ImageRatingTask_S2,2021.1.4,MacIntel,58.82352941,,,,,,,,,
,,,,,,,,,,,,0,4,4,4,1,fifth,12,28,female,L,IMT,2021-07-10_08h58.00.005,ImageRatingTask_S2,2021.1.4,MacIntel,58.82352941,,,,,,,,,
,,,,,,,,,,,,0,5,5,5,1,sixth,12,28,female,L,IMT,2021-07-10_08h58.00.005,ImageRatingTask_S2,2021.1.4,MacIntel,58.82352941,,,,,,,,,
,,,,,,,,,,,,0,6,6,6,1,seventh,12,28,female,L,IMT,2021-07-10_08h58.00.005,ImageRatingTask_S2,2021.1.4,MacIntel,58.82352941,,,,,,,,,
,,,,,,,,,,,,0,7,7,7,1,last,12,28,female,L,IMT,2021-07-10_08h58.00.005,ImageRatingTask_S2,2021.1.4,MacIntel,58.82352941,,,,,,,,,
,,,,,,,,,,,,,,,,,,12,28,female,L,IMT,2021-07-10_08h58.00.005,ImageRatingTask_S2,2021.1.4,MacIntel,58.82352941,0,16,16,112,1,DreamStudyImages_rs1000x750g/Vehicles/People_012_h.jpg,,,
,,6,2.306,2,0.746,7,2.346,1,1.556,8,0.85,0,0,0,0,1,main,12,28,female,L,IMT,2021-07-10_08h58.00.005,ImageRatingTask_S2,2021.1.4,MacIntel,58.82352941,,,,,,,,,
,,,,,,,,,,,,0,1,1,1,1,second,12,28,female,L,IMT,2021-07-10_08h58.00.005,ImageRatingTask_S2,2021.1.4,MacIntel,58.82352941,,,,,,,,,
,,,,,,,,,,,,0,2,2,2,1,third,12,28,female,L,IMT,2021-07-10_08h58.00.005,ImageRatingTask_S2,2021.1.4,MacIntel,58.82352941,,,,,,,,,
,,,,,,,,,,,,0,3,3,3,1,fourth,12,28,female,L,IMT,2021-07-10_08h58.00.005,ImageRatingTask_S2,2021.1.4,MacIntel,58.82352941,,,,,,,,,
,,,,,,,,,,,,0,4,4,4,1,fifth,12,28,female,L,IMT,2021-07-10_08h58.00.005,ImageRatingTask_S2,2021.1.4,MacIntel,58.82352941,,,,,,,,,
,,,,,,,,,,,,0,5,5,5,1,sixth,12,28,female,L,IMT,2021-07-10_08h58.00.005,ImageRatingTask_S2,2021.1.4,MacIntel,58.82352941,,,,,,,,,
,,,,,,,,,,,,0,6,6,6,1,seventh,12,28,female,L,IMT,2021-07-10_08h58.00.005,ImageRatingTask_S2,2021.1.4,MacIntel,58.82352941,,,,,,,,,
,,,,,,,,,,,,0,7,7,7,1,last,12,28,female,L,IMT,2021-07-10_08h58.00.005,ImageRatingTask_S2,2021.1.4,MacIntel,58.82352941,,,,,,,,,
,,,,,,,,,,,,,,,,,,12,28,female,L,IMT,2021-07-10_08h58.00.005,ImageRatingTask_S2,2021.1.4,MacIntel,58.82352941,0,17,17,62,1,DreamStudyImages_rs1000x750g/Water/Landscapes_115_v.jpg,,,
,,6,2.098,2,0.642,6,3.117,1,0.988,2,0.595,0,0,0,0,1,main,12,28,female,L,IMT,2021-07-10_08h58.00.005,ImageRatingTask_S2,2021.1.4,MacIntel,58.82352941,,,,,,,,,
,,,,,,,,,,,,0,1,1,1,1,second,12,28,female,L,IMT,2021-07-10_08h58.00.005,ImageRatingTask_S2,2021.1.4,MacIntel,58.82352941,,,,,,,,,
,,,,,,,,,,,,0,2,2,2,1,third,12,28,female,L,IMT,2021-07-10_08h58.00.005,ImageRatingTask_S2,2021.1.4,MacIntel,58.82352941,,,,,,,,,
,,,,,,,,,,,,0,3,3,3,1,fourth,12,28,female,L,IMT,2021-07-10_08h58.00.005,ImageRatingTask_S2,2021.1.4,MacIntel,58.82352941,,,,,,,,,
,,,,,,,,,,,,0,4,4,4,1,fifth,12,28,female,L,IMT,2021-07-10_08h58.00.005,ImageRatingTask_S2,2021.1.4,MacIntel,58.82352941,,,,,,,,,
,,,,,,,,,,,,0,5,5,5,1,sixth,12,28,female,L,IMT,2021-07-10_08h58.00.005,ImageRatingTask_S2,2021.1.4,MacIntel,58.82352941,,,,,,,,,
,,,,,,,,,,,,0,6,6,6,1,seventh,12,28,female,L,IMT,2021-07-10_08h58.00.005,ImageRatingTask_S2,2021.1.4,MacIntel,58.82352941,,,,,,,,,
,,,,,,,,,,,,0,7,7,7,1,last,12,28,female,L,IMT,2021-07-10_08h58.00.005,ImageRatingTask_S2,2021.1.4,MacIntel,58.82352941,,,,,,,,,
,,,,,,,,,,,,,,,,,,12,28,female,L,IMT,2021-07-10_08h58.00.005,ImageRatingTask_S2,2021.1.4,MacIntel,58.82352941,0,18,18,41,1,DreamStudyImages_rs1000x750g/Children/IAPS2442_child3.jpg,,,
,,7,1.47,3,1.022,9,1.809,1,2.841,8,0.987,0,0,0,0,1,main,12,28,female,L,IMT,2021-07-10_08h58.00.005,ImageRatingTask_S2,2021.1.4,MacIntel,58.82352941,,,,,,,,,
,,,,,,,,,,,,0,1,1,1,1,second,12,28,female,L,IMT,2021-07-10_08h58.00.005,ImageRatingTask_S2,2021.1.4,MacIntel,58.82352941,,,,,,,,,
,,,,,,,,,,,,0,2,2,2,1,third,12,28,female,L,IMT,2021-07-10_08h58.00.005,ImageRatingTask_S2,2021.1.4,MacIntel,58.82352941,,,,,,,,,
,,,,,,,,,,,,0,3,3,3,1,fourth,12,28,female,L,IMT,2021-07-10_08h58.00.005,ImageRatingTask_S2,2021.1.4,MacIntel,58.82352941,,,,,,,,,
,,,,,,,,,,,,0,4,4,4,1,fifth,12,28,female,L,IMT,2021-07-10_08h58.00.005,ImageRatingTask_S2,2021.1.4,MacIntel,58.82352941,,,,,,,,,
,,,,,,,,,,,,0,5,5,5,1,sixth,12,28,female,L,IMT,2021-07-10_08h58.00.005,ImageRatingTask_S2,2021.1.4,MacIntel,58.82352941,,,,,,,,,
,,,,,,,,,,,,0,6,6,6,1,seventh,12,28,female,L,IMT,2021-07-10_08h58.00.005,ImageRatingTask_S2,2021.1.4,MacIntel,58.82352941,,,,,,,,,
,,,,,,,,,,,,0,7,7,7,1,last,12,28,female,L,IMT,2021-07-10_08h58.00.005,ImageRatingTask_S2,2021.1.4,MacIntel,58.82352941,,,,,,,,,
,,,,,,,,,,,,,,,,,,12,28,female,L,IMT,2021-07-10_08h58.00.005,ImageRatingTask_S2,2021.1.4,MacIntel,58.82352941,0,19,19,37,1,DreamStudyImages_rs1000x750g/Water/Landscapes_180_h.jpg,,,
,,6,2.534,2,2.898,8,1.805,1,1.155,5,0.705,0,0,0,0,1,main,12,28,female,L,IMT,2021-07-10_08h58.00.005,ImageRatingTask_S2,2021.1.4,MacIntel,58.82352941,,,,,,,,,
,,,,,,,,,,,,0,1,1,1,1,second,12,28,female,L,IMT,2021-07-10_08h58.00.005,ImageRatingTask_S2,2021.1.4,MacIntel,58.82352941,,,,,,,,,
,,,,,,,,,,,,0,2,2,2,1,third,12,28,female,L,IMT,2021-07-10_08h58.00.005,ImageRatingTask_S2,2021.1.4,MacIntel,58.82352941,,,,,,,,,
,,,,,,,,,,,,0,3,3,3,1,fourth,12,28,female,L,IMT,2021-07-10_08h58.00.005,ImageRatingTask_S2,2021.1.4,MacIntel,58.82352941,,,,,,,,,
,,,,,,,,,,,,0,4,4,4,1,fifth,12,28,female,L,IMT,2021-07-10_08h58.00.005,ImageRatingTask_S2,2021.1.4,MacIntel,58.82352941,,,,,,,,,
,,,,,,,,,,,,0,5,5,5,1,sixth,12,28,female,L,IMT,2021-07-10_08h58.00.005,ImageRatingTask_S2,2021.1.4,MacIntel,58.82352941,,,,,,,,,
,,,,,,,,,,,,0,6,6,6,1,seventh,12,28,female,L,IMT,2021-07-10_08h58.00.005,ImageRatingTask_S2,2021.1.4,MacIntel,58.82352941,,,,,,,,,
,,,,,,,,,,,,0,7,7,7,1,last,12,28,female,L,IMT,2021-07-10_08h58.00.005,ImageRatingTask_S2,2021.1.4,MacIntel,58.82352941,,,,,,,,,
,,,,,,,,,,,,,,,,,,12,28,female,L,IMT,2021-07-10_08h58.00.005,ImageRatingTask_S2,2021.1.4,MacIntel,58.82352941,0,20,20,6,1,DreamStudyImages_rs1000x750g/Food/Objects_069_h.jpg,,,
,,5,2.579,1,0.929,7,1.49,1,3.665,2,0.52,0,0,0,0,1,main,12,28,female,L,IMT,2021-07-10_08h58.00.005,ImageRatingTask_S2,2021.1.4,MacIntel,58.82352941,,,,,,,,,
,,,,,,,,,,,,0,1,1,1,1,second,12,28,female,L,IMT,2021-07-10_08h58.00.005,ImageRatingTask_S2,2021.1.4,MacIntel,58.82352941,,,,,,,,,
,,,,,,,,,,,,0,2,2,2,1,third,12,28,female,L,IMT,2021-07-10_08h58.00.005,ImageRatingTask_S2,2021.1.4,MacIntel,58.82352941,,,,,,,,,
,,,,,,,,,,,,0,3,3,3,1,fourth,12,28,female,L,IMT,2021-07-10_08h58.00.005,ImageRatingTask_S2,2021.1.4,MacIntel,58.82352941,,,,,,,,,
,,,,,,,,,,,,0,4,4,4,1,fifth,12,28,female,L,IMT,2021-07-10_08h58.00.005,ImageRatingTask_S2,2021.1.4,MacIntel,58.82352941,,,,,,,,,
,,,,,,,,,,,,0,5,5,5,1,sixth,12,28,female,L,IMT,2021-07-10_08h58.00.005,ImageRatingTask_S2,2021.1.4,MacIntel,58.82352941,,,,,,,,,
,,,,,,,,,,,,0,6,6,6,1,seventh,12,28,female,L,IMT,2021-07-10_08h58.00.005,ImageRatingTask_S2,2021.1.4,MacIntel,58.82352941,,,,,,,,,
,,,,,,,,,,,,0,7,7,7,1,last,12,28,female,L,IMT,2021-07-10_08h58.00.005,ImageRatingTask_S2,2021.1.4,MacIntel,58.82352941,,,,,,,,,
,,,,,,,,,,,,,,,,,,12,28,female,L,IMT,2021-07-10_08h58.00.005,ImageRatingTask_S2,2021.1.4,MacIntel,58.82352941,0,21,21,100,1,DreamStudyImages_rs1000x750g/Children/Faces_101_h.jpg,,,
,,6,2.559,1,1.022,7,1.422,1,1.381,2,0.975,0,0,0,0,1,main,12,28,female,L,IMT,2021-07-10_08h58.00.005,ImageRatingTask_S2,2021.1.4,MacIntel,58.82352941,,,,,,,,,
,,,,,,,,,,,,0,1,1,1,1,second,12,28,female,L,IMT,2021-07-10_08h58.00.005,ImageRatingTask_S2,2021.1.4,MacIntel,58.82352941,,,,,,,,,
,,,,,,,,,,,,0,2,2,2,1,third,12,28,female,L,IMT,2021-07-10_08h58.00.005,ImageRatingTask_S2,2021.1.4,MacIntel,58.82352941,,,,,,,,,
,,,,,,,,,,,,0,3,3,3,1,fourth,12,28,female,L,IMT,2021-07-10_08h58.00.005,ImageRatingTask_S2,2021.1.4,MacIntel,58.82352941,,,,,,,,,
,,,,,,,,,,,,0,4,4,4,1,fifth,12,28,female,L,IMT,2021-07-10_08h58.00.005,ImageRatingTask_S2,2021.1.4,MacIntel,58.82352941,,,,,,,,,
,,,,,,,,,,,,0,5,5,5,1,sixth,12,28,female,L,IMT,2021-07-10_08h58.00.005,ImageRatingTask_S2,2021.1.4,MacIntel,58.82352941,,,,,,,,,
,,,,,,,,,,,,0,6,6,6,1,seventh,12,28,female,L,IMT,2021-07-10_08h58.00.005,ImageRatingTask_S2,2021.1.4,MacIntel,58.82352941,,,,,,,,,
,,,,,,,,,,,,0,7,7,7,1,last,12,28,female,L,IMT,2021-07-10_08h58.00.005,ImageRatingTask_S2,2021.1.4,MacIntel,58.82352941,,,,,,,,,
,,,,,,,,,,,,,,,,,,12,28,female,L,IMT,2021-07-10_08h58.00.005,ImageRatingTask_S2,2021.1.4,MacIntel,58.82352941,0,22,22,22,1,DreamStudyImages_rs1000x750g/Children/Siblings 1.jpg,,,
,,6,4.456,1,0.705,6,4.89,1,2.197,3,1.335,0,0,0,0,1,main,12,28,female,L,IMT,2021-07-10_08h58.00.005,ImageRatingTask_S2,2021.1.4,MacIntel,58.82352941,,,,,,,,,
,,,,,,,,,,,,0,1,1,1,1,second,12,28,female,L,IMT,2021-07-10_08h58.00.005,ImageRatingTask_S2,2021.1.4,MacIntel,58.82352941,,,,,,,,,
,,,,,,,,,,,,0,2,2,2,1,third,12,28,female,L,IMT,2021-07-10_08h58.00.005,ImageRatingTask_S2,2021.1.4,MacIntel,58.82352941,,,,,,,,,
,,,,,,,,,,,,0,3,3,3,1,fourth,12,28,female,L,IMT,2021-07-10_08h58.00.005,ImageRatingTask_S2,2021.1.4,MacIntel,58.82352941,,,,,,,,,
,,,,,,,,,,,,0,4,4,4,1,fifth,12,28,female,L,IMT,2021-07-10_08h58.00.005,ImageRatingTask_S2,2021.1.4,MacIntel,58.82352941,,,,,,,,,
,,,,,,,,,,,,0,5,5,5,1,sixth,12,28,female,L,IMT,2021-07-10_08h58.00.005,ImageRatingTask_S2,2021.1.4,MacIntel,58.82352941,,,,,,,,,
,,,,,,,,,,,,0,6,6,6,1,seventh,12,28,female,L,IMT,2021-07-10_08h58.00.005,ImageRatingTask_S2,2021.1.4,MacIntel,58.82352941,,,,,,,,,
,,,,,,,,,,,,0,7,7,7,1,last,12,28,female,L,IMT,2021-07-10_08h58.00.005,ImageRatingTask_S2,2021.1.4,MacIntel,58.82352941,,,,,,,,,
,,,,,,,,,,,,,,,,,,12,28,female,L,IMT,2021-07-10_08h58.00.005,ImageRatingTask_S2,2021.1.4,MacIntel,58.82352941,0,23,23,142,1,DreamStudyImages_rs1000x750g/Mammals/Animal carcass 6.jpg,,,
,,5,9.377,1,0.406,6,1.574,1,1.097,8,0.478,0,0,0,0,1,main,12,28,female,L,IMT,2021-07-10_08h58.00.005,ImageRatingTask_S2,2021.1.4,MacIntel,58.82352941,,,,,,,,,
,,,,,,,,,,,,0,1,1,1,1,second,12,28,female,L,IMT,2021-07-10_08h58.00.005,ImageRatingTask_S2,2021.1.4,MacIntel,58.82352941,,,,,,,,,
,,,,,,,,,,,,0,2,2,2,1,third,12,28,female,L,IMT,2021-07-10_08h58.00.005,ImageRatingTask_S2,2021.1.4,MacIntel,58.82352941,,,,,,,,,
,,,,,,,,,,,,0,3,3,3,1,fourth,12,28,female,L,IMT,2021-07-10_08h58.00.005,ImageRatingTask_S2,2021.1.4,MacIntel,58.82352941,,,,,,,,,
,,,,,,,,,,,,0,4,4,4,1,fifth,12,28,female,L,IMT,2021-07-10_08h58.00.005,ImageRatingTask_S2,2021.1.4,MacIntel,58.82352941,,,,,,,,,
,,,,,,,,,,,,0,5,5,5,1,sixth,12,28,female,L,IMT,2021-07-10_08h58.00.005,ImageRatingTask_S2,2021.1.4,MacIntel,58.82352941,,,,,,,,,
,,,,,,,,,,,,0,6,6,6,1,seventh,12,28,female,L,IMT,2021-07-10_08h58.00.005,ImageRatingTask_S2,2021.1.4,MacIntel,58.82352941,,,,,,,,,
,,,,,,,,,,,,0,7,7,7,1,last,12,28,female,L,IMT,2021-07-10_08h58.00.005,ImageRatingTask_S2,2021.1.4,MacIntel,58.82352941,,,,,,,,,
,,,,,,,,,,,,,,,,,,12,28,female,L,IMT,2021-07-10_08h58.00.005,ImageRatingTask_S2,2021.1.4,MacIntel,58.82352941,0,24,24,98,1,DreamStudyImages_rs1000x750g/Water/cityfountain.jpg,,,
,,6,21.652,1,0.623,7,1.533,1,1.461,6,0.809,0,0,0,0,1,main,12,28,female,L,IMT,2021-07-10_08h58.00.005,ImageRatingTask_S2,2021.1.4,MacIntel,58.82352941,,,,,,,,,
,,,,,,,,,,,,0,1,1,1,1,second,12,28,female,L,IMT,2021-07-10_08h58.00.005,ImageRatingTask_S2,2021.1.4,MacIntel,58.82352941,,,,,,,,,
,,,,,,,,,,,,0,2,2,2,1,third,12,28,female,L,IMT,2021-07-10_08h58.00.005,ImageRatingTask_S2,2021.1.4,MacIntel,58.82352941,,,,,,,,,
,,,,,,,,,,,,0,3,3,3,1,fourth,12,28,female,L,IMT,2021-07-10_08h58.00.005,ImageRatingTask_S2,2021.1.4,MacIntel,58.82352941,,,,,,,,,
,,,,,,,,,,,,0,4,4,4,1,fifth,12,28,female,L,IMT,2021-07-10_08h58.00.005,ImageRatingTask_S2,2021.1.4,MacIntel,58.82352941,,,,,,,,,
,,,,,,,,,,,,0,5,5,5,1,sixth,12,28,female,L,IMT,2021-07-10_08h58.00.005,ImageRatingTask_S2,2021.1.4,MacIntel,58.82352941,,,,,,,,,
,,,,,,,,,,,,0,6,6,6,1,seventh,12,28,female,L,IMT,2021-07-10_08h58.00.005,ImageRatingTask_S2,2021.1.4,MacIntel,58.82352941,,,,,,,,,
,,,,,,,,,,,,0,7,7,7,1,last,12,28,female,L,IMT,2021-07-10_08h58.00.005,ImageRatingTask_S2,2021.1.4,MacIntel,58.82352941,,,,,,,,,
,,,,,,,,,,,,,,,,,,12,28,female,L,IMT,2021-07-10_08h58.00.005,ImageRatingTask_S2,2021.1.4,MacIntel,58.82352941,0,25,25,33,1,DreamStudyImages_rs1000x750g/Houses/Landscapes_088_v.jpg,,,
,,6,3.139,1,0.732,8,1.329,1,0.975,5,0.453,0,0,0,0,1,main,12,28,female,L,IMT,2021-07-10_08h58.00.005,ImageRatingTask_S2,2021.1.4,MacIntel,58.82352941,,,,,,,,,
,,,,,,,,,,,,0,1,1,1,1,second,12,28,female,L,IMT,2021-07-10_08h58.00.005,ImageRatingTask_S2,2021.1.4,MacIntel,58.82352941,,,,,,,,,
,,,,,,,,,,,,0,2,2,2,1,third,12,28,female,L,IMT,2021-07-10_08h58.00.005,ImageRatingTask_S2,2021.1.4,MacIntel,58.82352941,,,,,,,,,
,,,,,,,,,,,,0,3,3,3,1,fourth,12,28,female,L,IMT,2021-07-10_08h58.00.005,ImageRatingTask_S2,2021.1.4,MacIntel,58.82352941,,,,,,,,,
,,,,,,,,,,,,0,4,4,4,1,fifth,12,28,female,L,IMT,2021-07-10_08h58.00.005,ImageRatingTask_S2,2021.1.4,MacIntel,58.82352941,,,,,,,,,
,,,,,,,,,,,,0,5,5,5,1,sixth,12,28,female,L,IMT,2021-07-10_08h58.00.005,ImageRatingTask_S2,2021.1.4,MacIntel,58.82352941,,,,,,,,,
,,,,,,,,,,,,0,6,6,6,1,seventh,12,28,female,L,IMT,2021-07-10_08h58.00.005,ImageRatingTask_S2,2021.1.4,MacIntel,58.82352941,,,,,,,,,
,,,,,,,,,,,,0,7,7,7,1,last,12,28,female,L,IMT,2021-07-10_08h58.00.005,ImageRatingTask_S2,2021.1.4,MacIntel,58.82352941,,,,,,,,,
,,,,,,,,,,,,,,,,,,12,28,female,L,IMT,2021-07-10_08h58.00.005,ImageRatingTask_S2,2021.1.4,MacIntel,58.82352941,0,26,26,4,1,DreamStudyImages_rs1000x750g/Food/Objects_048_h.jpg,,,
,,5,2.198,1,0.644,7,2.75,1,1.348,7,0.722,0,0,0,0,1,main,12,28,female,L,IMT,2021-07-10_08h58.00.005,ImageRatingTask_S2,2021.1.4,MacIntel,58.82352941,,,,,,,,,
,,,,,,,,,,,,0,1,1,1,1,second,12,28,female,L,IMT,2021-07-10_08h58.00.005,ImageRatingTask_S2,2021.1.4,MacIntel,58.82352941,,,,,,,,,
,,,,,,,,,,,,0,2,2,2,1,third,12,28,female,L,IMT,2021-07-10_08h58.00.005,ImageRatingTask_S2,2021.1.4,MacIntel,58.82352941,,,,,,,,,
,,,,,,,,,,,,0,3,3,3,1,fourth,12,28,female,L,IMT,2021-07-10_08h58.00.005,ImageRatingTask_S2,2021.1.4,MacIntel,58.82352941,,,,,,,,,
,,,,,,,,,,,,0,4,4,4,1,fifth,12,28,female,L,IMT,2021-07-10_08h58.00.005,ImageRatingTask_S2,2021.1.4,MacIntel,58.82352941,,,,,,,,,
,,,,,,,,,,,,0,5,5,5,1,sixth,12,28,female,L,IMT,2021-07-10_08h58.00.005,ImageRatingTask_S2,2021.1.4,MacIntel,58.82352941,,,,,,,,,
,,,,,,,,,,,,0,6,6,6,1,seventh,12,28,female,L,IMT,2021-07-10_08h58.00.005,ImageRatingTask_S2,2021.1.4,MacIntel,58.82352941,,,,,,,,,
,,,,,,,,,,,,0,7,7,7,1,last,12,28,female,L,IMT,2021-07-10_08h58.00.005,ImageRatingTask_S2,2021.1.4,MacIntel,58.82352941,,,,,,,,,
,,,,,,,,,,,,,,,,,,12,28,female,L,IMT,2021-07-10_08h58.00.005,ImageRatingTask_S2,2021.1.4,MacIntel,58.82352941,0,27,27,61,1,DreamStudyImages_rs1000x750g/Vehicles/Objects_281_h.jpg,,,
,,5,1.946,1,1.391,8,2.497,1,0.997,5,1.447,0,0,0,0,1,main,12,28,female,L,IMT,2021-07-10_08h58.00.005,ImageRatingTask_S2,2021.1.4,MacIntel,58.82352941,,,,,,,,,
,,,,,,,,,,,,0,1,1,1,1,second,12,28,female,L,IMT,2021-07-10_08h58.00.005,ImageRatingTask_S2,2021.1.4,MacIntel,58.82352941,,,,,,,,,
,,,,,,,,,,,,0,2,2,2,1,third,12,28,female,L,IMT,2021-07-10_08h58.00.005,ImageRatingTask_S2,2021.1.4,MacIntel,58.82352941,,,,,,,,,
,,,,,,,,,,,,0,3,3,3,1,fourth,12,28,female,L,IMT,2021-07-10_08h58.00.005,ImageRatingTask_S2,2021.1.4,MacIntel,58.82352941,,,,,,,,,
,,,,,,,,,,,,0,4,4,4,1,fifth,12,28,female,L,IMT,2021-07-10_08h58.00.005,ImageRatingTask_S2,2021.1.4,MacIntel,58.82352941,,,,,,,,,
,,,,,,,,,,,,0,5,5,5,1,sixth,12,28,female,L,IMT,2021-07-10_08h58.00.005,ImageRatingTask_S2,2021.1.4,MacIntel,58.82352941,,,,,,,,,
,,,,,,,,,,,,0,6,6,6,1,seventh,12,28,female,L,IMT,2021-07-10_08h58.00.005,ImageRatingTask_S2,2021.1.4,MacIntel,58.82352941,,,,,,,,,
,,,,,,,,,,,,0,7,7,7,1,last,12,28,female,L,IMT,2021-07-10_08h58.00.005,ImageRatingTask_S2,2021.1.4,MacIntel,58.82352941,,,,,,,,,
,,,,,,,,,,,,,,,,,,12,28,female,L,IMT,2021-07-10_08h58.00.005,ImageRatingTask_S2,2021.1.4,MacIntel,58.82352941,0,28,28,119,1,DreamStudyImages_rs1000x750g/Food/Objects_028_v.jpg,,,
,,6,3.231,1,0.68,8,2.426,1,0.839,5,0.421,0,0,0,0,1,main,12,28,female,L,IMT,2021-07-10_08h58.00.005,ImageRatingTask_S2,2021.1.4,MacIntel,58.82352941,,,,,,,,,
,,,,,,,,,,,,0,1,1,1,1,second,12,28,female,L,IMT,2021-07-10_08h58.00.005,ImageRatingTask_S2,2021.1.4,MacIntel,58.82352941,,,,,,,,,
,,,,,,,,,,,,0,2,2,2,1,third,12,28,female,L,IMT,2021-07-10_08h58.00.005,ImageRatingTask_S2,2021.1.4,MacIntel,58.82352941,,,,,,,,,
,,,,,,,,,,,,0,3,3,3,1,fourth,12,28,female,L,IMT,2021-07-10_08h58.00.005,ImageRatingTask_S2,2021.1.4,MacIntel,58.82352941,,,,,,,,,
,,,,,,,,,,,,0,4,4,4,1,fifth,12,28,female,L,IMT,2021-07-10_08h58.00.005,ImageRatingTask_S2,2021.1.4,MacIntel,58.82352941,,,,,,,,,
,,,,,,,,,,,,0,5,5,5,1,sixth,12,28,female,L,IMT,2021-07-10_08h58.00.005,ImageRatingTask_S2,2021.1.4,MacIntel,58.82352941,,,,,,,,,
,,,,,,,,,,,,0,6,6,6,1,seventh,12,28,female,L,IMT,2021-07-10_08h58.00.005,ImageRatingTask_S2,2021.1.4,MacIntel,58.82352941,,,,,,,,,
,,,,,,,,,,,,0,7,7,7,1,last,12,28,female,L,IMT,2021-07-10_08h58.00.005,ImageRatingTask_S2,2021.1.4,MacIntel,58.82352941,,,,,,,,,
,,,,,,,,,,,,,,,,,,12,28,female,L,IMT,2021-07-10_08h58.00.005,ImageRatingTask_S2,2021.1.4,MacIntel,58.82352941,0,29,29,30,1,DreamStudyImages_rs1000x750g/Food/Objects_032_v.jpg,,,
,,5,1.836,1,0.549,6,1.406,1,0.944,6,1.158,0,0,0,0,1,main,12,28,female,L,IMT,2021-07-10_08h58.00.005,ImageRatingTask_S2,2021.1.4,MacIntel,58.82352941,,,,,,,,,
,,,,,,,,,,,,0,1,1,1,1,second,12,28,female,L,IMT,2021-07-10_08h58.00.005,ImageRatingTask_S2,2021.1.4,MacIntel,58.82352941,,,,,,,,,
,,,,,,,,,,,,0,2,2,2,1,third,12,28,female,L,IMT,2021-07-10_08h58.00.005,ImageRatingTask_S2,2021.1.4,MacIntel,58.82352941,,,,,,,,,
,,,,,,,,,,,,0,3,3,3,1,fourth,12,28,female,L,IMT,2021-07-10_08h58.00.005,ImageRatingTask_S2,2021.1.4,MacIntel,58.82352941,,,,,,,,,
,,,,,,,,,,,,0,4,4,4,1,fifth,12,28,female,L,IMT,2021-07-10_08h58.00.005,ImageRatingTask_S2,2021.1.4,MacIntel,58.82352941,,,,,,,,,
,,,,,,,,,,,,0,5,5,5,1,sixth,12,28,female,L,IMT,2021-07-10_08h58.00.005,ImageRatingTask_S2,2021.1.4,MacIntel,58.82352941,,,,,,,,,
,,,,,,,,,,,,0,6,6,6,1,seventh,12,28,female,L,IMT,2021-07-10_08h58.00.005,ImageRatingTask_S2,2021.1.4,MacIntel,58.82352941,,,,,,,,,
,,,,,,,,,,,,0,7,7,7,1,last,12,28,female,L,IMT,2021-07-10_08h58.00.005,ImageRatingTask_S2,2021.1.4,MacIntel,58.82352941,,,,,,,,,
,,,,,,,,,,,,,,,,,,12,28,female,L,IMT,2021-07-10_08h58.00.005,ImageRatingTask_S2,2021.1.4,MacIntel,58.82352941,0,30,30,87,1,DreamStudyImages_rs1000x750g/Houses/Skyscraper 1.jpg,,,
,,4,2.755,1,0.989,7,1.976,1,1.448,6,1.175,0,0,0,0,1,main,12,28,female,L,IMT,2021-07-10_08h58.00.005,ImageRatingTask_S2,2021.1.4,MacIntel,58.82352941,,,,,,,,,
,,,,,,,,,,,,0,1,1,1,1,second,12,28,female,L,IMT,2021-07-10_08h58.00.005,ImageRatingTask_S2,2021.1.4,MacIntel,58.82352941,,,,,,,,,
,,,,,,,,,,,,0,2,2,2,1,third,12,28,female,L,IMT,2021-07-10_08h58.00.005,ImageRatingTask_S2,2021.1.4,MacIntel,58.82352941,,,,,,,,,
,,,,,,,,,,,,0,3,3,3,1,fourth,12,28,female,L,IMT,2021-07-10_08h58.00.005,ImageRatingTask_S2,2021.1.4,MacIntel,58.82352941,,,,,,,,,
,,,,,,,,,,,,0,4,4,4,1,fifth,12,28,female,L,IMT,2021-07-10_08h58.00.005,ImageRatingTask_S2,2021.1.4,MacIntel,58.82352941,,,,,,,,,
,,,,,,,,,,,,0,5,5,5,1,sixth,12,28,female,L,IMT,2021-07-10_08h58.00.005,ImageRatingTask_S2,2021.1.4,MacIntel,58.82352941,,,,,,,,,
,,,,,,,,,,,,0,6,6,6,1,seventh,12,28,female,L,IMT,2021-07-10_08h58.00.005,ImageRatingTask_S2,2021.1.4,MacIntel,58.82352941,,,,,,,,,
,,,,,,,,,,,,0,7,7,7,1,last,12,28,female,L,IMT,2021-07-10_08h58.00.005,ImageRatingTask_S2,2021.1.4,MacIntel,58.82352941,,,,,,,,,
,,,,,,,,,,,,,,,,,,12,28,female,L,IMT,2021-07-10_08h58.00.005,ImageRatingTask_S2,2021.1.4,MacIntel,58.82352941,0,31,31,122,1,DreamStudyImages_rs1000x750g/Houses/IAPS7491_bunker.jpg,,,
,,5,1.601,1,0.598,7,1.689,1,1.397,7,2.109,0,0,0,0,1,main,12,28,female,L,IMT,2021-07-10_08h58.00.005,ImageRatingTask_S2,2021.1.4,MacIntel,58.82352941,,,,,,,,,
,,,,,,,,,,,,0,1,1,1,1,second,12,28,female,L,IMT,2021-07-10_08h58.00.005,ImageRatingTask_S2,2021.1.4,MacIntel,58.82352941,,,,,,,,,
,,,,,,,,,,,,0,2,2,2,1,third,12,28,female,L,IMT,2021-07-10_08h58.00.005,ImageRatingTask_S2,2021.1.4,MacIntel,58.82352941,,,,,,,,,
,,,,,,,,,,,,0,3,3,3,1,fourth,12,28,female,L,IMT,2021-07-10_08h58.00.005,ImageRatingTask_S2,2021.1.4,MacIntel,58.82352941,,,,,,,,,
,,,,,,,,,,,,0,4,4,4,1,fifth,12,28,female,L,IMT,2021-07-10_08h58.00.005,ImageRatingTask_S2,2021.1.4,MacIntel,58.82352941,,,,,,,,,
,,,,,,,,,,,,0,5,5,5,1,sixth,12,28,female,L,IMT,2021-07-10_08h58.00.005,ImageRatingTask_S2,2021.1.4,MacIntel,58.82352941,,,,,,,,,
,,,,,,,,,,,,0,6,6,6,1,seventh,12,28,female,L,IMT,2021-07-10_08h58.00.005,ImageRatingTask_S2,2021.1.4,MacIntel,58.82352941,,,,,,,,,
,,,,,,,,,,,,0,7,7,7,1,last,12,28,female,L,IMT,2021-07-10_08h58.00.005,ImageRatingTask_S2,2021.1.4,MacIntel,58.82352941,,,,,,,,,
,,,,,,,,,,,,,,,,,,12,28,female,L,IMT,2021-07-10_08h58.00.005,ImageRatingTask_S2,2021.1.4,MacIntel,58.82352941,0,32,32,139,1,DreamStudyImages_rs1000x750g/Vehicles/Objects_299_h.jpg,,,
,,4,2.853,1,1.261,8,3.509,1,1.197,6,0.72,0,0,0,0,1,main,12,28,female,L,IMT,2021-07-10_08h58.00.005,ImageRatingTask_S2,2021.1.4,MacIntel,58.82352941,,,,,,,,,
,,,,,,,,,,,,0,1,1,1,1,second,12,28,female,L,IMT,2021-07-10_08h58.00.005,ImageRatingTask_S2,2021.1.4,MacIntel,58.82352941,,,,,,,,,
,,,,,,,,,,,,0,2,2,2,1,third,12,28,female,L,IMT,2021-07-10_08h58.00.005,ImageRatingTask_S2,2021.1.4,MacIntel,58.82352941,,,,,,,,,
,,,,,,,,,,,,0,3,3,3,1,fourth,12,28,female,L,IMT,2021-07-10_08h58.00.005,ImageRatingTask_S2,2021.1.4,MacIntel,58.82352941,,,,,,,,,
,,,,,,,,,,,,0,4,4,4,1,fifth,12,28,female,L,IMT,2021-07-10_08h58.00.005,ImageRatingTask_S2,2021.1.4,MacIntel,58.82352941,,,,,,,,,
,,,,,,,,,,,,0,5,5,5,1,sixth,12,28,female,L,IMT,2021-07-10_08h58.00.005,ImageRatingTask_S2,2021.1.4,MacIntel,58.82352941,,,,,,,,,
,,,,,,,,,,,,0,6,6,6,1,seventh,12,28,female,L,IMT,2021-07-10_08h58.00.005,ImageRatingTask_S2,2021.1.4,MacIntel,58.82352941,,,,,,,,,
,,,,,,,,,,,,0,7,7,7,1,last,12,28,female,L,IMT,2021-07-10_08h58.00.005,ImageRatingTask_S2,2021.1.4,MacIntel,58.82352941,,,,,,,,,
,,,,,,,,,,,,,,,,,,12,28,female,L,IMT,2021-07-10_08h58.00.005,ImageRatingTask_S2,2021.1.4,MacIntel,58.82352941,0,33,33,72,1,DreamStudyImages_rs1000x750g/Houses/Landscapes_022_h.jpg,,,
,,5,1.386,1,0.482,7,3.149,1,1.09,7,0.628,0,0,0,0,1,main,12,28,female,L,IMT,2021-07-10_08h58.00.005,ImageRatingTask_S2,2021.1.4,MacIntel,58.82352941,,,,,,,,,
,,,,,,,,,,,,0,1,1,1,1,second,12,28,female,L,IMT,2021-07-10_08h58.00.005,ImageRatingTask_S2,2021.1.4,MacIntel,58.82352941,,,,,,,,,
,,,,,,,,,,,,0,2,2,2,1,third,12,28,female,L,IMT,2021-07-10_08h58.00.005,ImageRatingTask_S2,2021.1.4,MacIntel,58.82352941,,,,,,,,,
,,,,,,,,,,,,0,3,3,3,1,fourth,12,28,female,L,IMT,2021-07-10_08h58.00.005,ImageRatingTask_S2,2021.1.4,MacIntel,58.82352941,,,,,,,,,
,,,,,,,,,,,,0,4,4,4,1,fifth,12,28,female,L,IMT,2021-07-10_08h58.00.005,ImageRatingTask_S2,2021.1.4,MacIntel,58.82352941,,,,,,,,,
,,,,,,,,,,,,0,5,5,5,1,sixth,12,28,female,L,IMT,2021-07-10_08h58.00.005,ImageRatingTask_S2,2021.1.4,MacIntel,58.82352941,,,,,,,,,
,,,,,,,,,,,,0,6,6,6,1,seventh,12,28,female,L,IMT,2021-07-10_08h58.00.005,ImageRatingTask_S2,2021.1.4,MacIntel,58.82352941,,,,,,,,,
,,,,,,,,,,,,0,7,7,7,1,last,12,28,female,L,IMT,2021-07-10_08h58.00.005,ImageRatingTask_S2,2021.1.4,MacIntel,58.82352941,,,,,,,,,
,,,,,,,,,,,,,,,,,,12,28,female,L,IMT,2021-07-10_08h58.00.005,ImageRatingTask_S2,2021.1.4,MacIntel,58.82352941,0,34,34,108,1,DreamStudyImages_rs1000x750g/Vehicles/Objects_277_h.jpg,,,
,,4,51.438,1,0.497,6,1.431,1,1.04,2,0.892,0,0,0,0,1,main,12,28,female,L,IMT,2021-07-10_08h58.00.005,ImageRatingTask_S2,2021.1.4,MacIntel,58.82352941,,,,,,,,,
,,,,,,,,,,,,0,1,1,1,1,second,12,28,female,L,IMT,2021-07-10_08h58.00.005,ImageRatingTask_S2,2021.1.4,MacIntel,58.82352941,,,,,,,,,
,,,,,,,,,,,,0,2,2,2,1,third,12,28,female,L,IMT,2021-07-10_08h58.00.005,ImageRatingTask_S2,2021.1.4,MacIntel,58.82352941,,,,,,,,,
,,,,,,,,,,,,0,3,3,3,1,fourth,12,28,female,L,IMT,2021-07-10_08h58.00.005,ImageRatingTask_S2,2021.1.4,MacIntel,58.82352941,,,,,,,,,
,,,,,,,,,,,,0,4,4,4,1,fifth,12,28,female,L,IMT,2021-07-10_08h58.00.005,ImageRatingTask_S2,2021.1.4,MacIntel,58.82352941,,,,,,,,,
,,,,,,,,,,,,0,5,5,5,1,sixth,12,28,female,L,IMT,2021-07-10_08h58.00.005,ImageRatingTask_S2,2021.1.4,MacIntel,58.82352941,,,,,,,,,
,,,,,,,,,,,,0,6,6,6,1,seventh,12,28,female,L,IMT,2021-07-10_08h58.00.005,ImageRatingTask_S2,2021.1.4,MacIntel,58.82352941,,,,,,,,,
,,,,,,,,,,,,0,7,7,7,1,last,12,28,female,L,IMT,2021-07-10_08h58.00.005,ImageRatingTask_S2,2021.1.4,MacIntel,58.82352941,,,,,,,,,
,,,,,,,,,,,,,,,,,,12,28,female,L,IMT,2021-07-10_08h58.00.005,ImageRatingTask_S2,2021.1.4,MacIntel,58.82352941,0,35,35,69,1,DreamStudyImages_rs1000x750g/Children/IAPS3310_baby27.jpg,,,
,,5,3.892,1,1.473,6,1.468,1,1.222,3,1.128,0,0,0,0,1,main,12,28,female,L,IMT,2021-07-10_08h58.00.005,ImageRatingTask_S2,2021.1.4,MacIntel,58.82352941,,,,,,,,,
,,,,,,,,,,,,0,1,1,1,1,second,12,28,female,L,IMT,2021-07-10_08h58.00.005,ImageRatingTask_S2,2021.1.4,MacIntel,58.82352941,,,,,,,,,
,,,,,,,,,,,,0,2,2,2,1,third,12,28,female,L,IMT,2021-07-10_08h58.00.005,ImageRatingTask_S2,2021.1.4,MacIntel,58.82352941,,,,,,,,,
,,,,,,,,,,,,0,3,3,3,1,fourth,12,28,female,L,IMT,2021-07-10_08h58.00.005,ImageRatingTask_S2,2021.1.4,MacIntel,58.82352941,,,,,,,,,
,,,,,,,,,,,,0,4,4,4,1,fifth,12,28,female,L,IMT,2021-07-10_08h58.00.005,ImageRatingTask_S2,2021.1.4,MacIntel,58.82352941,,,,,,,,,
,,,,,,,,,,,,0,5,5,5,1,sixth,12,28,female,L,IMT,2021-07-10_08h58.00.005,ImageRatingTask_S2,2021.1.4,MacIntel,58.82352941,,,,,,,,,
,,,,,,,,,,,,0,6,6,6,1,seventh,12,28,female,L,IMT,2021-07-10_08h58.00.005,ImageRatingTask_S2,2021.1.4,MacIntel,58.82352941,,,,,,,,,
,,,,,,,,,,,,0,7,7,7,1,last,12,28,female,L,IMT,2021-07-10_08h58.00.005,ImageRatingTask_S2,2021.1.4,MacIntel,58.82352941,,,,,,,,,
,,,,,,,,,,,,,,,,,,12,28,female,L,IMT,2021-07-10_08h58.00.005,ImageRatingTask_S2,2021.1.4,MacIntel,58.82352941,0,36,36,120,1,DreamStudyImages_rs1000x750g/Mammals/IAPS1301_dog2.jpg,,,
,,5,2.704,1,0.504,6,1.943,1,4.865,7,0.776,0,0,0,0,1,main,12,28,female,L,IMT,2021-07-10_08h58.00.005,ImageRatingTask_S2,2021.1.4,MacIntel,58.82352941,,,,,,,,,
,,,,,,,,,,,,0,1,1,1,1,second,12,28,female,L,IMT,2021-07-10_08h58.00.005,ImageRatingTask_S2,2021.1.4,MacIntel,58.82352941,,,,,,,,,
,,,,,,,,,,,,0,2,2,2,1,third,12,28,female,L,IMT,2021-07-10_08h58.00.005,ImageRatingTask_S2,2021.1.4,MacIntel,58.82352941,,,,,,,,,
,,,,,,,,,,,,0,3,3,3,1,fourth,12,28,female,L,IMT,2021-07-10_08h58.00.005,ImageRatingTask_S2,2021.1.4,MacIntel,58.82352941,,,,,,,,,
,,,,,,,,,,,,0,4,4,4,1,fifth,12,28,female,L,IMT,2021-07-10_08h58.00.005,ImageRatingTask_S2,2021.1.4,MacIntel,58.82352941,,,,,,,,,
,,,,,,,,,,,,0,5,5,5,1,sixth,12,28,female,L,IMT,2021-07-10_08h58.00.005,ImageRatingTask_S2,2021.1.4,MacIntel,58.82352941,,,,,,,,,
,,,,,,,,,,,,0,6,6,6,1,seventh,12,28,female,L,IMT,2021-07-10_08h58.00.005,ImageRatingTask_S2,2021.1.4,MacIntel,58.82352941,,,,,,,,,
,,,,,,,,,,,,0,7,7,7,1,last,12,28,female,L,IMT,2021-07-10_08h58.00.005,ImageRatingTask_S2,2021.1.4,MacIntel,58.82352941,,,,,,,,,
,,,,,,,,,,,,,,,,,,12,28,female,L,IMT,2021-07-10_08h58.00.005,ImageRatingTask_S2,2021.1.4,MacIntel,58.82352941,0,37,37,52,1,DreamStudyImages_rs1000x750g/Vehicles/Objects_290_h.jpg,,,
,,6,2.001,1,0.872,7,4.108,1,1.138,5,0.578,0,0,0,0,1,main,12,28,female,L,IMT,2021-07-10_08h58.00.005,ImageRatingTask_S2,2021.1.4,MacIntel,58.82352941,,,,,,,,,
,,,,,,,,,,,,0,1,1,1,1,second,12,28,female,L,IMT,2021-07-10_08h58.00.005,ImageRatingTask_S2,2021.1.4,MacIntel,58.82352941,,,,,,,,,
,,,,,,,,,,,,0,2,2,2,1,third,12,28,female,L,IMT,2021-07-10_08h58.00.005,ImageRatingTask_S2,2021.1.4,MacIntel,58.82352941,,,,,,,,,
,,,,,,,,,,,,0,3,3,3,1,fourth,12,28,female,L,IMT,2021-07-10_08h58.00.005,ImageRatingTask_S2,2021.1.4,MacIntel,58.82352941,,,,,,,,,
,,,,,,,,,,,,0,4,4,4,1,fifth,12,28,female,L,IMT,2021-07-10_08h58.00.005,ImageRatingTask_S2,2021.1.4,MacIntel,58.82352941,,,,,,,,,
,,,,,,,,,,,,0,5,5,5,1,sixth,12,28,female,L,IMT,2021-07-10_08h58.00.005,ImageRatingTask_S2,2021.1.4,MacIntel,58.82352941,,,,,,,,,
,,,,,,,,,,,,0,6,6,6,1,seventh,12,28,female,L,IMT,2021-07-10_08h58.00.005,ImageRatingTask_S2,2021.1.4,MacIntel,58.82352941,,,,,,,,,
,,,,,,,,,,,,0,7,7,7,1,last,12,28,female,L,IMT,2021-07-10_08h58.00.005,ImageRatingTask_S2,2021.1.4,MacIntel,58.82352941,,,,,,,,,
,,,,,,,,,,,,,,,,,,12,28,female,L,IMT,2021-07-10_08h58.00.005,ImageRatingTask_S2,2021.1.4,MacIntel,58.82352941,0,38,38,40,1,DreamStudyImages_rs1000x750g/Food/Objects_100_v.jpg,,,
,,5,2.169,1,0.448,6,1.43,1,0.93,7,0.638,0,0,0,0,1,main,12,28,female,L,IMT,2021-07-10_08h58.00.005,ImageRatingTask_S2,2021.1.4,MacIntel,58.82352941,,,,,,,,,
,,,,,,,,,,,,0,1,1,1,1,second,12,28,female,L,IMT,2021-07-10_08h58.00.005,ImageRatingTask_S2,2021.1.4,MacIntel,58.82352941,,,,,,,,,
,,,,,,,,,,,,0,2,2,2,1,third,12,28,female,L,IMT,2021-07-10_08h58.00.005,ImageRatingTask_S2,2021.1.4,MacIntel,58.82352941,,,,,,,,,
,,,,,,,,,,,,0,3,3,3,1,fourth,12,28,female,L,IMT,2021-07-10_08h58.00.005,ImageRatingTask_S2,2021.1.4,MacIntel,58.82352941,,,,,,,,,
,,,,,,,,,,,,0,4,4,4,1,fifth,12,28,female,L,IMT,2021-07-10_08h58.00.005,ImageRatingTask_S2,2021.1.4,MacIntel,58.82352941,,,,,,,,,
,,,,,,,,,,,,0,5,5,5,1,sixth,12,28,female,L,IMT,2021-07-10_08h58.00.005,ImageRatingTask_S2,2021.1.4,MacIntel,58.82352941,,,,,,,,,
,,,,,,,,,,,,0,6,6,6,1,seventh,12,28,female,L,IMT,2021-07-10_08h58.00.005,ImageRatingTask_S2,2021.1.4,MacIntel,58.82352941,,,,,,,,,
,,,,,,,,,,,,0,7,7,7,1,last,12,28,female,L,IMT,2021-07-10_08h58.00.005,ImageRatingTask_S2,2021.1.4,MacIntel,58.82352941,,,,,,,,,
,,,,,,,,,,,,,,,,,,12,28,female,L,IMT,2021-07-10_08h58.00.005,ImageRatingTask_S2,2021.1.4,MacIntel,58.82352941,0,39,39,110,1,DreamStudyImages_rs1000x750g/Vehicles/Objects_311_h.jpg,,,
,,7,1.621,2,0.652,8,2.197,1,1.297,8,0.713,0,0,0,0,1,main,12,28,female,L,IMT,2021-07-10_08h58.00.005,ImageRatingTask_S2,2021.1.4,MacIntel,58.82352941,,,,,,,,,
,,,,,,,,,,,,0,1,1,1,1,second,12,28,female,L,IMT,2021-07-10_08h58.00.005,ImageRatingTask_S2,2021.1.4,MacIntel,58.82352941,,,,,,,,,
,,,,,,,,,,,,0,2,2,2,1,third,12,28,female,L,IMT,2021-07-10_08h58.00.005,ImageRatingTask_S2,2021.1.4,MacIntel,58.82352941,,,,,,,,,
,,,,,,,,,,,,0,3,3,3,1,fourth,12,28,female,L,IMT,2021-07-10_08h58.00.005,ImageRatingTask_S2,2021.1.4,MacIntel,58.82352941,,,,,,,,,
,,,,,,,,,,,,0,4,4,4,1,fifth,12,28,female,L,IMT,2021-07-10_08h58.00.005,ImageRatingTask_S2,2021.1.4,MacIntel,58.82352941,,,,,,,,,
,,,,,,,,,,,,0,5,5,5,1,sixth,12,28,female,L,IMT,2021-07-10_08h58.00.005,ImageRatingTask_S2,2021.1.4,MacIntel,58.82352941,,,,,,,,,
,,,,,,,,,,,,0,6,6,6,1,seventh,12,28,female,L,IMT,2021-07-10_08h58.00.005,ImageRatingTask_S2,2021.1.4,MacIntel,58.82352941,,,,,,,,,
,,,,,,,,,,,,0,7,7,7,1,last,12,28,female,L,IMT,2021-07-10_08h58.00.005,ImageRatingTask_S2,2021.1.4,MacIntel,58.82352941,,,,,,,,,
,,,,,,,,,,,,,,,,,,12,28,female,L,IMT,2021-07-10_08h58.00.005,ImageRatingTask_S2,2021.1.4,MacIntel,58.82352941,0,40,40,82,1,DreamStudyImages_rs1000x750g/Water/Landscapes_116_v.jpg,,,
,,6,1.528,1,0.579,8,1.672,1,0.919,8,0.515,0,0,0,0,1,main,12,28,female,L,IMT,2021-07-10_08h58.00.005,ImageRatingTask_S2,2021.1.4,MacIntel,58.82352941,,,,,,,,,
,,,,,,,,,,,,0,1,1,1,1,second,12,28,female,L,IMT,2021-07-10_08h58.00.005,ImageRatingTask_S2,2021.1.4,MacIntel,58.82352941,,,,,,,,,
,,,,,,,,,,,,0,2,2,2,1,third,12,28,female,L,IMT,2021-07-10_08h58.00.005,ImageRatingTask_S2,2021.1.4,MacIntel,58.82352941,,,,,,,,,
,,,,,,,,,,,,0,3,3,3,1,fourth,12,28,female,L,IMT,2021-07-10_08h58.00.005,ImageRatingTask_S2,2021.1.4,MacIntel,58.82352941,,,,,,,,,
,,,,,,,,,,,,0,4,4,4,1,fifth,12,28,female,L,IMT,2021-07-10_08h58.00.005,ImageRatingTask_S2,2021.1.4,MacIntel,58.82352941,,,,,,,,,
,,,,,,,,,,,,0,5,5,5,1,sixth,12,28,female,L,IMT,2021-07-10_08h58.00.005,ImageRatingTask_S2,2021.1.4,MacIntel,58.82352941,,,,,,,,,
,,,,,,,,,,,,0,6,6,6,1,seventh,12,28,female,L,IMT,2021-07-10_08h58.00.005,ImageRatingTask_S2,2021.1.4,MacIntel,58.82352941,,,,,,,,,
,,,,,,,,,,,,0,7,7,7,1,last,12,28,female,L,IMT,2021-07-10_08h58.00.005,ImageRatingTask_S2,2021.1.4,MacIntel,58.82352941,,,,,,,,,
,,,,,,,,,,,,,,,,,,12,28,female,L,IMT,2021-07-10_08h58.00.005,ImageRatingTask_S2,2021.1.4,MacIntel,58.82352941,0,41,41,29,1,DreamStudyImages_rs1000x750g/Water/riverstream.jpg,,,
,,6,1.452,1,0.582,6,3.29,1,6.956,6,1.102,0,0,0,0,1,main,12,28,female,L,IMT,2021-07-10_08h58.00.005,ImageRatingTask_S2,2021.1.4,MacIntel,58.82352941,,,,,,,,,
,,,,,,,,,,,,0,1,1,1,1,second,12,28,female,L,IMT,2021-07-10_08h58.00.005,ImageRatingTask_S2,2021.1.4,MacIntel,58.82352941,,,,,,,,,
,,,,,,,,,,,,0,2,2,2,1,third,12,28,female,L,IMT,2021-07-10_08h58.00.005,ImageRatingTask_S2,2021.1.4,MacIntel,58.82352941,,,,,,,,,
,,,,,,,,,,,,0,3,3,3,1,fourth,12,28,female,L,IMT,2021-07-10_08h58.00.005,ImageRatingTask_S2,2021.1.4,MacIntel,58.82352941,,,,,,,,,
,,,,,,,,,,,,0,4,4,4,1,fifth,12,28,female,L,IMT,2021-07-10_08h58.00.005,ImageRatingTask_S2,2021.1.4,MacIntel,58.82352941,,,,,,,,,
,,,,,,,,,,,,0,5,5,5,1,sixth,12,28,female,L,IMT,2021-07-10_08h58.00.005,ImageRatingTask_S2,2021.1.4,MacIntel,58.82352941,,,,,,,,,
,,,,,,,,,,,,0,6,6,6,1,seventh,12,28,female,L,IMT,2021-07-10_08h58.00.005,ImageRatingTask_S2,2021.1.4,MacIntel,58.82352941,,,,,,,,,
,,,,,,,,,,,,0,7,7,7,1,last,12,28,female,L,IMT,2021-07-10_08h58.00.005,ImageRatingTask_S2,2021.1.4,MacIntel,58.82352941,,,,,,,,,
,,,,,,,,,,,,,,,,,,12,28,female,L,IMT,2021-07-10_08h58.00.005,ImageRatingTask_S2,2021.1.4,MacIntel,58.82352941,0,42,42,25,1,DreamStudyImages_rs1000x750g/Houses/NDPS18_houses2_CROPPED.jpg,,,
,,7,1.955,2,0.765,9,1.197,1,2.355,8,0.871,0,0,0,0,1,main,12,28,female,L,IMT,2021-07-10_08h58.00.005,ImageRatingTask_S2,2021.1.4,MacIntel,58.82352941,,,,,,,,,
,,,,,,,,,,,,0,1,1,1,1,second,12,28,female,L,IMT,2021-07-10_08h58.00.005,ImageRatingTask_S2,2021.1.4,MacIntel,58.82352941,,,,,,,,,
,,,,,,,,,,,,0,2,2,2,1,third,12,28,female,L,IMT,2021-07-10_08h58.00.005,ImageRatingTask_S2,2021.1.4,MacIntel,58.82352941,,,,,,,,,
,,,,,,,,,,,,0,3,3,3,1,fourth,12,28,female,L,IMT,2021-07-10_08h58.00.005,ImageRatingTask_S2,2021.1.4,MacIntel,58.82352941,,,,,,,,,
,,,,,,,,,,,,0,4,4,4,1,fifth,12,28,female,L,IMT,2021-07-10_08h58.00.005,ImageRatingTask_S2,2021.1.4,MacIntel,58.82352941,,,,,,,,,
,,,,,,,,,,,,0,5,5,5,1,sixth,12,28,female,L,IMT,2021-07-10_08h58.00.005,ImageRatingTask_S2,2021.1.4,MacIntel,58.82352941,,,,,,,,,
,,,,,,,,,,,,0,6,6,6,1,seventh,12,28,female,L,IMT,2021-07-10_08h58.00.005,ImageRatingTask_S2,2021.1.4,MacIntel,58.82352941,,,,,,,,,
,,,,,,,,,,,,0,7,7,7,1,last,12,28,female,L,IMT,2021-07-10_08h58.00.005,ImageRatingTask_S2,2021.1.4,MacIntel,58.82352941,,,,,,,,,
,,,,,,,,,,,,,,,,,,12,28,female,L,IMT,2021-07-10_08h58.00.005,ImageRatingTask_S2,2021.1.4,MacIntel,58.82352941,0,43,43,49,1,DreamStudyImages_rs1000x750g/Water/Landscapes_154_h.jpg,,,
,,6,6.033,1,0.778,7,2.377,1,1.08,3,1.072,0,0,0,0,1,main,12,28,female,L,IMT,2021-07-10_08h58.00.005,ImageRatingTask_S2,2021.1.4,MacIntel,58.82352941,,,,,,,,,
,,,,,,,,,,,,0,1,1,1,1,second,12,28,female,L,IMT,2021-07-10_08h58.00.005,ImageRatingTask_S2,2021.1.4,MacIntel,58.82352941,,,,,,,,,
,,,,,,,,,,,,0,2,2,2,1,third,12,28,female,L,IMT,2021-07-10_08h58.00.005,ImageRatingTask_S2,2021.1.4,MacIntel,58.82352941,,,,,,,,,
,,,,,,,,,,,,0,3,3,3,1,fourth,12,28,female,L,IMT,2021-07-10_08h58.00.005,ImageRatingTask_S2,2021.1.4,MacIntel,58.82352941,,,,,,,,,
,,,,,,,,,,,,0,4,4,4,1,fifth,12,28,female,L,IMT,2021-07-10_08h58.00.005,ImageRatingTask_S2,2021.1.4,MacIntel,58.82352941,,,,,,,,,
,,,,,,,,,,,,0,5,5,5,1,sixth,12,28,female,L,IMT,2021-07-10_08h58.00.005,ImageRatingTask_S2,2021.1.4,MacIntel,58.82352941,,,,,,,,,
,,,,,,,,,,,,0,6,6,6,1,seventh,12,28,female,L,IMT,2021-07-10_08h58.00.005,ImageRatingTask_S2,2021.1.4,MacIntel,58.82352941,,,,,,,,,
,,,,,,,,,,,,0,7,7,7,1,last,12,28,female,L,IMT,2021-07-10_08h58.00.005,ImageRatingTask_S2,2021.1.4,MacIntel,58.82352941,,,,,,,,,
,,,,,,,,,,,,,,,,,,12,28,female,L,IMT,2021-07-10_08h58.00.005,ImageRatingTask_S2,2021.1.4,MacIntel,58.82352941,0,44,44,39,1,DreamStudyImages_rs1000x750g/Mammals/Couple 5.jpg,,,
,,7,6.73,3,1.512,8,1.774,1,1.859,8,1.045,0,0,0,0,1,main,12,28,female,L,IMT,2021-07-10_08h58.00.005,ImageRatingTask_S2,2021.1.4,MacIntel,58.82352941,,,,,,,,,
,,,,,,,,,,,,0,1,1,1,1,second,12,28,female,L,IMT,2021-07-10_08h58.00.005,ImageRatingTask_S2,2021.1.4,MacIntel,58.82352941,,,,,,,,,
,,,,,,,,,,,,0,2,2,2,1,third,12,28,female,L,IMT,2021-07-10_08h58.00.005,ImageRatingTask_S2,2021.1.4,MacIntel,58.82352941,,,,,,,,,
,,,,,,,,,,,,0,3,3,3,1,fourth,12,28,female,L,IMT,2021-07-10_08h58.00.005,ImageRatingTask_S2,2021.1.4,MacIntel,58.82352941,,,,,,,,,
,,,,,,,,,,,,0,4,4,4,1,fifth,12,28,female,L,IMT,2021-07-10_08h58.00.005,ImageRatingTask_S2,2021.1.4,MacIntel,58.82352941,,,,,,,,,
,,,,,,,,,,,,0,5,5,5,1,sixth,12,28,female,L,IMT,2021-07-10_08h58.00.005,ImageRatingTask_S2,2021.1.4,MacIntel,58.82352941,,,,,,,,,
,,,,,,,,,,,,0,6,6,6,1,seventh,12,28,female,L,IMT,2021-07-10_08h58.00.005,ImageRatingTask_S2,2021.1.4,MacIntel,58.82352941,,,,,,,,,
,,,,,,,,,,,,0,7,7,7,1,last,12,28,female,L,IMT,2021-07-10_08h58.00.005,ImageRatingTask_S2,2021.1.4,MacIntel,58.82352941,,,,,,,,,
,,,,,,,,,,,,,,,,,,12,28,female,L,IMT,2021-07-10_08h58.00.005,ImageRatingTask_S2,2021.1.4,MacIntel,58.82352941,0,45,45,84,1,DreamStudyImages_rs1000x750g/Water/5825.jpg,,,
,,5,21.314,1,0.864,7,2.464,1,1.416,5,0.489,0,0,0,0,1,main,12,28,female,L,IMT,2021-07-10_08h58.00.005,ImageRatingTask_S2,2021.1.4,MacIntel,58.82352941,,,,,,,,,
,,,,,,,,,,,,0,1,1,1,1,second,12,28,female,L,IMT,2021-07-10_08h58.00.005,ImageRatingTask_S2,2021.1.4,MacIntel,58.82352941,,,,,,,,,
,,,,,,,,,,,,0,2,2,2,1,third,12,28,female,L,IMT,2021-07-10_08h58.00.005,ImageRatingTask_S2,2021.1.4,MacIntel,58.82352941,,,,,,,,,
,,,,,,,,,,,,0,3,3,3,1,fourth,12,28,female,L,IMT,2021-07-10_08h58.00.005,ImageRatingTask_S2,2021.1.4,MacIntel,58.82352941,,,,,,,,,
,,,,,,,,,,,,0,4,4,4,1,fifth,12,28,female,L,IMT,2021-07-10_08h58.00.005,ImageRatingTask_S2,2021.1.4,MacIntel,58.82352941,,,,,,,,,
,,,,,,,,,,,,0,5,5,5,1,sixth,12,28,female,L,IMT,2021-07-10_08h58.00.005,ImageRatingTask_S2,2021.1.4,MacIntel,58.82352941,,,,,,,,,
,,,,,,,,,,,,0,6,6,6,1,seventh,12,28,female,L,IMT,2021-07-10_08h58.00.005,ImageRatingTask_S2,2021.1.4,MacIntel,58.82352941,,,,,,,,,
,,,,,,,,,,,,0,7,7,7,1,last,12,28,female,L,IMT,2021-07-10_08h58.00.005,ImageRatingTask_S2,2021.1.4,MacIntel,58.82352941,,,,,,,,,
,,,,,,,,,,,,,,,,,,12,28,female,L,IMT,2021-07-10_08h58.00.005,ImageRatingTask_S2,2021.1.4,MacIntel,58.82352941,0,46,46,75,1,DreamStudyImages_rs1000x750g/Food/Dessert 7.jpg,,,
,,6,1.927,2,0.844,8,2.487,1,0.87,5,0.384,0,0,0,0,1,main,12,28,female,L,IMT,2021-07-10_08h58.00.005,ImageRatingTask_S2,2021.1.4,MacIntel,58.82352941,,,,,,,,,
,,,,,,,,,,,,0,1,1,1,1,second,12,28,female,L,IMT,2021-07-10_08h58.00.005,ImageRatingTask_S2,2021.1.4,MacIntel,58.82352941,,,,,,,,,
,,,,,,,,,,,,0,2,2,2,1,third,12,28,female,L,IMT,2021-07-10_08h58.00.005,ImageRatingTask_S2,2021.1.4,MacIntel,58.82352941,,,,,,,,,
,,,,,,,,,,,,0,3,3,3,1,fourth,12,28,female,L,IMT,2021-07-10_08h58.00.005,ImageRatingTask_S2,2021.1.4,MacIntel,58.82352941,,,,,,,,,
,,,,,,,,,,,,0,4,4,4,1,fifth,12,28,female,L,IMT,2021-07-10_08h58.00.005,ImageRatingTask_S2,2021.1.4,MacIntel,58.82352941,,,,,,,,,
,,,,,,,,,,,,0,5,5,5,1,sixth,12,28,female,L,IMT,2021-07-10_08h58.00.005,ImageRatingTask_S2,2021.1.4,MacIntel,58.82352941,,,,,,,,,
,,,,,,,,,,,,0,6,6,6,1,seventh,12,28,female,L,IMT,2021-07-10_08h58.00.005,ImageRatingTask_S2,2021.1.4,MacIntel,58.82352941,,,,,,,,,
,,,,,,,,,,,,0,7,7,7,1,last,12,28,female,L,IMT,2021-07-10_08h58.00.005,ImageRatingTask_S2,2021.1.4,MacIntel,58.82352941,,,,,,,,,
,,,,,,,,,,,,,,,,,,12,28,female,L,IMT,2021-07-10_08h58.00.005,ImageRatingTask_S2,2021.1.4,MacIntel,58.82352941,0,47,47,126,1,DreamStudyImages_rs1000x750g/Food/Objects_062_h.jpg,,,
,,5,2.042,1,0.539,5,2.23,1,0.923,2,0.346,0,0,0,0,1,main,12,28,female,L,IMT,2021-07-10_08h58.00.005,ImageRatingTask_S2,2021.1.4,MacIntel,58.82352941,,,,,,,,,
,,,,,,,,,,,,0,1,1,1,1,second,12,28,female,L,IMT,2021-07-10_08h58.00.005,ImageRatingTask_S2,2021.1.4,MacIntel,58.82352941,,,,,,,,,
,,,,,,,,,,,,0,2,2,2,1,third,12,28,female,L,IMT,2021-07-10_08h58.00.005,ImageRatingTask_S2,2021.1.4,MacIntel,58.82352941,,,,,,,,,
,,,,,,,,,,,,0,3,3,3,1,fourth,12,28,female,L,IMT,2021-07-10_08h58.00.005,ImageRatingTask_S2,2021.1.4,MacIntel,58.82352941,,,,,,,,,
,,,,,,,,,,,,0,4,4,4,1,fifth,12,28,female,L,IMT,2021-07-10_08h58.00.005,ImageRatingTask_S2,2021.1.4,MacIntel,58.82352941,,,,,,,,,
,,,,,,,,,,,,0,5,5,5,1,sixth,12,28,female,L,IMT,2021-07-10_08h58.00.005,ImageRatingTask_S2,2021.1.4,MacIntel,58.82352941,,,,,,,,,
,,,,,,,,,,,,0,6,6,6,1,seventh,12,28,female,L,IMT,2021-07-10_08h58.00.005,ImageRatingTask_S2,2021.1.4,MacIntel,58.82352941,,,,,,,,,
,,,,,,,,,,,,0,7,7,7,1,last,12,28,female,L,IMT,2021-07-10_08h58.00.005,ImageRatingTask_S2,2021.1.4,MacIntel,58.82352941,,,,,,,,,
,,,,,,,,,,,,,,,,,,12,28,female,L,IMT,2021-07-10_08h58.00.005,ImageRatingTask_S2,2021.1.4,MacIntel,58.82352941,0,48,48,7,1,DreamStudyImages_rs1000x750g/Children/IAPS3301_babyaccident2.jpg,,,
,,4,13.253,1,0.395,4,1.34,1,0.946,3,0.392,0,0,0,0,1,main,12,28,female,L,IMT,2021-07-10_08h58.00.005,ImageRatingTask_S2,2021.1.4,MacIntel,58.82352941,,,,,,,,,
,,,,,,,,,,,,0,1,1,1,1,second,12,28,female,L,IMT,2021-07-10_08h58.00.005,ImageRatingTask_S2,2021.1.4,MacIntel,58.82352941,,,,,,,,,
,,,,,,,,,,,,0,2,2,2,1,third,12,28,female,L,IMT,2021-07-10_08h58.00.005,ImageRatingTask_S2,2021.1.4,MacIntel,58.82352941,,,,,,,,,
,,,,,,,,,,,,0,3,3,3,1,fourth,12,28,female,L,IMT,2021-07-10_08h58.00.005,ImageRatingTask_S2,2021.1.4,MacIntel,58.82352941,,,,,,,,,
,,,,,,,,,,,,0,4,4,4,1,fifth,12,28,female,L,IMT,2021-07-10_08h58.00.005,ImageRatingTask_S2,2021.1.4,MacIntel,58.82352941,,,,,,,,,
,,,,,,,,,,,,0,5,5,5,1,sixth,12,28,female,L,IMT,2021-07-10_08h58.00.005,ImageRatingTask_S2,2021.1.4,MacIntel,58.82352941,,,,,,,,,
,,,,,,,,,,,,0,6,6,6,1,seventh,12,28,female,L,IMT,2021-07-10_08h58.00.005,ImageRatingTask_S2,2021.1.4,MacIntel,58.82352941,,,,,,,,,
,,,,,,,,,,,,0,7,7,7,1,last,12,28,female,L,IMT,2021-07-10_08h58.00.005,ImageRatingTask_S2,2021.1.4,MacIntel,58.82352941,,,,,,,,,
,,,,,,,,,,,,,,,,,,12,28,female,L,IMT,2021-07-10_08h58.00.005,ImageRatingTask_S2,2021.1.4,MacIntel,58.82352941,0,49,49,104,1,DreamStudyImages_rs1000x750g/Mammals/IAPS1660_gorilla2.jpg,,,
,,5,3.685,1,0.464,5,1.528,2,0.989,2,1.392,0,0,0,0,1,main,12,28,female,L,IMT,2021-07-10_08h58.00.005,ImageRatingTask_S2,2021.1.4,MacIntel,58.82352941,,,,,,,,,
,,,,,,,,,,1,0.35,0,1,1,1,1,second,12,28,female,L,IMT,2021-07-10_08h58.00.005,ImageRatingTask_S2,2021.1.4,MacIntel,58.82352941,,,,,,,,,
,,,,,,,,,,,,0,2,2,2,1,third,12,28,female,L,IMT,2021-07-10_08h58.00.005,ImageRatingTask_S2,2021.1.4,MacIntel,58.82352941,,,,,,,,,
,,,,,,,,,,,,0,3,3,3,1,fourth,12,28,female,L,IMT,2021-07-10_08h58.00.005,ImageRatingTask_S2,2021.1.4,MacIntel,58.82352941,,,,,,,,,
,,,,,,,,,,,,0,4,4,4,1,fifth,12,28,female,L,IMT,2021-07-10_08h58.00.005,ImageRatingTask_S2,2021.1.4,MacIntel,58.82352941,,,,,,,,,
,,,,,,,,,,,,0,5,5,5,1,sixth,12,28,female,L,IMT,2021-07-10_08h58.00.005,ImageRatingTask_S2,2021.1.4,MacIntel,58.82352941,,,,,,,,,
,,,,,,,,,,,,0,6,6,6,1,seventh,12,28,female,L,IMT,2021-07-10_08h58.00.005,ImageRatingTask_S2,2021.1.4,MacIntel,58.82352941,,,,,,,,,
,,,,,,,,,,,,0,7,7,7,1,last,12,28,female,L,IMT,2021-07-10_08h58.00.005,ImageRatingTask_S2,2021.1.4,MacIntel,58.82352941,,,,,,,,,
,,,,,,,,,,,,,,,,,,12,28,female,L,IMT,2021-07-10_08h58.00.005,ImageRatingTask_S2,2021.1.4,MacIntel,58.82352941,0,50,50,85,1,DreamStudyImages_rs1000x750g/Children/IAPS2308_makeupgirl_humans.jpg,,,
,,5,9.389,1,0.447,5,1.474,2,1.9,7,1.025,0,0,0,0,1,main,12,28,female,L,IMT,2021-07-10_08h58.00.005,ImageRatingTask_S2,2021.1.4,MacIntel,58.82352941,,,,,,,,,
,,,,,,,,,,1,0.507,0,1,1,1,1,second,12,28,female,L,IMT,2021-07-10_08h58.00.005,ImageRatingTask_S2,2021.1.4,MacIntel,58.82352941,,,,,,,,,
,,,,,,,,,,,,0,2,2,2,1,third,12,28,female,L,IMT,2021-07-10_08h58.00.005,ImageRatingTask_S2,2021.1.4,MacIntel,58.82352941,,,,,,,,,
,,,,,,,,,,,,0,3,3,3,1,fourth,12,28,female,L,IMT,2021-07-10_08h58.00.005,ImageRatingTask_S2,2021.1.4,MacIntel,58.82352941,,,,,,,,,
,,,,,,,,,,,,0,4,4,4,1,fifth,12,28,female,L,IMT,2021-07-10_08h58.00.005,ImageRatingTask_S2,2021.1.4,MacIntel,58.82352941,,,,,,,,,
,,,,,,,,,,,,0,5,5,5,1,sixth,12,28,female,L,IMT,2021-07-10_08h58.00.005,ImageRatingTask_S2,2021.1.4,MacIntel,58.82352941,,,,,,,,,
,,,,,,,,,,,,0,6,6,6,1,seventh,12,28,female,L,IMT,2021-07-10_08h58.00.005,ImageRatingTask_S2,2021.1.4,MacIntel,58.82352941,,,,,,,,,
,,,,,,,,,,,,0,7,7,7,1,last,12,28,female,L,IMT,2021-07-10_08h58.00.005,ImageRatingTask_S2,2021.1.4,MacIntel,58.82352941,,,,,,,,,
,,,,,,,,,,,,,,,,,,12,28,female,L,IMT,2021-07-10_08h58.00.005,ImageRatingTask_S2,2021.1.4,MacIntel,58.82352941,0,51,51,1,1,DreamStudyImages_rs1000x750g/Vehicles/Road 1.jpg,,,
,,7,3.385,3,0.913,8,3.231,1,1.256,5,0.764,0,0,0,0,1,main,12,28,female,L,IMT,2021-07-10_08h58.00.005,ImageRatingTask_S2,2021.1.4,MacIntel,58.82352941,,,,,,,,,
,,,,,,,,,,,,0,1,1,1,1,second,12,28,female,L,IMT,2021-07-10_08h58.00.005,ImageRatingTask_S2,2021.1.4,MacIntel,58.82352941,,,,,,,,,
,,,,,,,,,,,,0,2,2,2,1,third,12,28,female,L,IMT,2021-07-10_08h58.00.005,ImageRatingTask_S2,2021.1.4,MacIntel,58.82352941,,,,,,,,,
,,,,,,,,,,,,0,3,3,3,1,fourth,12,28,female,L,IMT,2021-07-10_08h58.00.005,ImageRatingTask_S2,2021.1.4,MacIntel,58.82352941,,,,,,,,,
,,,,,,,,,,,,0,4,4,4,1,fifth,12,28,female,L,IMT,2021-07-10_08h58.00.005,ImageRatingTask_S2,2021.1.4,MacIntel,58.82352941,,,,,,,,,
,,,,,,,,,,,,0,5,5,5,1,sixth,12,28,female,L,IMT,2021-07-10_08h58.00.005,ImageRatingTask_S2,2021.1.4,MacIntel,58.82352941,,,,,,,,,
,,,,,,,,,,,,0,6,6,6,1,seventh,12,28,female,L,IMT,2021-07-10_08h58.00.005,ImageRatingTask_S2,2021.1.4,MacIntel,58.82352941,,,,,,,,,
,,,,,,,,,,,,0,7,7,7,1,last,12,28,female,L,IMT,2021-07-10_08h58.00.005,ImageRatingTask_S2,2021.1.4,MacIntel,58.82352941,,,,,,,,,
,,,,,,,,,,,,,,,,,,12,28,female,L,IMT,2021-07-10_08h58.00.005,ImageRatingTask_S2,2021.1.4,MacIntel,58.82352941,0,52,52,135,1,DreamStudyImages_rs1000x750g/Food/Objects_092_v.jpg,,,
,,4,2.185,1,0.558,7,1.846,1,1.163,2,0.593,0,0,0,0,1,main,12,28,female,L,IMT,2021-07-10_08h58.00.005,ImageRatingTask_S2,2021.1.4,MacIntel,58.82352941,,,,,,,,,
,,,,,,,,,,,,0,1,1,1,1,second,12,28,female,L,IMT,2021-07-10_08h58.00.005,ImageRatingTask_S2,2021.1.4,MacIntel,58.82352941,,,,,,,,,
,,,,,,,,,,,,0,2,2,2,1,third,12,28,female,L,IMT,2021-07-10_08h58.00.005,ImageRatingTask_S2,2021.1.4,MacIntel,58.82352941,,,,,,,,,
,,,,,,,,,,,,0,3,3,3,1,fourth,12,28,female,L,IMT,2021-07-10_08h58.00.005,ImageRatingTask_S2,2021.1.4,MacIntel,58.82352941,,,,,,,,,
,,,,,,,,,,,,0,4,4,4,1,fifth,12,28,female,L,IMT,2021-07-10_08h58.00.005,ImageRatingTask_S2,2021.1.4,MacIntel,58.82352941,,,,,,,,,
,,,,,,,,,,,,0,5,5,5,1,sixth,12,28,female,L,IMT,2021-07-10_08h58.00.005,ImageRatingTask_S2,2021.1.4,MacIntel,58.82352941,,,,,,,,,
,,,,,,,,,,,,0,6,6,6,1,seventh,12,28,female,L,IMT,2021-07-10_08h58.00.005,ImageRatingTask_S2,2021.1.4,MacIntel,58.82352941,,,,,,,,,
,,,,,,,,,,,,0,7,7,7,1,last,12,28,female,L,IMT,2021-07-10_08h58.00.005,ImageRatingTask_S2,2021.1.4,MacIntel,58.82352941,,,,,,,,,
,,,,,,,,,,,,,,,,,,12,28,female,L,IMT,2021-07-10_08h58.00.005,ImageRatingTask_S2,2021.1.4,MacIntel,58.82352941,0,53,53,101,1,DreamStudyImages_rs1000x750g/Children/Sad face 9.jpg,,,
,,6,2.624,1,2.078,6,2.464,1,1.007,2,0.637,0,0,0,0,1,main,12,28,female,L,IMT,2021-07-10_08h58.00.005,ImageRatingTask_S2,2021.1.4,MacIntel,58.82352941,,,,,,,,,
,,,,,,,,,,,,0,1,1,1,1,second,12,28,female,L,IMT,2021-07-10_08h58.00.005,ImageRatingTask_S2,2021.1.4,MacIntel,58.82352941,,,,,,,,,
,,,,,,,,,,,,0,2,2,2,1,third,12,28,female,L,IMT,2021-07-10_08h58.00.005,ImageRatingTask_S2,2021.1.4,MacIntel,58.82352941,,,,,,,,,
,,,,,,,,,,,,0,3,3,3,1,fourth,12,28,female,L,IMT,2021-07-10_08h58.00.005,ImageRatingTask_S2,2021.1.4,MacIntel,58.82352941,,,,,,,,,
,,,,,,,,,,,,0,4,4,4,1,fifth,12,28,female,L,IMT,2021-07-10_08h58.00.005,ImageRatingTask_S2,2021.1.4,MacIntel,58.82352941,,,,,,,,,
,,,,,,,,,,,,0,5,5,5,1,sixth,12,28,female,L,IMT,2021-07-10_08h58.00.005,ImageRatingTask_S2,2021.1.4,MacIntel,58.82352941,,,,,,,,,
,,,,,,,,,,,,0,6,6,6,1,seventh,12,28,female,L,IMT,2021-07-10_08h58.00.005,ImageRatingTask_S2,2021.1.4,MacIntel,58.82352941,,,,,,,,,
,,,,,,,,,,,,0,7,7,7,1,last,12,28,female,L,IMT,2021-07-10_08h58.00.005,ImageRatingTask_S2,2021.1.4,MacIntel,58.82352941,,,,,,,,,
,,,,,,,,,,,,,,,,,,12,28,female,L,IMT,2021-07-10_08h58.00.005,ImageRatingTask_S2,2021.1.4,MacIntel,58.82352941,0,54,54,127,1,DreamStudyImages_rs1000x750g/Children/Excited face 2.jpg,,,
,,6,2.59,1,0.606,5,1.447,1,0.808,5,0.664,0,0,0,0,1,main,12,28,female,L,IMT,2021-07-10_08h58.00.005,ImageRatingTask_S2,2021.1.4,MacIntel,58.82352941,,,,,,,,,
,,,,,,,,,,,,0,1,1,1,1,second,12,28,female,L,IMT,2021-07-10_08h58.00.005,ImageRatingTask_S2,2021.1.4,MacIntel,58.82352941,,,,,,,,,
,,,,,,,,,,,,0,2,2,2,1,third,12,28,female,L,IMT,2021-07-10_08h58.00.005,ImageRatingTask_S2,2021.1.4,MacIntel,58.82352941,,,,,,,,,
,,,,,,,,,,,,0,3,3,3,1,fourth,12,28,female,L,IMT,2021-07-10_08h58.00.005,ImageRatingTask_S2,2021.1.4,MacIntel,58.82352941,,,,,,,,,
,,,,,,,,,,,,0,4,4,4,1,fifth,12,28,female,L,IMT,2021-07-10_08h58.00.005,ImageRatingTask_S2,2021.1.4,MacIntel,58.82352941,,,,,,,,,
,,,,,,,,,,,,0,5,5,5,1,sixth,12,28,female,L,IMT,2021-07-10_08h58.00.005,ImageRatingTask_S2,2021.1.4,MacIntel,58.82352941,,,,,,,,,
,,,,,,,,,,,,0,6,6,6,1,seventh,12,28,female,L,IMT,2021-07-10_08h58.00.005,ImageRatingTask_S2,2021.1.4,MacIntel,58.82352941,,,,,,,,,
,,,,,,,,,,,,0,7,7,7,1,last,12,28,female,L,IMT,2021-07-10_08h58.00.005,ImageRatingTask_S2,2021.1.4,MacIntel,58.82352941,,,,,,,,,
,,,,,,,,,,,,,,,,,,12,28,female,L,IMT,2021-07-10_08h58.00.005,ImageRatingTask_S2,2021.1.4,MacIntel,58.82352941,0,55,55,55,1,DreamStudyImages_rs1000x750g/Food/Food 5.jpg,,,
,,4,3.211,1,0.499,7,1.731,1,1.207,2,0.286,0,0,0,0,1,main,12,28,female,L,IMT,2021-07-10_08h58.00.005,ImageRatingTask_S2,2021.1.4,MacIntel,58.82352941,,,,,,,,,
,,,,,,,,,,,,0,1,1,1,1,second,12,28,female,L,IMT,2021-07-10_08h58.00.005,ImageRatingTask_S2,2021.1.4,MacIntel,58.82352941,,,,,,,,,
,,,,,,,,,,,,0,2,2,2,1,third,12,28,female,L,IMT,2021-07-10_08h58.00.005,ImageRatingTask_S2,2021.1.4,MacIntel,58.82352941,,,,,,,,,
,,,,,,,,,,,,0,3,3,3,1,fourth,12,28,female,L,IMT,2021-07-10_08h58.00.005,ImageRatingTask_S2,2021.1.4,MacIntel,58.82352941,,,,,,,,,
,,,,,,,,,,,,0,4,4,4,1,fifth,12,28,female,L,IMT,2021-07-10_08h58.00.005,ImageRatingTask_S2,2021.1.4,MacIntel,58.82352941,,,,,,,,,
,,,,,,,,,,,,0,5,5,5,1,sixth,12,28,female,L,IMT,2021-07-10_08h58.00.005,ImageRatingTask_S2,2021.1.4,MacIntel,58.82352941,,,,,,,,,
,,,,,,,,,,,,0,6,6,6,1,seventh,12,28,female,L,IMT,2021-07-10_08h58.00.005,ImageRatingTask_S2,2021.1.4,MacIntel,58.82352941,,,,,,,,,
,,,,,,,,,,,,0,7,7,7,1,last,12,28,female,L,IMT,2021-07-10_08h58.00.005,ImageRatingTask_S2,2021.1.4,MacIntel,58.82352941,,,,,,,,,
,,,,,,,,,,,,,,,,,,12,28,female,L,IMT,2021-07-10_08h58.00.005,ImageRatingTask_S2,2021.1.4,MacIntel,58.82352941,0,56,56,143,1,DreamStudyImages_rs1000x750g/Children/Faces_024_h.jpg,,,
,,5,3.195,1,0.458,7,1.316,1,10.689,4,0.827,0,0,0,0,1,main,12,28,female,L,IMT,2021-07-10_08h58.00.005,ImageRatingTask_S2,2021.1.4,MacIntel,58.82352941,,,,,,,,,
,,,,,,,,,,,,0,1,1,1,1,second,12,28,female,L,IMT,2021-07-10_08h58.00.005,ImageRatingTask_S2,2021.1.4,MacIntel,58.82352941,,,,,,,,,
,,,,,,,,,,,,0,2,2,2,1,third,12,28,female,L,IMT,2021-07-10_08h58.00.005,ImageRatingTask_S2,2021.1.4,MacIntel,58.82352941,,,,,,,,,
,,,,,,,,,,,,0,3,3,3,1,fourth,12,28,female,L,IMT,2021-07-10_08h58.00.005,ImageRatingTask_S2,2021.1.4,MacIntel,58.82352941,,,,,,,,,
,,,,,,,,,,,,0,4,4,4,1,fifth,12,28,female,L,IMT,2021-07-10_08h58.00.005,ImageRatingTask_S2,2021.1.4,MacIntel,58.82352941,,,,,,,,,
,,,,,,,,,,,,0,5,5,5,1,sixth,12,28,female,L,IMT,2021-07-10_08h58.00.005,ImageRatingTask_S2,2021.1.4,MacIntel,58.82352941,,,,,,,,,
,,,,,,,,,,,,0,6,6,6,1,seventh,12,28,female,L,IMT,2021-07-10_08h58.00.005,ImageRatingTask_S2,2021.1.4,MacIntel,58.82352941,,,,,,,,,
,,,,,,,,,,,,0,7,7,7,1,last,12,28,female,L,IMT,2021-07-10_08h58.00.005,ImageRatingTask_S2,2021.1.4,MacIntel,58.82352941,,,,,,,,,
,,,,,,,,,,,,,,,,,,12,28,female,L,IMT,2021-07-10_08h58.00.005,ImageRatingTask_S2,2021.1.4,MacIntel,58.82352941,0,57,57,158,1,DreamStudyImages_rs1000x750g/Mammals/Animals_126_h.jpg,,,
,,5,3.783,1,0.763,6,1.65,1,1.119,5,0.403,0,0,0,0,1,main,12,28,female,L,IMT,2021-07-10_08h58.00.005,ImageRatingTask_S2,2021.1.4,MacIntel,58.82352941,,,,,,,,,
,,,,,,,,,,,,0,1,1,1,1,second,12,28,female,L,IMT,2021-07-10_08h58.00.005,ImageRatingTask_S2,2021.1.4,MacIntel,58.82352941,,,,,,,,,
,,,,,,,,,,,,0,2,2,2,1,third,12,28,female,L,IMT,2021-07-10_08h58.00.005,ImageRatingTask_S2,2021.1.4,MacIntel,58.82352941,,,,,,,,,
,,,,,,,,,,,,0,3,3,3,1,fourth,12,28,female,L,IMT,2021-07-10_08h58.00.005,ImageRatingTask_S2,2021.1.4,MacIntel,58.82352941,,,,,,,,,
,,,,,,,,,,,,0,4,4,4,1,fifth,12,28,female,L,IMT,2021-07-10_08h58.00.005,ImageRatingTask_S2,2021.1.4,MacIntel,58.82352941,,,,,,,,,
,,,,,,,,,,,,0,5,5,5,1,sixth,12,28,female,L,IMT,2021-07-10_08h58.00.005,ImageRatingTask_S2,2021.1.4,MacIntel,58.82352941,,,,,,,,,
,,,,,,,,,,,,0,6,6,6,1,seventh,12,28,female,L,IMT,2021-07-10_08h58.00.005,ImageRatingTask_S2,2021.1.4,MacIntel,58.82352941,,,,,,,,,
,,,,,,,,,,,,0,7,7,7,1,last,12,28,female,L,IMT,2021-07-10_08h58.00.005,ImageRatingTask_S2,2021.1.4,MacIntel,58.82352941,,,,,,,,,
,,,,,,,,,,,,,,,,,,12,28,female,L,IMT,2021-07-10_08h58.00.005,ImageRatingTask_S2,2021.1.4,MacIntel,58.82352941,0,58,58,83,1,DreamStudyImages_rs1000x750g/Food/Dessert 4.jpg,,,
,,6,75.68,1,0.846,7,1.358,1,0.96,2,0.371,0,0,0,0,1,main,12,28,female,L,IMT,2021-07-10_08h58.00.005,ImageRatingTask_S2,2021.1.4,MacIntel,58.82352941,,,,,,,,,
,,,,,,,,,,,,0,1,1,1,1,second,12,28,female,L,IMT,2021-07-10_08h58.00.005,ImageRatingTask_S2,2021.1.4,MacIntel,58.82352941,,,,,,,,,
,,,,,,,,,,,,0,2,2,2,1,third,12,28,female,L,IMT,2021-07-10_08h58.00.005,ImageRatingTask_S2,2021.1.4,MacIntel,58.82352941,,,,,,,,,
,,,,,,,,,,,,0,3,3,3,1,fourth,12,28,female,L,IMT,2021-07-10_08h58.00.005,ImageRatingTask_S2,2021.1.4,MacIntel,58.82352941,,,,,,,,,
,,,,,,,,,,,,0,4,4,4,1,fifth,12,28,female,L,IMT,2021-07-10_08h58.00.005,ImageRatingTask_S2,2021.1.4,MacIntel,58.82352941,,,,,,,,,
,,,,,,,,,,,,0,5,5,5,1,sixth,12,28,female,L,IMT,2021-07-10_08h58.00.005,ImageRatingTask_S2,2021.1.4,MacIntel,58.82352941,,,,,,,,,
,,,,,,,,,,,,0,6,6,6,1,seventh,12,28,female,L,IMT,2021-07-10_08h58.00.005,ImageRatingTask_S2,2021.1.4,MacIntel,58.82352941,,,,,,,,,
,,,,,,,,,,,,0,7,7,7,1,last,12,28,female,L,IMT,2021-07-10_08h58.00.005,ImageRatingTask_S2,2021.1.4,MacIntel,58.82352941,,,,,,,,,
,,,,,,,,,,,,,,,,,,12,28,female,L,IMT,2021-07-10_08h58.00.005,ImageRatingTask_S2,2021.1.4,MacIntel,58.82352941,0,59,59,79,1,DreamStudyImages_rs1000x750g/Children/Faces_050_h.jpg,,,
,,4,3.55,1,0.697,5,1.349,1,5.107,2,0.677,0,0,0,0,1,main,12,28,female,L,IMT,2021-07-10_08h58.00.005,ImageRatingTask_S2,2021.1.4,MacIntel,58.82352941,,,,,,,,,
,,,,,,,,,,,,0,1,1,1,1,second,12,28,female,L,IMT,2021-07-10_08h58.00.005,ImageRatingTask_S2,2021.1.4,MacIntel,58.82352941,,,,,,,,,
,,,,,,,,,,,,0,2,2,2,1,third,12,28,female,L,IMT,2021-07-10_08h58.00.005,ImageRatingTask_S2,2021.1.4,MacIntel,58.82352941,,,,,,,,,
,,,,,,,,,,,,0,3,3,3,1,fourth,12,28,female,L,IMT,2021-07-10_08h58.00.005,ImageRatingTask_S2,2021.1.4,MacIntel,58.82352941,,,,,,,,,
,,,,,,,,,,,,0,4,4,4,1,fifth,12,28,female,L,IMT,2021-07-10_08h58.00.005,ImageRatingTask_S2,2021.1.4,MacIntel,58.82352941,,,,,,,,,
,,,,,,,,,,,,0,5,5,5,1,sixth,12,28,female,L,IMT,2021-07-10_08h58.00.005,ImageRatingTask_S2,2021.1.4,MacIntel,58.82352941,,,,,,,,,
,,,,,,,,,,,,0,6,6,6,1,seventh,12,28,female,L,IMT,2021-07-10_08h58.00.005,ImageRatingTask_S2,2021.1.4,MacIntel,58.82352941,,,,,,,,,
,,,,,,,,,,,,0,7,7,7,1,last,12,28,female,L,IMT,2021-07-10_08h58.00.005,ImageRatingTask_S2,2021.1.4,MacIntel,58.82352941,,,,,,,,,
,,,,,,,,,,,,,,,,,,12,28,female,L,IMT,2021-07-10_08h58.00.005,ImageRatingTask_S2,2021.1.4,MacIntel,58.82352941,0,60,60,95,1,DreamStudyImages_rs1000x750g/Children/IAPS2278_children6.jpg,,,
,,6,3.333,1,0.615,7,1.554,1,1.725,5,0.786,0,0,0,0,1,main,12,28,female,L,IMT,2021-07-10_08h58.00.005,ImageRatingTask_S2,2021.1.4,MacIntel,58.82352941,,,,,,,,,
,,,,,,,,,,,,0,1,1,1,1,second,12,28,female,L,IMT,2021-07-10_08h58.00.005,ImageRatingTask_S2,2021.1.4,MacIntel,58.82352941,,,,,,,,,
,,,,,,,,,,,,0,2,2,2,1,third,12,28,female,L,IMT,2021-07-10_08h58.00.005,ImageRatingTask_S2,2021.1.4,MacIntel,58.82352941,,,,,,,,,
,,,,,,,,,,,,0,3,3,3,1,fourth,12,28,female,L,IMT,2021-07-10_08h58.00.005,ImageRatingTask_S2,2021.1.4,MacIntel,58.82352941,,,,,,,,,
,,,,,,,,,,,,0,4,4,4,1,fifth,12,28,female,L,IMT,2021-07-10_08h58.00.005,ImageRatingTask_S2,2021.1.4,MacIntel,58.82352941,,,,,,,,,
,,,,,,,,,,,,0,5,5,5,1,sixth,12,28,female,L,IMT,2021-07-10_08h58.00.005,ImageRatingTask_S2,2021.1.4,MacIntel,58.82352941,,,,,,,,,
,,,,,,,,,,,,0,6,6,6,1,seventh,12,28,female,L,IMT,2021-07-10_08h58.00.005,ImageRatingTask_S2,2021.1.4,MacIntel,58.82352941,,,,,,,,,
,,,,,,,,,,,,0,7,7,7,1,last,12,28,female,L,IMT,2021-07-10_08h58.00.005,ImageRatingTask_S2,2021.1.4,MacIntel,58.82352941,,,,,,,,,
,,,,,,,,,,,,,,,,,,12,28,female,L,IMT,2021-07-10_08h58.00.005,ImageRatingTask_S2,2021.1.4,MacIntel,58.82352941,0,61,61,97,1,DreamStudyImages_rs1000x750g/Food/Objects_076_v.jpg,,,
,,4,2.396,1,1.455,7,2.039,1,0.931,2,0.202,0,0,0,0,1,main,12,28,female,L,IMT,2021-07-10_08h58.00.005,ImageRatingTask_S2,2021.1.4,MacIntel,58.82352941,,,,,,,,,
,,,,,,,,,,,,0,1,1,1,1,second,12,28,female,L,IMT,2021-07-10_08h58.00.005,ImageRatingTask_S2,2021.1.4,MacIntel,58.82352941,,,,,,,,,
,,,,,,,,,,,,0,2,2,2,1,third,12,28,female,L,IMT,2021-07-10_08h58.00.005,ImageRatingTask_S2,2021.1.4,MacIntel,58.82352941,,,,,,,,,
,,,,,,,,,,,,0,3,3,3,1,fourth,12,28,female,L,IMT,2021-07-10_08h58.00.005,ImageRatingTask_S2,2021.1.4,MacIntel,58.82352941,,,,,,,,,
,,,,,,,,,,,,0,4,4,4,1,fifth,12,28,female,L,IMT,2021-07-10_08h58.00.005,ImageRatingTask_S2,2021.1.4,MacIntel,58.82352941,,,,,,,,,
,,,,,,,,,,,,0,5,5,5,1,sixth,12,28,female,L,IMT,2021-07-10_08h58.00.005,ImageRatingTask_S2,2021.1.4,MacIntel,58.82352941,,,,,,,,,
,,,,,,,,,,,,0,6,6,6,1,seventh,12,28,female,L,IMT,2021-07-10_08h58.00.005,ImageRatingTask_S2,2021.1.4,MacIntel,58.82352941,,,,,,,,,
,,,,,,,,,,,,0,7,7,7,1,last,12,28,female,L,IMT,2021-07-10_08h58.00.005,ImageRatingTask_S2,2021.1.4,MacIntel,58.82352941,,,,,,,,,
,,,,,,,,,,,,,,,,,,12,28,female,L,IMT,2021-07-10_08h58.00.005,ImageRatingTask_S2,2021.1.4,MacIntel,58.82352941,0,62,62,65,1,DreamStudyImages_rs1000x750g/Children/Faces_011_h.jpg,,,
,,6,26.112,1,0.499,8,2.407,1,1.089,3,0.834,0,0,0,0,1,main,12,28,female,L,IMT,2021-07-10_08h58.00.005,ImageRatingTask_S2,2021.1.4,MacIntel,58.82352941,,,,,,,,,
,,,,,,,,,,,,0,1,1,1,1,second,12,28,female,L,IMT,2021-07-10_08h58.00.005,ImageRatingTask_S2,2021.1.4,MacIntel,58.82352941,,,,,,,,,
,,,,,,,,,,,,0,2,2,2,1,third,12,28,female,L,IMT,2021-07-10_08h58.00.005,ImageRatingTask_S2,2021.1.4,MacIntel,58.82352941,,,,,,,,,
,,,,,,,,,,,,0,3,3,3,1,fourth,12,28,female,L,IMT,2021-07-10_08h58.00.005,ImageRatingTask_S2,2021.1.4,MacIntel,58.82352941,,,,,,,,,
,,,,,,,,,,,,0,4,4,4,1,fifth,12,28,female,L,IMT,2021-07-10_08h58.00.005,ImageRatingTask_S2,2021.1.4,MacIntel,58.82352941,,,,,,,,,
,,,,,,,,,,,,0,5,5,5,1,sixth,12,28,female,L,IMT,2021-07-10_08h58.00.005,ImageRatingTask_S2,2021.1.4,MacIntel,58.82352941,,,,,,,,,
,,,,,,,,,,,,0,6,6,6,1,seventh,12,28,female,L,IMT,2021-07-10_08h58.00.005,ImageRatingTask_S2,2021.1.4,MacIntel,58.82352941,,,,,,,,,
,,,,,,,,,,,,0,7,7,7,1,last,12,28,female,L,IMT,2021-07-10_08h58.00.005,ImageRatingTask_S2,2021.1.4,MacIntel,58.82352941,,,,,,,,,
,,,,,,,,,,,,,,,,,,12,28,female,L,IMT,2021-07-10_08h58.00.005,ImageRatingTask_S2,2021.1.4,MacIntel,58.82352941,0,63,63,58,1,DreamStudyImages_rs1000x750g/Mammals/Animals_122_h.jpg,,,
,,5,9.073,1,0.529,6,1.291,1,1.229,7,0.696,0,0,0,0,1,main,12,28,female,L,IMT,2021-07-10_08h58.00.005,ImageRatingTask_S2,2021.1.4,MacIntel,58.82352941,,,,,,,,,
,,,,,,,,,,,,0,1,1,1,1,second,12,28,female,L,IMT,2021-07-10_08h58.00.005,ImageRatingTask_S2,2021.1.4,MacIntel,58.82352941,,,,,,,,,
,,,,,,,,,,,,0,2,2,2,1,third,12,28,female,L,IMT,2021-07-10_08h58.00.005,ImageRatingTask_S2,2021.1.4,MacIntel,58.82352941,,,,,,,,,
,,,,,,,,,,,,0,3,3,3,1,fourth,12,28,female,L,IMT,2021-07-10_08h58.00.005,ImageRatingTask_S2,2021.1.4,MacIntel,58.82352941,,,,,,,,,
,,,,,,,,,,,,0,4,4,4,1,fifth,12,28,female,L,IMT,2021-07-10_08h58.00.005,ImageRatingTask_S2,2021.1.4,MacIntel,58.82352941,,,,,,,,,
,,,,,,,,,,,,0,5,5,5,1,sixth,12,28,female,L,IMT,2021-07-10_08h58.00.005,ImageRatingTask_S2,2021.1.4,MacIntel,58.82352941,,,,,,,,,
,,,,,,,,,,,,0,6,6,6,1,seventh,12,28,female,L,IMT,2021-07-10_08h58.00.005,ImageRatingTask_S2,2021.1.4,MacIntel,58.82352941,,,,,,,,,
,,,,,,,,,,,,0,7,7,7,1,last,12,28,female,L,IMT,2021-07-10_08h58.00.005,ImageRatingTask_S2,2021.1.4,MacIntel,58.82352941,,,,,,,,,
,,,,,,,,,,,,,,,,,,12,28,female,L,IMT,2021-07-10_08h58.00.005,ImageRatingTask_S2,2021.1.4,MacIntel,58.82352941,0,64,64,118,1,DreamStudyImages_rs1000x750g/Vehicles/desertroad.jpg,,,
,,6,1.785,1,0.647,7,1.588,1,0.813,6,1.08,0,0,0,0,1,main,12,28,female,L,IMT,2021-07-10_08h58.00.005,ImageRatingTask_S2,2021.1.4,MacIntel,58.82352941,,,,,,,,,
,,,,,,,,,,,,0,1,1,1,1,second,12,28,female,L,IMT,2021-07-10_08h58.00.005,ImageRatingTask_S2,2021.1.4,MacIntel,58.82352941,,,,,,,,,
,,,,,,,,,,,,0,2,2,2,1,third,12,28,female,L,IMT,2021-07-10_08h58.00.005,ImageRatingTask_S2,2021.1.4,MacIntel,58.82352941,,,,,,,,,
,,,,,,,,,,,,0,3,3,3,1,fourth,12,28,female,L,IMT,2021-07-10_08h58.00.005,ImageRatingTask_S2,2021.1.4,MacIntel,58.82352941,,,,,,,,,
,,,,,,,,,,,,0,4,4,4,1,fifth,12,28,female,L,IMT,2021-07-10_08h58.00.005,ImageRatingTask_S2,2021.1.4,MacIntel,58.82352941,,,,,,,,,
,,,,,,,,,,,,0,5,5,5,1,sixth,12,28,female,L,IMT,2021-07-10_08h58.00.005,ImageRatingTask_S2,2021.1.4,MacIntel,58.82352941,,,,,,,,,
,,,,,,,,,,,,0,6,6,6,1,seventh,12,28,female,L,IMT,2021-07-10_08h58.00.005,ImageRatingTask_S2,2021.1.4,MacIntel,58.82352941,,,,,,,,,
,,,,,,,,,,,,0,7,7,7,1,last,12,28,female,L,IMT,2021-07-10_08h58.00.005,ImageRatingTask_S2,2021.1.4,MacIntel,58.82352941,,,,,,,,,
,,,,,,,,,,,,,,,,,,12,28,female,L,IMT,2021-07-10_08h58.00.005,ImageRatingTask_S2,2021.1.4,MacIntel,58.82352941,0,65,65,54,1,DreamStudyImages_rs1000x750g/Houses/Objects_210_h.jpg,,,
,,4,2.554,1,0.481,6,2.425,1,0.762,6,1.496,0,0,0,0,1,main,12,28,female,L,IMT,2021-07-10_08h58.00.005,ImageRatingTask_S2,2021.1.4,MacIntel,58.82352941,,,,,,,,,
,,,,,,,,,,,,0,1,1,1,1,second,12,28,female,L,IMT,2021-07-10_08h58.00.005,ImageRatingTask_S2,2021.1.4,MacIntel,58.82352941,,,,,,,,,
,,,,,,,,,,,,0,2,2,2,1,third,12,28,female,L,IMT,2021-07-10_08h58.00.005,ImageRatingTask_S2,2021.1.4,MacIntel,58.82352941,,,,,,,,,
,,,,,,,,,,,,0,3,3,3,1,fourth,12,28,female,L,IMT,2021-07-10_08h58.00.005,ImageRatingTask_S2,2021.1.4,MacIntel,58.82352941,,,,,,,,,
,,,,,,,,,,,,0,4,4,4,1,fifth,12,28,female,L,IMT,2021-07-10_08h58.00.005,ImageRatingTask_S2,2021.1.4,MacIntel,58.82352941,,,,,,,,,
,,,,,,,,,,,,0,5,5,5,1,sixth,12,28,female,L,IMT,2021-07-10_08h58.00.005,ImageRatingTask_S2,2021.1.4,MacIntel,58.82352941,,,,,,,,,
,,,,,,,,,,,,0,6,6,6,1,seventh,12,28,female,L,IMT,2021-07-10_08h58.00.005,ImageRatingTask_S2,2021.1.4,MacIntel,58.82352941,,,,,,,,,
,,,,,,,,,,,,0,7,7,7,1,last,12,28,female,L,IMT,2021-07-10_08h58.00.005,ImageRatingTask_S2,2021.1.4,MacIntel,58.82352941,,,,,,,,,
,,,,,,,,,,,,,,,,,,12,28,female,L,IMT,2021-07-10_08h58.00.005,ImageRatingTask_S2,2021.1.4,MacIntel,58.82352941,0,66,66,35,1,DreamStudyImages_rs1000x750g/Houses/IAPS9471_burntbuilding.jpg,,,
,,4,1.576,1,3.881,5,1.756,1,1.013,5,0.788,0,0,0,0,1,main,12,28,female,L,IMT,2021-07-10_08h58.00.005,ImageRatingTask_S2,2021.1.4,MacIntel,58.82352941,,,,,,,,,
,,,,,,,,,,,,0,1,1,1,1,second,12,28,female,L,IMT,2021-07-10_08h58.00.005,ImageRatingTask_S2,2021.1.4,MacIntel,58.82352941,,,,,,,,,
,,,,,,,,,,,,0,2,2,2,1,third,12,28,female,L,IMT,2021-07-10_08h58.00.005,ImageRatingTask_S2,2021.1.4,MacIntel,58.82352941,,,,,,,,,
,,,,,,,,,,,,0,3,3,3,1,fourth,12,28,female,L,IMT,2021-07-10_08h58.00.005,ImageRatingTask_S2,2021.1.4,MacIntel,58.82352941,,,,,,,,,
,,,,,,,,,,,,0,4,4,4,1,fifth,12,28,female,L,IMT,2021-07-10_08h58.00.005,ImageRatingTask_S2,2021.1.4,MacIntel,58.82352941,,,,,,,,,
,,,,,,,,,,,,0,5,5,5,1,sixth,12,28,female,L,IMT,2021-07-10_08h58.00.005,ImageRatingTask_S2,2021.1.4,MacIntel,58.82352941,,,,,,,,,
,,,,,,,,,,,,0,6,6,6,1,seventh,12,28,female,L,IMT,2021-07-10_08h58.00.005,ImageRatingTask_S2,2021.1.4,MacIntel,58.82352941,,,,,,,,,
,,,,,,,,,,,,0,7,7,7,1,last,12,28,female,L,IMT,2021-07-10_08h58.00.005,ImageRatingTask_S2,2021.1.4,MacIntel,58.82352941,,,,,,,,,
,,,,,,,,,,,,,,,,,,12,28,female,L,IMT,2021-07-10_08h58.00.005,ImageRatingTask_S2,2021.1.4,MacIntel,58.82352941,0,67,67,153,1,DreamStudyImages_rs1000x750g/Food/IAPS7460_fries.jpg,,,
,,6,2.441,1,0.659,7,1.716,1,1.28,8,8.296,0,0,0,0,1,main,12,28,female,L,IMT,2021-07-10_08h58.00.005,ImageRatingTask_S2,2021.1.4,MacIntel,58.82352941,,,,,,,,,
,,,,,,,,,,,,0,1,1,1,1,second,12,28,female,L,IMT,2021-07-10_08h58.00.005,ImageRatingTask_S2,2021.1.4,MacIntel,58.82352941,,,,,,,,,
,,,,,,,,,,,,0,2,2,2,1,third,12,28,female,L,IMT,2021-07-10_08h58.00.005,ImageRatingTask_S2,2021.1.4,MacIntel,58.82352941,,,,,,,,,
,,,,,,,,,,,,0,3,3,3,1,fourth,12,28,female,L,IMT,2021-07-10_08h58.00.005,ImageRatingTask_S2,2021.1.4,MacIntel,58.82352941,,,,,,,,,
,,,,,,,,,,,,0,4,4,4,1,fifth,12,28,female,L,IMT,2021-07-10_08h58.00.005,ImageRatingTask_S2,2021.1.4,MacIntel,58.82352941,,,,,,,,,
,,,,,,,,,,,,0,5,5,5,1,sixth,12,28,female,L,IMT,2021-07-10_08h58.00.005,ImageRatingTask_S2,2021.1.4,MacIntel,58.82352941,,,,,,,,,
,,,,,,,,,,,,0,6,6,6,1,seventh,12,28,female,L,IMT,2021-07-10_08h58.00.005,ImageRatingTask_S2,2021.1.4,MacIntel,58.82352941,,,,,,,,,
,,,,,,,,,,,,0,7,7,7,1,last,12,28,female,L,IMT,2021-07-10_08h58.00.005,ImageRatingTask_S2,2021.1.4,MacIntel,58.82352941,,,,,,,,,
,,,,,,,,,,,,,,,,,,12,28,female,L,IMT,2021-07-10_08h58.00.005,ImageRatingTask_S2,2021.1.4,MacIntel,58.82352941,0,68,68,19,1,DreamStudyImages_rs1000x750g/Water/lakepontoon2.jpg,,,
,,7,1.9,1,0.562,8,1.499,1,0.903,5,0.469,0,0,0,0,1,main,12,28,female,L,IMT,2021-07-10_08h58.00.005,ImageRatingTask_S2,2021.1.4,MacIntel,58.82352941,,,,,,,,,
,,,,,,,,,,,,0,1,1,1,1,second,12,28,female,L,IMT,2021-07-10_08h58.00.005,ImageRatingTask_S2,2021.1.4,MacIntel,58.82352941,,,,,,,,,
,,,,,,,,,,,,0,2,2,2,1,third,12,28,female,L,IMT,2021-07-10_08h58.00.005,ImageRatingTask_S2,2021.1.4,MacIntel,58.82352941,,,,,,,,,
,,,,,,,,,,,,0,3,3,3,1,fourth,12,28,female,L,IMT,2021-07-10_08h58.00.005,ImageRatingTask_S2,2021.1.4,MacIntel,58.82352941,,,,,,,,,
,,,,,,,,,,,,0,4,4,4,1,fifth,12,28,female,L,IMT,2021-07-10_08h58.00.005,ImageRatingTask_S2,2021.1.4,MacIntel,58.82352941,,,,,,,,,
,,,,,,,,,,,,0,5,5,5,1,sixth,12,28,female,L,IMT,2021-07-10_08h58.00.005,ImageRatingTask_S2,2021.1.4,MacIntel,58.82352941,,,,,,,,,
,,,,,,,,,,,,0,6,6,6,1,seventh,12,28,female,L,IMT,2021-07-10_08h58.00.005,ImageRatingTask_S2,2021.1.4,MacIntel,58.82352941,,,,,,,,,
,,,,,,,,,,,,0,7,7,7,1,last,12,28,female,L,IMT,2021-07-10_08h58.00.005,ImageRatingTask_S2,2021.1.4,MacIntel,58.82352941,,,,,,,,,
,,,,,,,,,,,,,,,,,,12,28,female,L,IMT,2021-07-10_08h58.00.005,ImageRatingTask_S2,2021.1.4,MacIntel,58.82352941,0,69,69,132,1,DreamStudyImages_rs1000x750g/Food/Objects_101_h.jpg,,,
,,5,1.403,1,1.133,8,1.58,1,1.001,6,1.845,0,0,0,0,1,main,12,28,female,L,IMT,2021-07-10_08h58.00.005,ImageRatingTask_S2,2021.1.4,MacIntel,58.82352941,,,,,,,,,
,,,,,,,,,,,,0,1,1,1,1,second,12,28,female,L,IMT,2021-07-10_08h58.00.005,ImageRatingTask_S2,2021.1.4,MacIntel,58.82352941,,,,,,,,,
,,,,,,,,,,,,0,2,2,2,1,third,12,28,female,L,IMT,2021-07-10_08h58.00.005,ImageRatingTask_S2,2021.1.4,MacIntel,58.82352941,,,,,,,,,
,,,,,,,,,,,,0,3,3,3,1,fourth,12,28,female,L,IMT,2021-07-10_08h58.00.005,ImageRatingTask_S2,2021.1.4,MacIntel,58.82352941,,,,,,,,,
,,,,,,,,,,,,0,4,4,4,1,fifth,12,28,female,L,IMT,2021-07-10_08h58.00.005,ImageRatingTask_S2,2021.1.4,MacIntel,58.82352941,,,,,,,,,
,,,,,,,,,,,,0,5,5,5,1,sixth,12,28,female,L,IMT,2021-07-10_08h58.00.005,ImageRatingTask_S2,2021.1.4,MacIntel,58.82352941,,,,,,,,,
,,,,,,,,,,,,0,6,6,6,1,seventh,12,28,female,L,IMT,2021-07-10_08h58.00.005,ImageRatingTask_S2,2021.1.4,MacIntel,58.82352941,,,,,,,,,
,,,,,,,,,,,,0,7,7,7,1,last,12,28,female,L,IMT,2021-07-10_08h58.00.005,ImageRatingTask_S2,2021.1.4,MacIntel,58.82352941,,,,,,,,,
,,,,,,,,,,,,,,,,,,12,28,female,L,IMT,2021-07-10_08h58.00.005,ImageRatingTask_S2,2021.1.4,MacIntel,58.82352941,0,70,70,116,1,DreamStudyImages_rs1000x750g/Houses/Landscapes_080_h.jpg,,,
,,6,1.913,1,0.617,8,1.423,0,2.586,,,0,0,0,0,1,main,12,28,female,L,IMT,2021-07-10_08h58.00.005,ImageRatingTask_S2,2021.1.4,MacIntel,58.82352941,,,,,,,,,
,,,,,,,,,,,,0,1,1,1,1,second,12,28,female,L,IMT,2021-07-10_08h58.00.005,ImageRatingTask_S2,2021.1.4,MacIntel,58.82352941,,,,,,,,,
,,,,,,,,,,,,0,2,2,2,1,third,12,28,female,L,IMT,2021-07-10_08h58.00.005,ImageRatingTask_S2,2021.1.4,MacIntel,58.82352941,,,,,,,,,
,,,,,,,,,,,,0,3,3,3,1,fourth,12,28,female,L,IMT,2021-07-10_08h58.00.005,ImageRatingTask_S2,2021.1.4,MacIntel,58.82352941,,,,,,,,,
,,,,,,,,,,,,0,4,4,4,1,fifth,12,28,female,L,IMT,2021-07-10_08h58.00.005,ImageRatingTask_S2,2021.1.4,MacIntel,58.82352941,,,,,,,,,
,,,,,,,,,,,,0,5,5,5,1,sixth,12,28,female,L,IMT,2021-07-10_08h58.00.005,ImageRatingTask_S2,2021.1.4,MacIntel,58.82352941,,,,,,,,,
,,,,,,,,,,,,0,6,6,6,1,seventh,12,28,female,L,IMT,2021-07-10_08h58.00.005,ImageRatingTask_S2,2021.1.4,MacIntel,58.82352941,,,,,,,,,
,,,,,,,,,,,,0,7,7,7,1,last,12,28,female,L,IMT,2021-07-10_08h58.00.005,ImageRatingTask_S2,2021.1.4,MacIntel,58.82352941,,,,,,,,,
,,,,,,,,,,,,,,,,,,12,28,female,L,IMT,2021-07-10_08h58.00.005,ImageRatingTask_S2,2021.1.4,MacIntel,58.82352941,0,71,71,81,1,DreamStudyImages_rs1000x750g/Water/Landscapes_179_h.jpg,,,
,,6,4.445,1,0.589,8,1.499,1,0.889,5,0.358,0,0,0,0,1,main,12,28,female,L,IMT,2021-07-10_08h58.00.005,ImageRatingTask_S2,2021.1.4,MacIntel,58.82352941,,,,,,,,,
,,,,,,,,,,,,0,1,1,1,1,second,12,28,female,L,IMT,2021-07-10_08h58.00.005,ImageRatingTask_S2,2021.1.4,MacIntel,58.82352941,,,,,,,,,
,,,,,,,,,,,,0,2,2,2,1,third,12,28,female,L,IMT,2021-07-10_08h58.00.005,ImageRatingTask_S2,2021.1.4,MacIntel,58.82352941,,,,,,,,,
,,,,,,,,,,,,0,3,3,3,1,fourth,12,28,female,L,IMT,2021-07-10_08h58.00.005,ImageRatingTask_S2,2021.1.4,MacIntel,58.82352941,,,,,,,,,
,,,,,,,,,,,,0,4,4,4,1,fifth,12,28,female,L,IMT,2021-07-10_08h58.00.005,ImageRatingTask_S2,2021.1.4,MacIntel,58.82352941,,,,,,,,,
,,,,,,,,,,,,0,5,5,5,1,sixth,12,28,female,L,IMT,2021-07-10_08h58.00.005,ImageRatingTask_S2,2021.1.4,MacIntel,58.82352941,,,,,,,,,
,,,,,,,,,,,,0,6,6,6,1,seventh,12,28,female,L,IMT,2021-07-10_08h58.00.005,ImageRatingTask_S2,2021.1.4,MacIntel,58.82352941,,,,,,,,,
,,,,,,,,,,,,0,7,7,7,1,last,12,28,female,L,IMT,2021-07-10_08h58.00.005,ImageRatingTask_S2,2021.1.4,MacIntel,58.82352941,,,,,,,,,
,,,,,,,,,,,,,,,,,,12,28,female,L,IMT,2021-07-10_08h58.00.005,ImageRatingTask_S2,2021.1.4,MacIntel,58.82352941,0,72,72,12,1,DreamStudyImages_rs1000x750g/Food/Objects_031_h.jpg,,,
,,7,1.877,1,0.533,7,2.063,1,1.247,3,18.304,0,0,0,0,1,main,12,28,female,L,IMT,2021-07-10_08h58.00.005,ImageRatingTask_S2,2021.1.4,MacIntel,58.82352941,,,,,,,,,
,,,,,,,,,,,,0,1,1,1,1,second,12,28,female,L,IMT,2021-07-10_08h58.00.005,ImageRatingTask_S2,2021.1.4,MacIntel,58.82352941,,,,,,,,,
,,,,,,,,,,,,0,2,2,2,1,third,12,28,female,L,IMT,2021-07-10_08h58.00.005,ImageRatingTask_S2,2021.1.4,MacIntel,58.82352941,,,,,,,,,
,,,,,,,,,,,,0,3,3,3,1,fourth,12,28,female,L,IMT,2021-07-10_08h58.00.005,ImageRatingTask_S2,2021.1.4,MacIntel,58.82352941,,,,,,,,,
,,,,,,,,,,,,0,4,4,4,1,fifth,12,28,female,L,IMT,2021-07-10_08h58.00.005,ImageRatingTask_S2,2021.1.4,MacIntel,58.82352941,,,,,,,,,
,,,,,,,,,,,,0,5,5,5,1,sixth,12,28,female,L,IMT,2021-07-10_08h58.00.005,ImageRatingTask_S2,2021.1.4,MacIntel,58.82352941,,,,,,,,,
,,,,,,,,,,,,0,6,6,6,1,seventh,12,28,female,L,IMT,2021-07-10_08h58.00.005,ImageRatingTask_S2,2021.1.4,MacIntel,58.82352941,,,,,,,,,
,,,,,,,,,,,,0,7,7,7,1,last,12,28,female,L,IMT,2021-07-10_08h58.00.005,ImageRatingTask_S2,2021.1.4,MacIntel,58.82352941,,,,,,,,,
,,,,,,,,,,,,,,,,,,12,28,female,L,IMT,2021-07-10_08h58.00.005,ImageRatingTask_S2,2021.1.4,MacIntel,58.82352941,0,73,73,5,1,DreamStudyImages_rs1000x750g/Mammals/Lion 4.jpg,,,
,,5,11.989,1,0.395,7,1.397,1,0.964,5,0.344,0,0,0,0,1,main,12,28,female,L,IMT,2021-07-10_08h58.00.005,ImageRatingTask_S2,2021.1.4,MacIntel,58.82352941,,,,,,,,,
,,,,,,,,,,,,0,1,1,1,1,second,12,28,female,L,IMT,2021-07-10_08h58.00.005,ImageRatingTask_S2,2021.1.4,MacIntel,58.82352941,,,,,,,,,
,,,,,,,,,,,,0,2,2,2,1,third,12,28,female,L,IMT,2021-07-10_08h58.00.005,ImageRatingTask_S2,2021.1.4,MacIntel,58.82352941,,,,,,,,,
,,,,,,,,,,,,0,3,3,3,1,fourth,12,28,female,L,IMT,2021-07-10_08h58.00.005,ImageRatingTask_S2,2021.1.4,MacIntel,58.82352941,,,,,,,,,
,,,,,,,,,,,,0,4,4,4,1,fifth,12,28,female,L,IMT,2021-07-10_08h58.00.005,ImageRatingTask_S2,2021.1.4,MacIntel,58.82352941,,,,,,,,,
,,,,,,,,,,,,0,5,5,5,1,sixth,12,28,female,L,IMT,2021-07-10_08h58.00.005,ImageRatingTask_S2,2021.1.4,MacIntel,58.82352941,,,,,,,,,
,,,,,,,,,,,,0,6,6,6,1,seventh,12,28,female,L,IMT,2021-07-10_08h58.00.005,ImageRatingTask_S2,2021.1.4,MacIntel,58.82352941,,,,,,,,,
,,,,,,,,,,,,0,7,7,7,1,last,12,28,female,L,IMT,2021-07-10_08h58.00.005,ImageRatingTask_S2,2021.1.4,MacIntel,58.82352941,,,,,,,,,
,,,,,,,,,,,,,,,,,,12,28,female,L,IMT,2021-07-10_08h58.00.005,ImageRatingTask_S2,2021.1.4,MacIntel,58.82352941,0,74,74,137,1,DreamStudyImages_rs1000x750g/Food/Objects_017_v.jpg,,,
,,5,1.856,1,0.957,4,2.48,0,3.987,,,0,0,0,0,1,main,12,28,female,L,IMT,2021-07-10_08h58.00.005,ImageRatingTask_S2,2021.1.4,MacIntel,58.82352941,,,,,,,,,
,,,,,,,,,,,,0,1,1,1,1,second,12,28,female,L,IMT,2021-07-10_08h58.00.005,ImageRatingTask_S2,2021.1.4,MacIntel,58.82352941,,,,,,,,,
,,,,,,,,,,,,0,2,2,2,1,third,12,28,female,L,IMT,2021-07-10_08h58.00.005,ImageRatingTask_S2,2021.1.4,MacIntel,58.82352941,,,,,,,,,
,,,,,,,,,,,,0,3,3,3,1,fourth,12,28,female,L,IMT,2021-07-10_08h58.00.005,ImageRatingTask_S2,2021.1.4,MacIntel,58.82352941,,,,,,,,,
,,,,,,,,,,,,0,4,4,4,1,fifth,12,28,female,L,IMT,2021-07-10_08h58.00.005,ImageRatingTask_S2,2021.1.4,MacIntel,58.82352941,,,,,,,,,
,,,,,,,,,,,,0,5,5,5,1,sixth,12,28,female,L,IMT,2021-07-10_08h58.00.005,ImageRatingTask_S2,2021.1.4,MacIntel,58.82352941,,,,,,,,,
,,,,,,,,,,,,0,6,6,6,1,seventh,12,28,female,L,IMT,2021-07-10_08h58.00.005,ImageRatingTask_S2,2021.1.4,MacIntel,58.82352941,,,,,,,,,
,,,,,,,,,,,,0,7,7,7,1,last,12,28,female,L,IMT,2021-07-10_08h58.00.005,ImageRatingTask_S2,2021.1.4,MacIntel,58.82352941,,,,,,,,,
,,,,,,,,,,,,,,,,,,12,28,female,L,IMT,2021-07-10_08h58.00.005,ImageRatingTask_S2,2021.1.4,MacIntel,58.82352941,0,75,75,90,1,DreamStudyImages_rs1000x750g/Water/IAPS5220_tropicalbridge_CHECK.jpg,,,
,,5,1.912,1,0.446,6,1.515,1,3.83,6,1.003,0,0,0,0,1,main,12,28,female,L,IMT,2021-07-10_08h58.00.005,ImageRatingTask_S2,2021.1.4,MacIntel,58.82352941,,,,,,,,,
,,,,,,,,,,,,0,1,1,1,1,second,12,28,female,L,IMT,2021-07-10_08h58.00.005,ImageRatingTask_S2,2021.1.4,MacIntel,58.82352941,,,,,,,,,
,,,,,,,,,,,,0,2,2,2,1,third,12,28,female,L,IMT,2021-07-10_08h58.00.005,ImageRatingTask_S2,2021.1.4,MacIntel,58.82352941,,,,,,,,,
,,,,,,,,,,,,0,3,3,3,1,fourth,12,28,female,L,IMT,2021-07-10_08h58.00.005,ImageRatingTask_S2,2021.1.4,MacIntel,58.82352941,,,,,,,,,
,,,,,,,,,,,,0,4,4,4,1,fifth,12,28,female,L,IMT,2021-07-10_08h58.00.005,ImageRatingTask_S2,2021.1.4,MacIntel,58.82352941,,,,,,,,,
,,,,,,,,,,,,0,5,5,5,1,sixth,12,28,female,L,IMT,2021-07-10_08h58.00.005,ImageRatingTask_S2,2021.1.4,MacIntel,58.82352941,,,,,,,,,
,,,,,,,,,,,,0,6,6,6,1,seventh,12,28,female,L,IMT,2021-07-10_08h58.00.005,ImageRatingTask_S2,2021.1.4,MacIntel,58.82352941,,,,,,,,,
,,,,,,,,,,,,0,7,7,7,1,last,12,28,female,L,IMT,2021-07-10_08h58.00.005,ImageRatingTask_S2,2021.1.4,MacIntel,58.82352941,,,,,,,,,
,,,,,,,,,,,,,,,,,,12,28,female,L,IMT,2021-07-10_08h58.00.005,ImageRatingTask_S2,2021.1.4,MacIntel,58.82352941,0,76,76,8,1,DreamStudyImages_rs1000x750g/Houses/Graveyard 4.jpg,,,
,,7,1.802,3,1.423,8,2.296,1,1.174,8,0.461,0,0,0,0,1,main,12,28,female,L,IMT,2021-07-10_08h58.00.005,ImageRatingTask_S2,2021.1.4,MacIntel,58.82352941,,,,,,,,,
,,,,,,,,,,,,0,1,1,1,1,second,12,28,female,L,IMT,2021-07-10_08h58.00.005,ImageRatingTask_S2,2021.1.4,MacIntel,58.82352941,,,,,,,,,
,,,,,,,,,,,,0,2,2,2,1,third,12,28,female,L,IMT,2021-07-10_08h58.00.005,ImageRatingTask_S2,2021.1.4,MacIntel,58.82352941,,,,,,,,,
,,,,,,,,,,,,0,3,3,3,1,fourth,12,28,female,L,IMT,2021-07-10_08h58.00.005,ImageRatingTask_S2,2021.1.4,MacIntel,58.82352941,,,,,,,,,
,,,,,,,,,,,,0,4,4,4,1,fifth,12,28,female,L,IMT,2021-07-10_08h58.00.005,ImageRatingTask_S2,2021.1.4,MacIntel,58.82352941,,,,,,,,,
,,,,,,,,,,,,0,5,5,5,1,sixth,12,28,female,L,IMT,2021-07-10_08h58.00.005,ImageRatingTask_S2,2021.1.4,MacIntel,58.82352941,,,,,,,,,
,,,,,,,,,,,,0,6,6,6,1,seventh,12,28,female,L,IMT,2021-07-10_08h58.00.005,ImageRatingTask_S2,2021.1.4,MacIntel,58.82352941,,,,,,,,,
,,,,,,,,,,,,0,7,7,7,1,last,12,28,female,L,IMT,2021-07-10_08h58.00.005,ImageRatingTask_S2,2021.1.4,MacIntel,58.82352941,,,,,,,,,
,,,,,,,,,,,,,,,,,,12,28,female,L,IMT,2021-07-10_08h58.00.005,ImageRatingTask_S2,2021.1.4,MacIntel,58.82352941,0,77,77,43,1,DreamStudyImages_rs1000x750g/Water/NDPS122_bluelake.jpg,,,
,,3,2.689,2,0.666,6,2.398,1,1.046,7,0.901,0,0,0,0,1,main,12,28,female,L,IMT,2021-07-10_08h58.00.005,ImageRatingTask_S2,2021.1.4,MacIntel,58.82352941,,,,,,,,,
,,,,,,,,,,,,0,1,1,1,1,second,12,28,female,L,IMT,2021-07-10_08h58.00.005,ImageRatingTask_S2,2021.1.4,MacIntel,58.82352941,,,,,,,,,
,,,,,,,,,,,,0,2,2,2,1,third,12,28,female,L,IMT,2021-07-10_08h58.00.005,ImageRatingTask_S2,2021.1.4,MacIntel,58.82352941,,,,,,,,,
,,,,,,,,,,,,0,3,3,3,1,fourth,12,28,female,L,IMT,2021-07-10_08h58.00.005,ImageRatingTask_S2,2021.1.4,MacIntel,58.82352941,,,,,,,,,
,,,,,,,,,,,,0,4,4,4,1,fifth,12,28,female,L,IMT,2021-07-10_08h58.00.005,ImageRatingTask_S2,2021.1.4,MacIntel,58.82352941,,,,,,,,,
,,,,,,,,,,,,0,5,5,5,1,sixth,12,28,female,L,IMT,2021-07-10_08h58.00.005,ImageRatingTask_S2,2021.1.4,MacIntel,58.82352941,,,,,,,,,
,,,,,,,,,,,,0,6,6,6,1,seventh,12,28,female,L,IMT,2021-07-10_08h58.00.005,ImageRatingTask_S2,2021.1.4,MacIntel,58.82352941,,,,,,,,,
,,,,,,,,,,,,0,7,7,7,1,last,12,28,female,L,IMT,2021-07-10_08h58.00.005,ImageRatingTask_S2,2021.1.4,MacIntel,58.82352941,,,,,,,,,
,,,,,,,,,,,,,,,,,,12,28,female,L,IMT,2021-07-10_08h58.00.005,ImageRatingTask_S2,2021.1.4,MacIntel,58.82352941,0,78,78,141,1,DreamStudyImages_rs1000x750g/Vehicles/9611.jpg,,,
,,4,2.048,1,0.557,1,0.459,1,2.73,6,1.288,0,0,0,0,1,main,12,28,female,L,IMT,2021-07-10_08h58.00.005,ImageRatingTask_S2,2021.1.4,MacIntel,58.82352941,,,,,,,,,
,,,,,,,,,,,,0,1,1,1,1,second,12,28,female,L,IMT,2021-07-10_08h58.00.005,ImageRatingTask_S2,2021.1.4,MacIntel,58.82352941,,,,,,,,,
,,,,,,,,,,,,0,2,2,2,1,third,12,28,female,L,IMT,2021-07-10_08h58.00.005,ImageRatingTask_S2,2021.1.4,MacIntel,58.82352941,,,,,,,,,
,,,,,,,,,,,,0,3,3,3,1,fourth,12,28,female,L,IMT,2021-07-10_08h58.00.005,ImageRatingTask_S2,2021.1.4,MacIntel,58.82352941,,,,,,,,,
,,,,,,,,,,,,0,4,4,4,1,fifth,12,28,female,L,IMT,2021-07-10_08h58.00.005,ImageRatingTask_S2,2021.1.4,MacIntel,58.82352941,,,,,,,,,
,,,,,,,,,,,,0,5,5,5,1,sixth,12,28,female,L,IMT,2021-07-10_08h58.00.005,ImageRatingTask_S2,2021.1.4,MacIntel,58.82352941,,,,,,,,,
,,,,,,,,,,,,0,6,6,6,1,seventh,12,28,female,L,IMT,2021-07-10_08h58.00.005,ImageRatingTask_S2,2021.1.4,MacIntel,58.82352941,,,,,,,,,
,,,,,,,,,,,,0,7,7,7,1,last,12,28,female,L,IMT,2021-07-10_08h58.00.005,ImageRatingTask_S2,2021.1.4,MacIntel,58.82352941,,,,,,,,,
