slider_pre.response,slider_pre.rt,key_val.keys,key_val.rt,key_aro.keys,key_aro.rt,key_qual.keys,key_qual.rt,key_ncat.keys,key_ncat.rt,key_cats.keys,key_cats.rt,ncat_order.thisRepN,ncat_order.thisTrialN,ncat_order.thisN,ncat_order.thisIndex,ncat_order.ran,cond_cat,participant,age,gender,handedness (L/R),site (IMT/Donders),date,expName,psychopyVersion,OS,frameRate,img_trials.thisRepN,img_trials.thisTrialN,img_trials.thisN,img_trials.thisIndex,img_trials.ran,filename,slider_post.response,slider_post.rt,key_fb.keys,key_fb.rt,fb.thisRepN,fb.thisTrialN,fb.thisN,fb.thisIndex,fb.ran,fb_qst,textbox_openfb.text
6,2.519,5,1.847,1,0.392,5,1.226,1,0.788,3,0.927,0,0,0,0,1,main,12,28,female,L,IMT,2021-07-15_13h06.22.007,ImageRatingTask_S5,2021.1.4,MacIntel,52.63157895,,,,,,,,,,,,,,,,,
,,,,,,,,,,,,0,1,1,1,1,second,12,28,female,L,IMT,2021-07-15_13h06.22.007,ImageRatingTask_S5,2021.1.4,MacIntel,52.63157895,,,,,,,,,,,,,,,,,
,,,,,,,,,,,,0,2,2,2,1,third,12,28,female,L,IMT,2021-07-15_13h06.22.007,ImageRatingTask_S5,2021.1.4,MacIntel,52.63157895,,,,,,,,,,,,,,,,,
,,,,,,,,,,,,0,3,3,3,1,fourth,12,28,female,L,IMT,2021-07-15_13h06.22.007,ImageRatingTask_S5,2021.1.4,MacIntel,52.63157895,,,,,,,,,,,,,,,,,
,,,,,,,,,,,,0,4,4,4,1,fifth,12,28,female,L,IMT,2021-07-15_13h06.22.007,ImageRatingTask_S5,2021.1.4,MacIntel,52.63157895,,,,,,,,,,,,,,,,,
,,,,,,,,,,,,0,5,5,5,1,sixth,12,28,female,L,IMT,2021-07-15_13h06.22.007,ImageRatingTask_S5,2021.1.4,MacIntel,52.63157895,,,,,,,,,,,,,,,,,
,,,,,,,,,,,,0,6,6,6,1,seventh,12,28,female,L,IMT,2021-07-15_13h06.22.007,ImageRatingTask_S5,2021.1.4,MacIntel,52.63157895,,,,,,,,,,,,,,,,,
,,,,,,,,,,,,0,7,7,7,1,last,12,28,female,L,IMT,2021-07-15_13h06.22.007,ImageRatingTask_S5,2021.1.4,MacIntel,52.63157895,,,,,,,,,,,,,,,,,
,,,,,,,,,,,,,,,,,,12,28,female,L,IMT,2021-07-15_13h06.22.007,ImageRatingTask_S5,2021.1.4,MacIntel,52.63157895,0,0,0,53,1,DreamStudyImages_rs1000x750g/Mammals/IAPS1600_horse3.jpg,,,,,,,,,,,
,,4,7.425,1,0.363,4,1.58,1,0.701,7,1.303,0,0,0,0,1,main,12,28,female,L,IMT,2021-07-15_13h06.22.007,ImageRatingTask_S5,2021.1.4,MacIntel,52.63157895,,,,,,,,,,,,,,,,,
,,,,,,,,,,,,0,1,1,1,1,second,12,28,female,L,IMT,2021-07-15_13h06.22.007,ImageRatingTask_S5,2021.1.4,MacIntel,52.63157895,,,,,,,,,,,,,,,,,
,,,,,,,,,,,,0,2,2,2,1,third,12,28,female,L,IMT,2021-07-15_13h06.22.007,ImageRatingTask_S5,2021.1.4,MacIntel,52.63157895,,,,,,,,,,,,,,,,,
,,,,,,,,,,,,0,3,3,3,1,fourth,12,28,female,L,IMT,2021-07-15_13h06.22.007,ImageRatingTask_S5,2021.1.4,MacIntel,52.63157895,,,,,,,,,,,,,,,,,
,,,,,,,,,,,,0,4,4,4,1,fifth,12,28,female,L,IMT,2021-07-15_13h06.22.007,ImageRatingTask_S5,2021.1.4,MacIntel,52.63157895,,,,,,,,,,,,,,,,,
,,,,,,,,,,,,0,5,5,5,1,sixth,12,28,female,L,IMT,2021-07-15_13h06.22.007,ImageRatingTask_S5,2021.1.4,MacIntel,52.63157895,,,,,,,,,,,,,,,,,
,,,,,,,,,,,,0,6,6,6,1,seventh,12,28,female,L,IMT,2021-07-15_13h06.22.007,ImageRatingTask_S5,2021.1.4,MacIntel,52.63157895,,,,,,,,,,,,,,,,,
,,,,,,,,,,,,0,7,7,7,1,last,12,28,female,L,IMT,2021-07-15_13h06.22.007,ImageRatingTask_S5,2021.1.4,MacIntel,52.63157895,,,,,,,,,,,,,,,,,
,,,,,,,,,,,,,,,,,,12,28,female,L,IMT,2021-07-15_13h06.22.007,ImageRatingTask_S5,2021.1.4,MacIntel,52.63157895,0,1,1,84,1,DreamStudyImages_rs1000x750g/Vehicles/Destruction 10.jpg,,,,,,,,,,,
,,4,2.381,1,0.783,6,1.528,0,2.968,,,0,0,0,0,1,main,12,28,female,L,IMT,2021-07-15_13h06.22.007,ImageRatingTask_S5,2021.1.4,MacIntel,52.63157895,,,,,,,,,,,,,,,,,
,,,,,,,,,,,,0,1,1,1,1,second,12,28,female,L,IMT,2021-07-15_13h06.22.007,ImageRatingTask_S5,2021.1.4,MacIntel,52.63157895,,,,,,,,,,,,,,,,,
,,,,,,,,,,,,0,2,2,2,1,third,12,28,female,L,IMT,2021-07-15_13h06.22.007,ImageRatingTask_S5,2021.1.4,MacIntel,52.63157895,,,,,,,,,,,,,,,,,
,,,,,,,,,,,,0,3,3,3,1,fourth,12,28,female,L,IMT,2021-07-15_13h06.22.007,ImageRatingTask_S5,2021.1.4,MacIntel,52.63157895,,,,,,,,,,,,,,,,,
,,,,,,,,,,,,0,4,4,4,1,fifth,12,28,female,L,IMT,2021-07-15_13h06.22.007,ImageRatingTask_S5,2021.1.4,MacIntel,52.63157895,,,,,,,,,,,,,,,,,
,,,,,,,,,,,,0,5,5,5,1,sixth,12,28,female,L,IMT,2021-07-15_13h06.22.007,ImageRatingTask_S5,2021.1.4,MacIntel,52.63157895,,,,,,,,,,,,,,,,,
,,,,,,,,,,,,0,6,6,6,1,seventh,12,28,female,L,IMT,2021-07-15_13h06.22.007,ImageRatingTask_S5,2021.1.4,MacIntel,52.63157895,,,,,,,,,,,,,,,,,
,,,,,,,,,,,,0,7,7,7,1,last,12,28,female,L,IMT,2021-07-15_13h06.22.007,ImageRatingTask_S5,2021.1.4,MacIntel,52.63157895,,,,,,,,,,,,,,,,,
,,,,,,,,,,,,,,,,,,12,28,female,L,IMT,2021-07-15_13h06.22.007,ImageRatingTask_S5,2021.1.4,MacIntel,52.63157895,0,2,2,97,1,DreamStudyImages_rs1000x750g/Water/Objects_140_h.jpg,,,,,,,,,,,
,,7,2.065,2,0.628,6,2.019,1,0.915,3,0.504,0,0,0,0,1,main,12,28,female,L,IMT,2021-07-15_13h06.22.007,ImageRatingTask_S5,2021.1.4,MacIntel,52.63157895,,,,,,,,,,,,,,,,,
,,,,,,,,,,,,0,1,1,1,1,second,12,28,female,L,IMT,2021-07-15_13h06.22.007,ImageRatingTask_S5,2021.1.4,MacIntel,52.63157895,,,,,,,,,,,,,,,,,
,,,,,,,,,,,,0,2,2,2,1,third,12,28,female,L,IMT,2021-07-15_13h06.22.007,ImageRatingTask_S5,2021.1.4,MacIntel,52.63157895,,,,,,,,,,,,,,,,,
,,,,,,,,,,,,0,3,3,3,1,fourth,12,28,female,L,IMT,2021-07-15_13h06.22.007,ImageRatingTask_S5,2021.1.4,MacIntel,52.63157895,,,,,,,,,,,,,,,,,
,,,,,,,,,,,,0,4,4,4,1,fifth,12,28,female,L,IMT,2021-07-15_13h06.22.007,ImageRatingTask_S5,2021.1.4,MacIntel,52.63157895,,,,,,,,,,,,,,,,,
,,,,,,,,,,,,0,5,5,5,1,sixth,12,28,female,L,IMT,2021-07-15_13h06.22.007,ImageRatingTask_S5,2021.1.4,MacIntel,52.63157895,,,,,,,,,,,,,,,,,
,,,,,,,,,,,,0,6,6,6,1,seventh,12,28,female,L,IMT,2021-07-15_13h06.22.007,ImageRatingTask_S5,2021.1.4,MacIntel,52.63157895,,,,,,,,,,,,,,,,,
,,,,,,,,,,,,0,7,7,7,1,last,12,28,female,L,IMT,2021-07-15_13h06.22.007,ImageRatingTask_S5,2021.1.4,MacIntel,52.63157895,,,,,,,,,,,,,,,,,
,,,,,,,,,,,,,,,,,,12,28,female,L,IMT,2021-07-15_13h06.22.007,ImageRatingTask_S5,2021.1.4,MacIntel,52.63157895,0,3,3,21,1,DreamStudyImages_rs1000x750g/Mammals/Animals_164_h.jpg,,,,,,,,,,,
,,4,4.179,1,0.738,6,1.481,1,0.616,6,0.719,0,0,0,0,1,main,12,28,female,L,IMT,2021-07-15_13h06.22.007,ImageRatingTask_S5,2021.1.4,MacIntel,52.63157895,,,,,,,,,,,,,,,,,
,,,,,,,,,,,,0,1,1,1,1,second,12,28,female,L,IMT,2021-07-15_13h06.22.007,ImageRatingTask_S5,2021.1.4,MacIntel,52.63157895,,,,,,,,,,,,,,,,,
,,,,,,,,,,,,0,2,2,2,1,third,12,28,female,L,IMT,2021-07-15_13h06.22.007,ImageRatingTask_S5,2021.1.4,MacIntel,52.63157895,,,,,,,,,,,,,,,,,
,,,,,,,,,,,,0,3,3,3,1,fourth,12,28,female,L,IMT,2021-07-15_13h06.22.007,ImageRatingTask_S5,2021.1.4,MacIntel,52.63157895,,,,,,,,,,,,,,,,,
,,,,,,,,,,,,0,4,4,4,1,fifth,12,28,female,L,IMT,2021-07-15_13h06.22.007,ImageRatingTask_S5,2021.1.4,MacIntel,52.63157895,,,,,,,,,,,,,,,,,
,,,,,,,,,,,,0,5,5,5,1,sixth,12,28,female,L,IMT,2021-07-15_13h06.22.007,ImageRatingTask_S5,2021.1.4,MacIntel,52.63157895,,,,,,,,,,,,,,,,,
,,,,,,,,,,,,0,6,6,6,1,seventh,12,28,female,L,IMT,2021-07-15_13h06.22.007,ImageRatingTask_S5,2021.1.4,MacIntel,52.63157895,,,,,,,,,,,,,,,,,
,,,,,,,,,,,,0,7,7,7,1,last,12,28,female,L,IMT,2021-07-15_13h06.22.007,ImageRatingTask_S5,2021.1.4,MacIntel,52.63157895,,,,,,,,,,,,,,,,,
,,,,,,,,,,,,,,,,,,12,28,female,L,IMT,2021-07-15_13h06.22.007,ImageRatingTask_S5,2021.1.4,MacIntel,52.63157895,0,4,4,32,1,DreamStudyImages_rs1000x750g/Houses/Landscapes_068_h.jpg,,,,,,,,,,,
,,7,8.966,2,0.927,7,1.247,1,0.795,3,0.375,0,0,0,0,1,main,12,28,female,L,IMT,2021-07-15_13h06.22.007,ImageRatingTask_S5,2021.1.4,MacIntel,52.63157895,,,,,,,,,,,,,,,,,
,,,,,,,,,,,,0,1,1,1,1,second,12,28,female,L,IMT,2021-07-15_13h06.22.007,ImageRatingTask_S5,2021.1.4,MacIntel,52.63157895,,,,,,,,,,,,,,,,,
,,,,,,,,,,,,0,2,2,2,1,third,12,28,female,L,IMT,2021-07-15_13h06.22.007,ImageRatingTask_S5,2021.1.4,MacIntel,52.63157895,,,,,,,,,,,,,,,,,
,,,,,,,,,,,,0,3,3,3,1,fourth,12,28,female,L,IMT,2021-07-15_13h06.22.007,ImageRatingTask_S5,2021.1.4,MacIntel,52.63157895,,,,,,,,,,,,,,,,,
,,,,,,,,,,,,0,4,4,4,1,fifth,12,28,female,L,IMT,2021-07-15_13h06.22.007,ImageRatingTask_S5,2021.1.4,MacIntel,52.63157895,,,,,,,,,,,,,,,,,
,,,,,,,,,,,,0,5,5,5,1,sixth,12,28,female,L,IMT,2021-07-15_13h06.22.007,ImageRatingTask_S5,2021.1.4,MacIntel,52.63157895,,,,,,,,,,,,,,,,,
,,,,,,,,,,,,0,6,6,6,1,seventh,12,28,female,L,IMT,2021-07-15_13h06.22.007,ImageRatingTask_S5,2021.1.4,MacIntel,52.63157895,,,,,,,,,,,,,,,,,
,,,,,,,,,,,,0,7,7,7,1,last,12,28,female,L,IMT,2021-07-15_13h06.22.007,ImageRatingTask_S5,2021.1.4,MacIntel,52.63157895,,,,,,,,,,,,,,,,,
,,,,,,,,,,,,,,,,,,12,28,female,L,IMT,2021-07-15_13h06.22.007,ImageRatingTask_S5,2021.1.4,MacIntel,52.63157895,0,5,5,138,1,DreamStudyImages_rs1000x750g/Mammals/Animals_199_h.jpg,,,,,,,,,,,
,,5,1.411,1,0.414,5,1.261,1,0.818,6,1.014,0,0,0,0,1,main,12,28,female,L,IMT,2021-07-15_13h06.22.007,ImageRatingTask_S5,2021.1.4,MacIntel,52.63157895,,,,,,,,,,,,,,,,,
,,,,,,,,,,,,0,1,1,1,1,second,12,28,female,L,IMT,2021-07-15_13h06.22.007,ImageRatingTask_S5,2021.1.4,MacIntel,52.63157895,,,,,,,,,,,,,,,,,
,,,,,,,,,,,,0,2,2,2,1,third,12,28,female,L,IMT,2021-07-15_13h06.22.007,ImageRatingTask_S5,2021.1.4,MacIntel,52.63157895,,,,,,,,,,,,,,,,,
,,,,,,,,,,,,0,3,3,3,1,fourth,12,28,female,L,IMT,2021-07-15_13h06.22.007,ImageRatingTask_S5,2021.1.4,MacIntel,52.63157895,,,,,,,,,,,,,,,,,
,,,,,,,,,,,,0,4,4,4,1,fifth,12,28,female,L,IMT,2021-07-15_13h06.22.007,ImageRatingTask_S5,2021.1.4,MacIntel,52.63157895,,,,,,,,,,,,,,,,,
,,,,,,,,,,,,0,5,5,5,1,sixth,12,28,female,L,IMT,2021-07-15_13h06.22.007,ImageRatingTask_S5,2021.1.4,MacIntel,52.63157895,,,,,,,,,,,,,,,,,
,,,,,,,,,,,,0,6,6,6,1,seventh,12,28,female,L,IMT,2021-07-15_13h06.22.007,ImageRatingTask_S5,2021.1.4,MacIntel,52.63157895,,,,,,,,,,,,,,,,,
,,,,,,,,,,,,0,7,7,7,1,last,12,28,female,L,IMT,2021-07-15_13h06.22.007,ImageRatingTask_S5,2021.1.4,MacIntel,52.63157895,,,,,,,,,,,,,,,,,
,,,,,,,,,,,,,,,,,,12,28,female,L,IMT,2021-07-15_13h06.22.007,ImageRatingTask_S5,2021.1.4,MacIntel,52.63157895,0,6,6,73,1,DreamStudyImages_rs1000x750g/Houses/Pollution 1.jpg,,,,,,,,,,,
,,6,1.258,2,2.23,6,1.903,2,3.483,8,1.482,0,0,0,0,1,main,12,28,female,L,IMT,2021-07-15_13h06.22.007,ImageRatingTask_S5,2021.1.4,MacIntel,52.63157895,,,,,,,,,,,,,,,,,
,,,,,,,,,,1,0.784,0,1,1,1,1,second,12,28,female,L,IMT,2021-07-15_13h06.22.007,ImageRatingTask_S5,2021.1.4,MacIntel,52.63157895,,,,,,,,,,,,,,,,,
,,,,,,,,,,,,0,2,2,2,1,third,12,28,female,L,IMT,2021-07-15_13h06.22.007,ImageRatingTask_S5,2021.1.4,MacIntel,52.63157895,,,,,,,,,,,,,,,,,
,,,,,,,,,,,,0,3,3,3,1,fourth,12,28,female,L,IMT,2021-07-15_13h06.22.007,ImageRatingTask_S5,2021.1.4,MacIntel,52.63157895,,,,,,,,,,,,,,,,,
,,,,,,,,,,,,0,4,4,4,1,fifth,12,28,female,L,IMT,2021-07-15_13h06.22.007,ImageRatingTask_S5,2021.1.4,MacIntel,52.63157895,,,,,,,,,,,,,,,,,
,,,,,,,,,,,,0,5,5,5,1,sixth,12,28,female,L,IMT,2021-07-15_13h06.22.007,ImageRatingTask_S5,2021.1.4,MacIntel,52.63157895,,,,,,,,,,,,,,,,,
,,,,,,,,,,,,0,6,6,6,1,seventh,12,28,female,L,IMT,2021-07-15_13h06.22.007,ImageRatingTask_S5,2021.1.4,MacIntel,52.63157895,,,,,,,,,,,,,,,,,
,,,,,,,,,,,,0,7,7,7,1,last,12,28,female,L,IMT,2021-07-15_13h06.22.007,ImageRatingTask_S5,2021.1.4,MacIntel,52.63157895,,,,,,,,,,,,,,,,,
,,,,,,,,,,,,,,,,,,12,28,female,L,IMT,2021-07-15_13h06.22.007,ImageRatingTask_S5,2021.1.4,MacIntel,52.63157895,0,7,7,145,1,DreamStudyImages_rs1000x750g/Water/5833.jpg,,,,,,,,,,,
,,5,1.277,1,0.618,7,1.282,1,0.833,2,0.24,0,0,0,0,1,main,12,28,female,L,IMT,2021-07-15_13h06.22.007,ImageRatingTask_S5,2021.1.4,MacIntel,52.63157895,,,,,,,,,,,,,,,,,
,,,,,,,,,,,,0,1,1,1,1,second,12,28,female,L,IMT,2021-07-15_13h06.22.007,ImageRatingTask_S5,2021.1.4,MacIntel,52.63157895,,,,,,,,,,,,,,,,,
,,,,,,,,,,,,0,2,2,2,1,third,12,28,female,L,IMT,2021-07-15_13h06.22.007,ImageRatingTask_S5,2021.1.4,MacIntel,52.63157895,,,,,,,,,,,,,,,,,
,,,,,,,,,,,,0,3,3,3,1,fourth,12,28,female,L,IMT,2021-07-15_13h06.22.007,ImageRatingTask_S5,2021.1.4,MacIntel,52.63157895,,,,,,,,,,,,,,,,,
,,,,,,,,,,,,0,4,4,4,1,fifth,12,28,female,L,IMT,2021-07-15_13h06.22.007,ImageRatingTask_S5,2021.1.4,MacIntel,52.63157895,,,,,,,,,,,,,,,,,
,,,,,,,,,,,,0,5,5,5,1,sixth,12,28,female,L,IMT,2021-07-15_13h06.22.007,ImageRatingTask_S5,2021.1.4,MacIntel,52.63157895,,,,,,,,,,,,,,,,,
,,,,,,,,,,,,0,6,6,6,1,seventh,12,28,female,L,IMT,2021-07-15_13h06.22.007,ImageRatingTask_S5,2021.1.4,MacIntel,52.63157895,,,,,,,,,,,,,,,,,
,,,,,,,,,,,,0,7,7,7,1,last,12,28,female,L,IMT,2021-07-15_13h06.22.007,ImageRatingTask_S5,2021.1.4,MacIntel,52.63157895,,,,,,,,,,,,,,,,,
,,,,,,,,,,,,,,,,,,12,28,female,L,IMT,2021-07-15_13h06.22.007,ImageRatingTask_S5,2021.1.4,MacIntel,52.63157895,0,8,8,139,1,DreamStudyImages_rs1000x750g/Children/Sad face 1.jpg,,,,,,,,,,,
,,5,8.915,1,0.317,5,1.191,1,0.652,7,0.425,0,0,0,0,1,main,12,28,female,L,IMT,2021-07-15_13h06.22.007,ImageRatingTask_S5,2021.1.4,MacIntel,52.63157895,,,,,,,,,,,,,,,,,
,,,,,,,,,,,,0,1,1,1,1,second,12,28,female,L,IMT,2021-07-15_13h06.22.007,ImageRatingTask_S5,2021.1.4,MacIntel,52.63157895,,,,,,,,,,,,,,,,,
,,,,,,,,,,,,0,2,2,2,1,third,12,28,female,L,IMT,2021-07-15_13h06.22.007,ImageRatingTask_S5,2021.1.4,MacIntel,52.63157895,,,,,,,,,,,,,,,,,
,,,,,,,,,,,,0,3,3,3,1,fourth,12,28,female,L,IMT,2021-07-15_13h06.22.007,ImageRatingTask_S5,2021.1.4,MacIntel,52.63157895,,,,,,,,,,,,,,,,,
,,,,,,,,,,,,0,4,4,4,1,fifth,12,28,female,L,IMT,2021-07-15_13h06.22.007,ImageRatingTask_S5,2021.1.4,MacIntel,52.63157895,,,,,,,,,,,,,,,,,
,,,,,,,,,,,,0,5,5,5,1,sixth,12,28,female,L,IMT,2021-07-15_13h06.22.007,ImageRatingTask_S5,2021.1.4,MacIntel,52.63157895,,,,,,,,,,,,,,,,,
,,,,,,,,,,,,0,6,6,6,1,seventh,12,28,female,L,IMT,2021-07-15_13h06.22.007,ImageRatingTask_S5,2021.1.4,MacIntel,52.63157895,,,,,,,,,,,,,,,,,
,,,,,,,,,,,,0,7,7,7,1,last,12,28,female,L,IMT,2021-07-15_13h06.22.007,ImageRatingTask_S5,2021.1.4,MacIntel,52.63157895,,,,,,,,,,,,,,,,,
,,,,,,,,,,,,,,,,,,12,28,female,L,IMT,2021-07-15_13h06.22.007,ImageRatingTask_S5,2021.1.4,MacIntel,52.63157895,0,9,9,96,1,DreamStudyImages_rs1000x750g/Vehicles/IAPS9912_abandonedcar.jpg,,,,,,,,,,,
,,5,1.012,1,0.379,7,1.232,1,0.652,7,0.625,0,0,0,0,1,main,12,28,female,L,IMT,2021-07-15_13h06.22.007,ImageRatingTask_S5,2021.1.4,MacIntel,52.63157895,,,,,,,,,,,,,,,,,
,,,,,,,,,,,,0,1,1,1,1,second,12,28,female,L,IMT,2021-07-15_13h06.22.007,ImageRatingTask_S5,2021.1.4,MacIntel,52.63157895,,,,,,,,,,,,,,,,,
,,,,,,,,,,,,0,2,2,2,1,third,12,28,female,L,IMT,2021-07-15_13h06.22.007,ImageRatingTask_S5,2021.1.4,MacIntel,52.63157895,,,,,,,,,,,,,,,,,
,,,,,,,,,,,,0,3,3,3,1,fourth,12,28,female,L,IMT,2021-07-15_13h06.22.007,ImageRatingTask_S5,2021.1.4,MacIntel,52.63157895,,,,,,,,,,,,,,,,,
,,,,,,,,,,,,0,4,4,4,1,fifth,12,28,female,L,IMT,2021-07-15_13h06.22.007,ImageRatingTask_S5,2021.1.4,MacIntel,52.63157895,,,,,,,,,,,,,,,,,
,,,,,,,,,,,,0,5,5,5,1,sixth,12,28,female,L,IMT,2021-07-15_13h06.22.007,ImageRatingTask_S5,2021.1.4,MacIntel,52.63157895,,,,,,,,,,,,,,,,,
,,,,,,,,,,,,0,6,6,6,1,seventh,12,28,female,L,IMT,2021-07-15_13h06.22.007,ImageRatingTask_S5,2021.1.4,MacIntel,52.63157895,,,,,,,,,,,,,,,,,
,,,,,,,,,,,,0,7,7,7,1,last,12,28,female,L,IMT,2021-07-15_13h06.22.007,ImageRatingTask_S5,2021.1.4,MacIntel,52.63157895,,,,,,,,,,,,,,,,,
,,,,,,,,,,,,,,,,,,12,28,female,L,IMT,2021-07-15_13h06.22.007,ImageRatingTask_S5,2021.1.4,MacIntel,52.63157895,0,10,10,112,1,DreamStudyImages_rs1000x750g/Vehicles/Objects_304_h.jpg,,,,,,,,,,,
,,7,1.2,3,0.734,7,1.404,1,0.934,8,0.939,0,0,0,0,1,main,12,28,female,L,IMT,2021-07-15_13h06.22.007,ImageRatingTask_S5,2021.1.4,MacIntel,52.63157895,,,,,,,,,,,,,,,,,
,,,,,,,,,,,,0,1,1,1,1,second,12,28,female,L,IMT,2021-07-15_13h06.22.007,ImageRatingTask_S5,2021.1.4,MacIntel,52.63157895,,,,,,,,,,,,,,,,,
,,,,,,,,,,,,0,2,2,2,1,third,12,28,female,L,IMT,2021-07-15_13h06.22.007,ImageRatingTask_S5,2021.1.4,MacIntel,52.63157895,,,,,,,,,,,,,,,,,
,,,,,,,,,,,,0,3,3,3,1,fourth,12,28,female,L,IMT,2021-07-15_13h06.22.007,ImageRatingTask_S5,2021.1.4,MacIntel,52.63157895,,,,,,,,,,,,,,,,,
,,,,,,,,,,,,0,4,4,4,1,fifth,12,28,female,L,IMT,2021-07-15_13h06.22.007,ImageRatingTask_S5,2021.1.4,MacIntel,52.63157895,,,,,,,,,,,,,,,,,
,,,,,,,,,,,,0,5,5,5,1,sixth,12,28,female,L,IMT,2021-07-15_13h06.22.007,ImageRatingTask_S5,2021.1.4,MacIntel,52.63157895,,,,,,,,,,,,,,,,,
,,,,,,,,,,,,0,6,6,6,1,seventh,12,28,female,L,IMT,2021-07-15_13h06.22.007,ImageRatingTask_S5,2021.1.4,MacIntel,52.63157895,,,,,,,,,,,,,,,,,
,,,,,,,,,,,,0,7,7,7,1,last,12,28,female,L,IMT,2021-07-15_13h06.22.007,ImageRatingTask_S5,2021.1.4,MacIntel,52.63157895,,,,,,,,,,,,,,,,,
,,,,,,,,,,,,,,,,,,12,28,female,L,IMT,2021-07-15_13h06.22.007,ImageRatingTask_S5,2021.1.4,MacIntel,52.63157895,0,11,11,79,1,DreamStudyImages_rs1000x750g/Water/Lake 2.jpg,,,,,,,,,,,
,,5,2.044,1,0.465,6,1.705,0,2.763,,,0,0,0,0,1,main,12,28,female,L,IMT,2021-07-15_13h06.22.007,ImageRatingTask_S5,2021.1.4,MacIntel,52.63157895,,,,,,,,,,,,,,,,,
,,,,,,,,,,,,0,1,1,1,1,second,12,28,female,L,IMT,2021-07-15_13h06.22.007,ImageRatingTask_S5,2021.1.4,MacIntel,52.63157895,,,,,,,,,,,,,,,,,
,,,,,,,,,,,,0,2,2,2,1,third,12,28,female,L,IMT,2021-07-15_13h06.22.007,ImageRatingTask_S5,2021.1.4,MacIntel,52.63157895,,,,,,,,,,,,,,,,,
,,,,,,,,,,,,0,3,3,3,1,fourth,12,28,female,L,IMT,2021-07-15_13h06.22.007,ImageRatingTask_S5,2021.1.4,MacIntel,52.63157895,,,,,,,,,,,,,,,,,
,,,,,,,,,,,,0,4,4,4,1,fifth,12,28,female,L,IMT,2021-07-15_13h06.22.007,ImageRatingTask_S5,2021.1.4,MacIntel,52.63157895,,,,,,,,,,,,,,,,,
,,,,,,,,,,,,0,5,5,5,1,sixth,12,28,female,L,IMT,2021-07-15_13h06.22.007,ImageRatingTask_S5,2021.1.4,MacIntel,52.63157895,,,,,,,,,,,,,,,,,
,,,,,,,,,,,,0,6,6,6,1,seventh,12,28,female,L,IMT,2021-07-15_13h06.22.007,ImageRatingTask_S5,2021.1.4,MacIntel,52.63157895,,,,,,,,,,,,,,,,,
,,,,,,,,,,,,0,7,7,7,1,last,12,28,female,L,IMT,2021-07-15_13h06.22.007,ImageRatingTask_S5,2021.1.4,MacIntel,52.63157895,,,,,,,,,,,,,,,,,
,,,,,,,,,,,,,,,,,,12,28,female,L,IMT,2021-07-15_13h06.22.007,ImageRatingTask_S5,2021.1.4,MacIntel,52.63157895,0,12,12,126,1,DreamStudyImages_rs1000x750g/Houses/Objects_180_v.jpg,,,,,,,,,,,
,,6,1.6,1,1.255,7,1.67,1,1.738,6,0.676,0,0,0,0,1,main,12,28,female,L,IMT,2021-07-15_13h06.22.007,ImageRatingTask_S5,2021.1.4,MacIntel,52.63157895,,,,,,,,,,,,,,,,,
,,,,,,,,,,,,0,1,1,1,1,second,12,28,female,L,IMT,2021-07-15_13h06.22.007,ImageRatingTask_S5,2021.1.4,MacIntel,52.63157895,,,,,,,,,,,,,,,,,
,,,,,,,,,,,,0,2,2,2,1,third,12,28,female,L,IMT,2021-07-15_13h06.22.007,ImageRatingTask_S5,2021.1.4,MacIntel,52.63157895,,,,,,,,,,,,,,,,,
,,,,,,,,,,,,0,3,3,3,1,fourth,12,28,female,L,IMT,2021-07-15_13h06.22.007,ImageRatingTask_S5,2021.1.4,MacIntel,52.63157895,,,,,,,,,,,,,,,,,
,,,,,,,,,,,,0,4,4,4,1,fifth,12,28,female,L,IMT,2021-07-15_13h06.22.007,ImageRatingTask_S5,2021.1.4,MacIntel,52.63157895,,,,,,,,,,,,,,,,,
,,,,,,,,,,,,0,5,5,5,1,sixth,12,28,female,L,IMT,2021-07-15_13h06.22.007,ImageRatingTask_S5,2021.1.4,MacIntel,52.63157895,,,,,,,,,,,,,,,,,
,,,,,,,,,,,,0,6,6,6,1,seventh,12,28,female,L,IMT,2021-07-15_13h06.22.007,ImageRatingTask_S5,2021.1.4,MacIntel,52.63157895,,,,,,,,,,,,,,,,,
,,,,,,,,,,,,0,7,7,7,1,last,12,28,female,L,IMT,2021-07-15_13h06.22.007,ImageRatingTask_S5,2021.1.4,MacIntel,52.63157895,,,,,,,,,,,,,,,,,
,,,,,,,,,,,,,,,,,,12,28,female,L,IMT,2021-07-15_13h06.22.007,ImageRatingTask_S5,2021.1.4,MacIntel,52.63157895,0,13,13,33,1,DreamStudyImages_rs1000x750g/Houses/Objects_214_h.jpg,,,,,,,,,,,
,,5,11.144,1,0.381,6,0.929,1,0.846,7,0.433,0,0,0,0,1,main,12,28,female,L,IMT,2021-07-15_13h06.22.007,ImageRatingTask_S5,2021.1.4,MacIntel,52.63157895,,,,,,,,,,,,,,,,,
,,,,,,,,,,,,0,1,1,1,1,second,12,28,female,L,IMT,2021-07-15_13h06.22.007,ImageRatingTask_S5,2021.1.4,MacIntel,52.63157895,,,,,,,,,,,,,,,,,
,,,,,,,,,,,,0,2,2,2,1,third,12,28,female,L,IMT,2021-07-15_13h06.22.007,ImageRatingTask_S5,2021.1.4,MacIntel,52.63157895,,,,,,,,,,,,,,,,,
,,,,,,,,,,,,0,3,3,3,1,fourth,12,28,female,L,IMT,2021-07-15_13h06.22.007,ImageRatingTask_S5,2021.1.4,MacIntel,52.63157895,,,,,,,,,,,,,,,,,
,,,,,,,,,,,,0,4,4,4,1,fifth,12,28,female,L,IMT,2021-07-15_13h06.22.007,ImageRatingTask_S5,2021.1.4,MacIntel,52.63157895,,,,,,,,,,,,,,,,,
,,,,,,,,,,,,0,5,5,5,1,sixth,12,28,female,L,IMT,2021-07-15_13h06.22.007,ImageRatingTask_S5,2021.1.4,MacIntel,52.63157895,,,,,,,,,,,,,,,,,
,,,,,,,,,,,,0,6,6,6,1,seventh,12,28,female,L,IMT,2021-07-15_13h06.22.007,ImageRatingTask_S5,2021.1.4,MacIntel,52.63157895,,,,,,,,,,,,,,,,,
,,,,,,,,,,,,0,7,7,7,1,last,12,28,female,L,IMT,2021-07-15_13h06.22.007,ImageRatingTask_S5,2021.1.4,MacIntel,52.63157895,,,,,,,,,,,,,,,,,
,,,,,,,,,,,,,,,,,,12,28,female,L,IMT,2021-07-15_13h06.22.007,ImageRatingTask_S5,2021.1.4,MacIntel,52.63157895,0,14,14,117,1,DreamStudyImages_rs1000x750g/Vehicles/Objects_293_h.jpg,,,,,,,,,,,
,,6,2.504,1,0.897,4,1.138,1,0.439,2,0.213,0,0,0,0,1,main,12,28,female,L,IMT,2021-07-15_13h06.22.007,ImageRatingTask_S5,2021.1.4,MacIntel,52.63157895,,,,,,,,,,,,,,,,,
,,,,,,,,,,,,0,1,1,1,1,second,12,28,female,L,IMT,2021-07-15_13h06.22.007,ImageRatingTask_S5,2021.1.4,MacIntel,52.63157895,,,,,,,,,,,,,,,,,
,,,,,,,,,,,,0,2,2,2,1,third,12,28,female,L,IMT,2021-07-15_13h06.22.007,ImageRatingTask_S5,2021.1.4,MacIntel,52.63157895,,,,,,,,,,,,,,,,,
,,,,,,,,,,,,0,3,3,3,1,fourth,12,28,female,L,IMT,2021-07-15_13h06.22.007,ImageRatingTask_S5,2021.1.4,MacIntel,52.63157895,,,,,,,,,,,,,,,,,
,,,,,,,,,,,,0,4,4,4,1,fifth,12,28,female,L,IMT,2021-07-15_13h06.22.007,ImageRatingTask_S5,2021.1.4,MacIntel,52.63157895,,,,,,,,,,,,,,,,,
,,,,,,,,,,,,0,5,5,5,1,sixth,12,28,female,L,IMT,2021-07-15_13h06.22.007,ImageRatingTask_S5,2021.1.4,MacIntel,52.63157895,,,,,,,,,,,,,,,,,
,,,,,,,,,,,,0,6,6,6,1,seventh,12,28,female,L,IMT,2021-07-15_13h06.22.007,ImageRatingTask_S5,2021.1.4,MacIntel,52.63157895,,,,,,,,,,,,,,,,,
,,,,,,,,,,,,0,7,7,7,1,last,12,28,female,L,IMT,2021-07-15_13h06.22.007,ImageRatingTask_S5,2021.1.4,MacIntel,52.63157895,,,,,,,,,,,,,,,,,
,,,,,,,,,,,,,,,,,,12,28,female,L,IMT,2021-07-15_13h06.22.007,ImageRatingTask_S5,2021.1.4,MacIntel,52.63157895,0,15,15,95,1,DreamStudyImages_rs1000x750g/Children/IAPS2070_baby8.jpg,,,,,,,,,,,
,,4,2.339,1,0.447,5,1.379,1,0.714,6,0.566,0,0,0,0,1,main,12,28,female,L,IMT,2021-07-15_13h06.22.007,ImageRatingTask_S5,2021.1.4,MacIntel,52.63157895,,,,,,,,,,,,,,,,,
,,,,,,,,,,,,0,1,1,1,1,second,12,28,female,L,IMT,2021-07-15_13h06.22.007,ImageRatingTask_S5,2021.1.4,MacIntel,52.63157895,,,,,,,,,,,,,,,,,
,,,,,,,,,,,,0,2,2,2,1,third,12,28,female,L,IMT,2021-07-15_13h06.22.007,ImageRatingTask_S5,2021.1.4,MacIntel,52.63157895,,,,,,,,,,,,,,,,,
,,,,,,,,,,,,0,3,3,3,1,fourth,12,28,female,L,IMT,2021-07-15_13h06.22.007,ImageRatingTask_S5,2021.1.4,MacIntel,52.63157895,,,,,,,,,,,,,,,,,
,,,,,,,,,,,,0,4,4,4,1,fifth,12,28,female,L,IMT,2021-07-15_13h06.22.007,ImageRatingTask_S5,2021.1.4,MacIntel,52.63157895,,,,,,,,,,,,,,,,,
,,,,,,,,,,,,0,5,5,5,1,sixth,12,28,female,L,IMT,2021-07-15_13h06.22.007,ImageRatingTask_S5,2021.1.4,MacIntel,52.63157895,,,,,,,,,,,,,,,,,
,,,,,,,,,,,,0,6,6,6,1,seventh,12,28,female,L,IMT,2021-07-15_13h06.22.007,ImageRatingTask_S5,2021.1.4,MacIntel,52.63157895,,,,,,,,,,,,,,,,,
,,,,,,,,,,,,0,7,7,7,1,last,12,28,female,L,IMT,2021-07-15_13h06.22.007,ImageRatingTask_S5,2021.1.4,MacIntel,52.63157895,,,,,,,,,,,,,,,,,
,,,,,,,,,,,,,,,,,,12,28,female,L,IMT,2021-07-15_13h06.22.007,ImageRatingTask_S5,2021.1.4,MacIntel,52.63157895,0,16,16,47,1,DreamStudyImages_rs1000x750g/Houses/Hallway 1.jpg,,,,,,,,,,,
,,6,8.085,1,0.588,5,1.131,1,0.485,5,0.464,0,0,0,0,1,main,12,28,female,L,IMT,2021-07-15_13h06.22.007,ImageRatingTask_S5,2021.1.4,MacIntel,52.63157895,,,,,,,,,,,,,,,,,
,,,,,,,,,,,,0,1,1,1,1,second,12,28,female,L,IMT,2021-07-15_13h06.22.007,ImageRatingTask_S5,2021.1.4,MacIntel,52.63157895,,,,,,,,,,,,,,,,,
,,,,,,,,,,,,0,2,2,2,1,third,12,28,female,L,IMT,2021-07-15_13h06.22.007,ImageRatingTask_S5,2021.1.4,MacIntel,52.63157895,,,,,,,,,,,,,,,,,
,,,,,,,,,,,,0,3,3,3,1,fourth,12,28,female,L,IMT,2021-07-15_13h06.22.007,ImageRatingTask_S5,2021.1.4,MacIntel,52.63157895,,,,,,,,,,,,,,,,,
,,,,,,,,,,,,0,4,4,4,1,fifth,12,28,female,L,IMT,2021-07-15_13h06.22.007,ImageRatingTask_S5,2021.1.4,MacIntel,52.63157895,,,,,,,,,,,,,,,,,
,,,,,,,,,,,,0,5,5,5,1,sixth,12,28,female,L,IMT,2021-07-15_13h06.22.007,ImageRatingTask_S5,2021.1.4,MacIntel,52.63157895,,,,,,,,,,,,,,,,,
,,,,,,,,,,,,0,6,6,6,1,seventh,12,28,female,L,IMT,2021-07-15_13h06.22.007,ImageRatingTask_S5,2021.1.4,MacIntel,52.63157895,,,,,,,,,,,,,,,,,
,,,,,,,,,,,,0,7,7,7,1,last,12,28,female,L,IMT,2021-07-15_13h06.22.007,ImageRatingTask_S5,2021.1.4,MacIntel,52.63157895,,,,,,,,,,,,,,,,,
,,,,,,,,,,,,,,,,,,12,28,female,L,IMT,2021-07-15_13h06.22.007,ImageRatingTask_S5,2021.1.4,MacIntel,52.63157895,0,17,17,45,1,DreamStudyImages_rs1000x750g/Food/IAPS7285_tomatoes.jpg,,,,,,,,,,,
,,6,23.818,2,0.621,8,2.371,1,1.247,6,0.366,0,0,0,0,1,main,12,28,female,L,IMT,2021-07-15_13h06.22.007,ImageRatingTask_S5,2021.1.4,MacIntel,52.63157895,,,,,,,,,,,,,,,,,
,,,,,,,,,,,,0,1,1,1,1,second,12,28,female,L,IMT,2021-07-15_13h06.22.007,ImageRatingTask_S5,2021.1.4,MacIntel,52.63157895,,,,,,,,,,,,,,,,,
,,,,,,,,,,,,0,2,2,2,1,third,12,28,female,L,IMT,2021-07-15_13h06.22.007,ImageRatingTask_S5,2021.1.4,MacIntel,52.63157895,,,,,,,,,,,,,,,,,
,,,,,,,,,,,,0,3,3,3,1,fourth,12,28,female,L,IMT,2021-07-15_13h06.22.007,ImageRatingTask_S5,2021.1.4,MacIntel,52.63157895,,,,,,,,,,,,,,,,,
,,,,,,,,,,,,0,4,4,4,1,fifth,12,28,female,L,IMT,2021-07-15_13h06.22.007,ImageRatingTask_S5,2021.1.4,MacIntel,52.63157895,,,,,,,,,,,,,,,,,
,,,,,,,,,,,,0,5,5,5,1,sixth,12,28,female,L,IMT,2021-07-15_13h06.22.007,ImageRatingTask_S5,2021.1.4,MacIntel,52.63157895,,,,,,,,,,,,,,,,,
,,,,,,,,,,,,0,6,6,6,1,seventh,12,28,female,L,IMT,2021-07-15_13h06.22.007,ImageRatingTask_S5,2021.1.4,MacIntel,52.63157895,,,,,,,,,,,,,,,,,
,,,,,,,,,,,,0,7,7,7,1,last,12,28,female,L,IMT,2021-07-15_13h06.22.007,ImageRatingTask_S5,2021.1.4,MacIntel,52.63157895,,,,,,,,,,,,,,,,,
,,,,,,,,,,,,,,,,,,12,28,female,L,IMT,2021-07-15_13h06.22.007,ImageRatingTask_S5,2021.1.4,MacIntel,52.63157895,0,18,18,41,1,DreamStudyImages_rs1000x750g/Houses/Landscapes_094_h.jpg,,,,,,,,,,,
,,7,4.378,2,0.461,6,1.263,1,0.615,5,0.497,0,0,0,0,1,main,12,28,female,L,IMT,2021-07-15_13h06.22.007,ImageRatingTask_S5,2021.1.4,MacIntel,52.63157895,,,,,,,,,,,,,,,,,
,,,,,,,,,,,,0,1,1,1,1,second,12,28,female,L,IMT,2021-07-15_13h06.22.007,ImageRatingTask_S5,2021.1.4,MacIntel,52.63157895,,,,,,,,,,,,,,,,,
,,,,,,,,,,,,0,2,2,2,1,third,12,28,female,L,IMT,2021-07-15_13h06.22.007,ImageRatingTask_S5,2021.1.4,MacIntel,52.63157895,,,,,,,,,,,,,,,,,
,,,,,,,,,,,,0,3,3,3,1,fourth,12,28,female,L,IMT,2021-07-15_13h06.22.007,ImageRatingTask_S5,2021.1.4,MacIntel,52.63157895,,,,,,,,,,,,,,,,,
,,,,,,,,,,,,0,4,4,4,1,fifth,12,28,female,L,IMT,2021-07-15_13h06.22.007,ImageRatingTask_S5,2021.1.4,MacIntel,52.63157895,,,,,,,,,,,,,,,,,
,,,,,,,,,,,,0,5,5,5,1,sixth,12,28,female,L,IMT,2021-07-15_13h06.22.007,ImageRatingTask_S5,2021.1.4,MacIntel,52.63157895,,,,,,,,,,,,,,,,,
,,,,,,,,,,,,0,6,6,6,1,seventh,12,28,female,L,IMT,2021-07-15_13h06.22.007,ImageRatingTask_S5,2021.1.4,MacIntel,52.63157895,,,,,,,,,,,,,,,,,
,,,,,,,,,,,,0,7,7,7,1,last,12,28,female,L,IMT,2021-07-15_13h06.22.007,ImageRatingTask_S5,2021.1.4,MacIntel,52.63157895,,,,,,,,,,,,,,,,,
,,,,,,,,,,,,,,,,,,12,28,female,L,IMT,2021-07-15_13h06.22.007,ImageRatingTask_S5,2021.1.4,MacIntel,52.63157895,0,19,19,113,1,DreamStudyImages_rs1000x750g/Food/7351.jpg,,,,,,,,,,,
,,5,1.233,1,0.396,6,1.971,2,0.997,2,1.181,0,0,0,0,1,main,12,28,female,L,IMT,2021-07-15_13h06.22.007,ImageRatingTask_S5,2021.1.4,MacIntel,52.63157895,,,,,,,,,,,,,,,,,
,,,,,,,,,,1,0.334,0,1,1,1,1,second,12,28,female,L,IMT,2021-07-15_13h06.22.007,ImageRatingTask_S5,2021.1.4,MacIntel,52.63157895,,,,,,,,,,,,,,,,,
,,,,,,,,,,,,0,2,2,2,1,third,12,28,female,L,IMT,2021-07-15_13h06.22.007,ImageRatingTask_S5,2021.1.4,MacIntel,52.63157895,,,,,,,,,,,,,,,,,
,,,,,,,,,,,,0,3,3,3,1,fourth,12,28,female,L,IMT,2021-07-15_13h06.22.007,ImageRatingTask_S5,2021.1.4,MacIntel,52.63157895,,,,,,,,,,,,,,,,,
,,,,,,,,,,,,0,4,4,4,1,fifth,12,28,female,L,IMT,2021-07-15_13h06.22.007,ImageRatingTask_S5,2021.1.4,MacIntel,52.63157895,,,,,,,,,,,,,,,,,
,,,,,,,,,,,,0,5,5,5,1,sixth,12,28,female,L,IMT,2021-07-15_13h06.22.007,ImageRatingTask_S5,2021.1.4,MacIntel,52.63157895,,,,,,,,,,,,,,,,,
,,,,,,,,,,,,0,6,6,6,1,seventh,12,28,female,L,IMT,2021-07-15_13h06.22.007,ImageRatingTask_S5,2021.1.4,MacIntel,52.63157895,,,,,,,,,,,,,,,,,
,,,,,,,,,,,,0,7,7,7,1,last,12,28,female,L,IMT,2021-07-15_13h06.22.007,ImageRatingTask_S5,2021.1.4,MacIntel,52.63157895,,,,,,,,,,,,,,,,,
,,,,,,,,,,,,,,,,,,12,28,female,L,IMT,2021-07-15_13h06.22.007,ImageRatingTask_S5,2021.1.4,MacIntel,52.63157895,0,20,20,69,1,DreamStudyImages_rs1000x750g/Children/IAPS2057_baby5.jpg,,,,,,,,,,,
,,6,1.432,2,0.567,7,1.445,1,0.857,3,0.28,0,0,0,0,1,main,12,28,female,L,IMT,2021-07-15_13h06.22.007,ImageRatingTask_S5,2021.1.4,MacIntel,52.63157895,,,,,,,,,,,,,,,,,
,,,,,,,,,,,,0,1,1,1,1,second,12,28,female,L,IMT,2021-07-15_13h06.22.007,ImageRatingTask_S5,2021.1.4,MacIntel,52.63157895,,,,,,,,,,,,,,,,,
,,,,,,,,,,,,0,2,2,2,1,third,12,28,female,L,IMT,2021-07-15_13h06.22.007,ImageRatingTask_S5,2021.1.4,MacIntel,52.63157895,,,,,,,,,,,,,,,,,
,,,,,,,,,,,,0,3,3,3,1,fourth,12,28,female,L,IMT,2021-07-15_13h06.22.007,ImageRatingTask_S5,2021.1.4,MacIntel,52.63157895,,,,,,,,,,,,,,,,,
,,,,,,,,,,,,0,4,4,4,1,fifth,12,28,female,L,IMT,2021-07-15_13h06.22.007,ImageRatingTask_S5,2021.1.4,MacIntel,52.63157895,,,,,,,,,,,,,,,,,
,,,,,,,,,,,,0,5,5,5,1,sixth,12,28,female,L,IMT,2021-07-15_13h06.22.007,ImageRatingTask_S5,2021.1.4,MacIntel,52.63157895,,,,,,,,,,,,,,,,,
,,,,,,,,,,,,0,6,6,6,1,seventh,12,28,female,L,IMT,2021-07-15_13h06.22.007,ImageRatingTask_S5,2021.1.4,MacIntel,52.63157895,,,,,,,,,,,,,,,,,
,,,,,,,,,,,,0,7,7,7,1,last,12,28,female,L,IMT,2021-07-15_13h06.22.007,ImageRatingTask_S5,2021.1.4,MacIntel,52.63157895,,,,,,,,,,,,,,,,,
,,,,,,,,,,,,,,,,,,12,28,female,L,IMT,2021-07-15_13h06.22.007,ImageRatingTask_S5,2021.1.4,MacIntel,52.63157895,0,21,21,121,1,DreamStudyImages_rs1000x750g/Mammals/Animals_205_h.jpg,,,,,,,,,,,
,,6,18.252,2,0.581,8,8.449,1,0.722,3,0.482,0,0,0,0,1,main,12,28,female,L,IMT,2021-07-15_13h06.22.007,ImageRatingTask_S5,2021.1.4,MacIntel,52.63157895,,,,,,,,,,,,,,,,,
,,,,,,,,,,,,0,1,1,1,1,second,12,28,female,L,IMT,2021-07-15_13h06.22.007,ImageRatingTask_S5,2021.1.4,MacIntel,52.63157895,,,,,,,,,,,,,,,,,
,,,,,,,,,,,,0,2,2,2,1,third,12,28,female,L,IMT,2021-07-15_13h06.22.007,ImageRatingTask_S5,2021.1.4,MacIntel,52.63157895,,,,,,,,,,,,,,,,,
,,,,,,,,,,,,0,3,3,3,1,fourth,12,28,female,L,IMT,2021-07-15_13h06.22.007,ImageRatingTask_S5,2021.1.4,MacIntel,52.63157895,,,,,,,,,,,,,,,,,
,,,,,,,,,,,,0,4,4,4,1,fifth,12,28,female,L,IMT,2021-07-15_13h06.22.007,ImageRatingTask_S5,2021.1.4,MacIntel,52.63157895,,,,,,,,,,,,,,,,,
,,,,,,,,,,,,0,5,5,5,1,sixth,12,28,female,L,IMT,2021-07-15_13h06.22.007,ImageRatingTask_S5,2021.1.4,MacIntel,52.63157895,,,,,,,,,,,,,,,,,
,,,,,,,,,,,,0,6,6,6,1,seventh,12,28,female,L,IMT,2021-07-15_13h06.22.007,ImageRatingTask_S5,2021.1.4,MacIntel,52.63157895,,,,,,,,,,,,,,,,,
,,,,,,,,,,,,0,7,7,7,1,last,12,28,female,L,IMT,2021-07-15_13h06.22.007,ImageRatingTask_S5,2021.1.4,MacIntel,52.63157895,,,,,,,,,,,,,,,,,
,,,,,,,,,,,,,,,,,,12,28,female,L,IMT,2021-07-15_13h06.22.007,ImageRatingTask_S5,2021.1.4,MacIntel,52.63157895,0,22,22,152,1,DreamStudyImages_rs1000x750g/Mammals/Animals_163_h.jpg,,,,,,,,,,,
,,5,1.411,1,0.757,4,0.999,1,0.817,6,0.416,0,0,0,0,1,main,12,28,female,L,IMT,2021-07-15_13h06.22.007,ImageRatingTask_S5,2021.1.4,MacIntel,52.63157895,,,,,,,,,,,,,,,,,
,,,,,,,,,,,,0,1,1,1,1,second,12,28,female,L,IMT,2021-07-15_13h06.22.007,ImageRatingTask_S5,2021.1.4,MacIntel,52.63157895,,,,,,,,,,,,,,,,,
,,,,,,,,,,,,0,2,2,2,1,third,12,28,female,L,IMT,2021-07-15_13h06.22.007,ImageRatingTask_S5,2021.1.4,MacIntel,52.63157895,,,,,,,,,,,,,,,,,
,,,,,,,,,,,,0,3,3,3,1,fourth,12,28,female,L,IMT,2021-07-15_13h06.22.007,ImageRatingTask_S5,2021.1.4,MacIntel,52.63157895,,,,,,,,,,,,,,,,,
,,,,,,,,,,,,0,4,4,4,1,fifth,12,28,female,L,IMT,2021-07-15_13h06.22.007,ImageRatingTask_S5,2021.1.4,MacIntel,52.63157895,,,,,,,,,,,,,,,,,
,,,,,,,,,,,,0,5,5,5,1,sixth,12,28,female,L,IMT,2021-07-15_13h06.22.007,ImageRatingTask_S5,2021.1.4,MacIntel,52.63157895,,,,,,,,,,,,,,,,,
,,,,,,,,,,,,0,6,6,6,1,seventh,12,28,female,L,IMT,2021-07-15_13h06.22.007,ImageRatingTask_S5,2021.1.4,MacIntel,52.63157895,,,,,,,,,,,,,,,,,
,,,,,,,,,,,,0,7,7,7,1,last,12,28,female,L,IMT,2021-07-15_13h06.22.007,ImageRatingTask_S5,2021.1.4,MacIntel,52.63157895,,,,,,,,,,,,,,,,,
,,,,,,,,,,,,,,,,,,12,28,female,L,IMT,2021-07-15_13h06.22.007,ImageRatingTask_S5,2021.1.4,MacIntel,52.63157895,0,23,23,68,1,DreamStudyImages_rs1000x750g/Houses/NDPS61_houses5.jpg,,,,,,,,,,,
,,7,3.078,2,0.495,6,1.246,1,0.824,5,0.768,0,0,0,0,1,main,12,28,female,L,IMT,2021-07-15_13h06.22.007,ImageRatingTask_S5,2021.1.4,MacIntel,52.63157895,,,,,,,,,,,,,,,,,
,,,,,,,,,,,,0,1,1,1,1,second,12,28,female,L,IMT,2021-07-15_13h06.22.007,ImageRatingTask_S5,2021.1.4,MacIntel,52.63157895,,,,,,,,,,,,,,,,,
,,,,,,,,,,,,0,2,2,2,1,third,12,28,female,L,IMT,2021-07-15_13h06.22.007,ImageRatingTask_S5,2021.1.4,MacIntel,52.63157895,,,,,,,,,,,,,,,,,
,,,,,,,,,,,,0,3,3,3,1,fourth,12,28,female,L,IMT,2021-07-15_13h06.22.007,ImageRatingTask_S5,2021.1.4,MacIntel,52.63157895,,,,,,,,,,,,,,,,,
,,,,,,,,,,,,0,4,4,4,1,fifth,12,28,female,L,IMT,2021-07-15_13h06.22.007,ImageRatingTask_S5,2021.1.4,MacIntel,52.63157895,,,,,,,,,,,,,,,,,
,,,,,,,,,,,,0,5,5,5,1,sixth,12,28,female,L,IMT,2021-07-15_13h06.22.007,ImageRatingTask_S5,2021.1.4,MacIntel,52.63157895,,,,,,,,,,,,,,,,,
,,,,,,,,,,,,0,6,6,6,1,seventh,12,28,female,L,IMT,2021-07-15_13h06.22.007,ImageRatingTask_S5,2021.1.4,MacIntel,52.63157895,,,,,,,,,,,,,,,,,
,,,,,,,,,,,,0,7,7,7,1,last,12,28,female,L,IMT,2021-07-15_13h06.22.007,ImageRatingTask_S5,2021.1.4,MacIntel,52.63157895,,,,,,,,,,,,,,,,,
,,,,,,,,,,,,,,,,,,12,28,female,L,IMT,2021-07-15_13h06.22.007,ImageRatingTask_S5,2021.1.4,MacIntel,52.63157895,0,24,24,66,1,DreamStudyImages_rs1000x750g/Food/Objects_051_h.jpg,,,,,,,,,,,
,,6,2.663,1,0.546,6,1.359,1,0.527,5,0.497,0,0,0,0,1,main,12,28,female,L,IMT,2021-07-15_13h06.22.007,ImageRatingTask_S5,2021.1.4,MacIntel,52.63157895,,,,,,,,,,,,,,,,,
,,,,,,,,,,,,0,1,1,1,1,second,12,28,female,L,IMT,2021-07-15_13h06.22.007,ImageRatingTask_S5,2021.1.4,MacIntel,52.63157895,,,,,,,,,,,,,,,,,
,,,,,,,,,,,,0,2,2,2,1,third,12,28,female,L,IMT,2021-07-15_13h06.22.007,ImageRatingTask_S5,2021.1.4,MacIntel,52.63157895,,,,,,,,,,,,,,,,,
,,,,,,,,,,,,0,3,3,3,1,fourth,12,28,female,L,IMT,2021-07-15_13h06.22.007,ImageRatingTask_S5,2021.1.4,MacIntel,52.63157895,,,,,,,,,,,,,,,,,
,,,,,,,,,,,,0,4,4,4,1,fifth,12,28,female,L,IMT,2021-07-15_13h06.22.007,ImageRatingTask_S5,2021.1.4,MacIntel,52.63157895,,,,,,,,,,,,,,,,,
,,,,,,,,,,,,0,5,5,5,1,sixth,12,28,female,L,IMT,2021-07-15_13h06.22.007,ImageRatingTask_S5,2021.1.4,MacIntel,52.63157895,,,,,,,,,,,,,,,,,
,,,,,,,,,,,,0,6,6,6,1,seventh,12,28,female,L,IMT,2021-07-15_13h06.22.007,ImageRatingTask_S5,2021.1.4,MacIntel,52.63157895,,,,,,,,,,,,,,,,,
,,,,,,,,,,,,0,7,7,7,1,last,12,28,female,L,IMT,2021-07-15_13h06.22.007,ImageRatingTask_S5,2021.1.4,MacIntel,52.63157895,,,,,,,,,,,,,,,,,
,,,,,,,,,,,,,,,,,,12,28,female,L,IMT,2021-07-15_13h06.22.007,ImageRatingTask_S5,2021.1.4,MacIntel,52.63157895,0,25,25,101,1,DreamStudyImages_rs1000x750g/Food/Objects_054_h.jpg,,,,,,,,,,,
,,7,5.477,3,0.531,7,1.23,1,0.816,8,0.45,0,0,0,0,1,main,12,28,female,L,IMT,2021-07-15_13h06.22.007,ImageRatingTask_S5,2021.1.4,MacIntel,52.63157895,,,,,,,,,,,,,,,,,
,,,,,,,,,,,,0,1,1,1,1,second,12,28,female,L,IMT,2021-07-15_13h06.22.007,ImageRatingTask_S5,2021.1.4,MacIntel,52.63157895,,,,,,,,,,,,,,,,,
,,,,,,,,,,,,0,2,2,2,1,third,12,28,female,L,IMT,2021-07-15_13h06.22.007,ImageRatingTask_S5,2021.1.4,MacIntel,52.63157895,,,,,,,,,,,,,,,,,
,,,,,,,,,,,,0,3,3,3,1,fourth,12,28,female,L,IMT,2021-07-15_13h06.22.007,ImageRatingTask_S5,2021.1.4,MacIntel,52.63157895,,,,,,,,,,,,,,,,,
,,,,,,,,,,,,0,4,4,4,1,fifth,12,28,female,L,IMT,2021-07-15_13h06.22.007,ImageRatingTask_S5,2021.1.4,MacIntel,52.63157895,,,,,,,,,,,,,,,,,
,,,,,,,,,,,,0,5,5,5,1,sixth,12,28,female,L,IMT,2021-07-15_13h06.22.007,ImageRatingTask_S5,2021.1.4,MacIntel,52.63157895,,,,,,,,,,,,,,,,,
,,,,,,,,,,,,0,6,6,6,1,seventh,12,28,female,L,IMT,2021-07-15_13h06.22.007,ImageRatingTask_S5,2021.1.4,MacIntel,52.63157895,,,,,,,,,,,,,,,,,
,,,,,,,,,,,,0,7,7,7,1,last,12,28,female,L,IMT,2021-07-15_13h06.22.007,ImageRatingTask_S5,2021.1.4,MacIntel,52.63157895,,,,,,,,,,,,,,,,,
,,,,,,,,,,,,,,,,,,12,28,female,L,IMT,2021-07-15_13h06.22.007,ImageRatingTask_S5,2021.1.4,MacIntel,52.63157895,0,26,26,14,1,DreamStudyImages_rs1000x750g/Water/Lake 12.jpg,,,,,,,,,,,
,,7,2.445,3,0.533,6,2.057,1,0.533,5,0.447,0,0,0,0,1,main,12,28,female,L,IMT,2021-07-15_13h06.22.007,ImageRatingTask_S5,2021.1.4,MacIntel,52.63157895,,,,,,,,,,,,,,,,,
,,,,,,,,,,,,0,1,1,1,1,second,12,28,female,L,IMT,2021-07-15_13h06.22.007,ImageRatingTask_S5,2021.1.4,MacIntel,52.63157895,,,,,,,,,,,,,,,,,
,,,,,,,,,,,,0,2,2,2,1,third,12,28,female,L,IMT,2021-07-15_13h06.22.007,ImageRatingTask_S5,2021.1.4,MacIntel,52.63157895,,,,,,,,,,,,,,,,,
,,,,,,,,,,,,0,3,3,3,1,fourth,12,28,female,L,IMT,2021-07-15_13h06.22.007,ImageRatingTask_S5,2021.1.4,MacIntel,52.63157895,,,,,,,,,,,,,,,,,
,,,,,,,,,,,,0,4,4,4,1,fifth,12,28,female,L,IMT,2021-07-15_13h06.22.007,ImageRatingTask_S5,2021.1.4,MacIntel,52.63157895,,,,,,,,,,,,,,,,,
,,,,,,,,,,,,0,5,5,5,1,sixth,12,28,female,L,IMT,2021-07-15_13h06.22.007,ImageRatingTask_S5,2021.1.4,MacIntel,52.63157895,,,,,,,,,,,,,,,,,
,,,,,,,,,,,,0,6,6,6,1,seventh,12,28,female,L,IMT,2021-07-15_13h06.22.007,ImageRatingTask_S5,2021.1.4,MacIntel,52.63157895,,,,,,,,,,,,,,,,,
,,,,,,,,,,,,0,7,7,7,1,last,12,28,female,L,IMT,2021-07-15_13h06.22.007,ImageRatingTask_S5,2021.1.4,MacIntel,52.63157895,,,,,,,,,,,,,,,,,
,,,,,,,,,,,,,,,,,,12,28,female,L,IMT,2021-07-15_13h06.22.007,ImageRatingTask_S5,2021.1.4,MacIntel,52.63157895,0,27,27,26,1,DreamStudyImages_rs1000x750g/Food/IAPS7476_soup.jpg,,,,,,,,,,,
,,5,12.418,1,0.883,5,1.196,0,1.554,,,0,0,0,0,1,main,12,28,female,L,IMT,2021-07-15_13h06.22.007,ImageRatingTask_S5,2021.1.4,MacIntel,52.63157895,,,,,,,,,,,,,,,,,
,,,,,,,,,,,,0,1,1,1,1,second,12,28,female,L,IMT,2021-07-15_13h06.22.007,ImageRatingTask_S5,2021.1.4,MacIntel,52.63157895,,,,,,,,,,,,,,,,,
,,,,,,,,,,,,0,2,2,2,1,third,12,28,female,L,IMT,2021-07-15_13h06.22.007,ImageRatingTask_S5,2021.1.4,MacIntel,52.63157895,,,,,,,,,,,,,,,,,
,,,,,,,,,,,,0,3,3,3,1,fourth,12,28,female,L,IMT,2021-07-15_13h06.22.007,ImageRatingTask_S5,2021.1.4,MacIntel,52.63157895,,,,,,,,,,,,,,,,,
,,,,,,,,,,,,0,4,4,4,1,fifth,12,28,female,L,IMT,2021-07-15_13h06.22.007,ImageRatingTask_S5,2021.1.4,MacIntel,52.63157895,,,,,,,,,,,,,,,,,
,,,,,,,,,,,,0,5,5,5,1,sixth,12,28,female,L,IMT,2021-07-15_13h06.22.007,ImageRatingTask_S5,2021.1.4,MacIntel,52.63157895,,,,,,,,,,,,,,,,,
,,,,,,,,,,,,0,6,6,6,1,seventh,12,28,female,L,IMT,2021-07-15_13h06.22.007,ImageRatingTask_S5,2021.1.4,MacIntel,52.63157895,,,,,,,,,,,,,,,,,
,,,,,,,,,,,,0,7,7,7,1,last,12,28,female,L,IMT,2021-07-15_13h06.22.007,ImageRatingTask_S5,2021.1.4,MacIntel,52.63157895,,,,,,,,,,,,,,,,,
,,,,,,,,,,,,,,,,,,12,28,female,L,IMT,2021-07-15_13h06.22.007,ImageRatingTask_S5,2021.1.4,MacIntel,52.63157895,0,28,28,115,1,DreamStudyImages_rs1000x750g/Water/Lake 6.jpg,,,,,,,,,,,
,,3,1.297,3,1.285,5,1.336,1,0.602,5,0.459,0,0,0,0,1,main,12,28,female,L,IMT,2021-07-15_13h06.22.007,ImageRatingTask_S5,2021.1.4,MacIntel,52.63157895,,,,,,,,,,,,,,,,,
,,,,,,,,,,,,0,1,1,1,1,second,12,28,female,L,IMT,2021-07-15_13h06.22.007,ImageRatingTask_S5,2021.1.4,MacIntel,52.63157895,,,,,,,,,,,,,,,,,
,,,,,,,,,,,,0,2,2,2,1,third,12,28,female,L,IMT,2021-07-15_13h06.22.007,ImageRatingTask_S5,2021.1.4,MacIntel,52.63157895,,,,,,,,,,,,,,,,,
,,,,,,,,,,,,0,3,3,3,1,fourth,12,28,female,L,IMT,2021-07-15_13h06.22.007,ImageRatingTask_S5,2021.1.4,MacIntel,52.63157895,,,,,,,,,,,,,,,,,
,,,,,,,,,,,,0,4,4,4,1,fifth,12,28,female,L,IMT,2021-07-15_13h06.22.007,ImageRatingTask_S5,2021.1.4,MacIntel,52.63157895,,,,,,,,,,,,,,,,,
,,,,,,,,,,,,0,5,5,5,1,sixth,12,28,female,L,IMT,2021-07-15_13h06.22.007,ImageRatingTask_S5,2021.1.4,MacIntel,52.63157895,,,,,,,,,,,,,,,,,
,,,,,,,,,,,,0,6,6,6,1,seventh,12,28,female,L,IMT,2021-07-15_13h06.22.007,ImageRatingTask_S5,2021.1.4,MacIntel,52.63157895,,,,,,,,,,,,,,,,,
,,,,,,,,,,,,0,7,7,7,1,last,12,28,female,L,IMT,2021-07-15_13h06.22.007,ImageRatingTask_S5,2021.1.4,MacIntel,52.63157895,,,,,,,,,,,,,,,,,
,,,,,,,,,,,,,,,,,,12,28,female,L,IMT,2021-07-15_13h06.22.007,ImageRatingTask_S5,2021.1.4,MacIntel,52.63157895,0,29,29,144,1,DreamStudyImages_rs1000x750g/Food/Objects_011_h.jpg,,,,,,,,,,,
,,5,3.781,1,0.368,7,1.57,1,0.667,3,0.473,0,0,0,0,1,main,12,28,female,L,IMT,2021-07-15_13h06.22.007,ImageRatingTask_S5,2021.1.4,MacIntel,52.63157895,,,,,,,,,,,,,,,,,
,,,,,,,,,,,,0,1,1,1,1,second,12,28,female,L,IMT,2021-07-15_13h06.22.007,ImageRatingTask_S5,2021.1.4,MacIntel,52.63157895,,,,,,,,,,,,,,,,,
,,,,,,,,,,,,0,2,2,2,1,third,12,28,female,L,IMT,2021-07-15_13h06.22.007,ImageRatingTask_S5,2021.1.4,MacIntel,52.63157895,,,,,,,,,,,,,,,,,
,,,,,,,,,,,,0,3,3,3,1,fourth,12,28,female,L,IMT,2021-07-15_13h06.22.007,ImageRatingTask_S5,2021.1.4,MacIntel,52.63157895,,,,,,,,,,,,,,,,,
,,,,,,,,,,,,0,4,4,4,1,fifth,12,28,female,L,IMT,2021-07-15_13h06.22.007,ImageRatingTask_S5,2021.1.4,MacIntel,52.63157895,,,,,,,,,,,,,,,,,
,,,,,,,,,,,,0,5,5,5,1,sixth,12,28,female,L,IMT,2021-07-15_13h06.22.007,ImageRatingTask_S5,2021.1.4,MacIntel,52.63157895,,,,,,,,,,,,,,,,,
,,,,,,,,,,,,0,6,6,6,1,seventh,12,28,female,L,IMT,2021-07-15_13h06.22.007,ImageRatingTask_S5,2021.1.4,MacIntel,52.63157895,,,,,,,,,,,,,,,,,
,,,,,,,,,,,,0,7,7,7,1,last,12,28,female,L,IMT,2021-07-15_13h06.22.007,ImageRatingTask_S5,2021.1.4,MacIntel,52.63157895,,,,,,,,,,,,,,,,,
,,,,,,,,,,,,,,,,,,12,28,female,L,IMT,2021-07-15_13h06.22.007,ImageRatingTask_S5,2021.1.4,MacIntel,52.63157895,0,30,30,120,1,DreamStudyImages_rs1000x750g/Mammals/Opossum 1.jpg,,,,,,,,,,,
,,5,0.939,1,0.407,7,0.992,1,0.6,2,0.224,0,0,0,0,1,main,12,28,female,L,IMT,2021-07-15_13h06.22.007,ImageRatingTask_S5,2021.1.4,MacIntel,52.63157895,,,,,,,,,,,,,,,,,
,,,,,,,,,,,,0,1,1,1,1,second,12,28,female,L,IMT,2021-07-15_13h06.22.007,ImageRatingTask_S5,2021.1.4,MacIntel,52.63157895,,,,,,,,,,,,,,,,,
,,,,,,,,,,,,0,2,2,2,1,third,12,28,female,L,IMT,2021-07-15_13h06.22.007,ImageRatingTask_S5,2021.1.4,MacIntel,52.63157895,,,,,,,,,,,,,,,,,
,,,,,,,,,,,,0,3,3,3,1,fourth,12,28,female,L,IMT,2021-07-15_13h06.22.007,ImageRatingTask_S5,2021.1.4,MacIntel,52.63157895,,,,,,,,,,,,,,,,,
,,,,,,,,,,,,0,4,4,4,1,fifth,12,28,female,L,IMT,2021-07-15_13h06.22.007,ImageRatingTask_S5,2021.1.4,MacIntel,52.63157895,,,,,,,,,,,,,,,,,
,,,,,,,,,,,,0,5,5,5,1,sixth,12,28,female,L,IMT,2021-07-15_13h06.22.007,ImageRatingTask_S5,2021.1.4,MacIntel,52.63157895,,,,,,,,,,,,,,,,,
,,,,,,,,,,,,0,6,6,6,1,seventh,12,28,female,L,IMT,2021-07-15_13h06.22.007,ImageRatingTask_S5,2021.1.4,MacIntel,52.63157895,,,,,,,,,,,,,,,,,
,,,,,,,,,,,,0,7,7,7,1,last,12,28,female,L,IMT,2021-07-15_13h06.22.007,ImageRatingTask_S5,2021.1.4,MacIntel,52.63157895,,,,,,,,,,,,,,,,,
,,,,,,,,,,,,,,,,,,12,28,female,L,IMT,2021-07-15_13h06.22.007,ImageRatingTask_S5,2021.1.4,MacIntel,52.63157895,0,31,31,51,1,DreamStudyImages_rs1000x750g/Children/Faces_075_v.jpg,,,,,,,,,,,
,,6,1.35,1,0.566,7,1.243,1,0.554,2,0.201,0,0,0,0,1,main,12,28,female,L,IMT,2021-07-15_13h06.22.007,ImageRatingTask_S5,2021.1.4,MacIntel,52.63157895,,,,,,,,,,,,,,,,,
,,,,,,,,,,,,0,1,1,1,1,second,12,28,female,L,IMT,2021-07-15_13h06.22.007,ImageRatingTask_S5,2021.1.4,MacIntel,52.63157895,,,,,,,,,,,,,,,,,
,,,,,,,,,,,,0,2,2,2,1,third,12,28,female,L,IMT,2021-07-15_13h06.22.007,ImageRatingTask_S5,2021.1.4,MacIntel,52.63157895,,,,,,,,,,,,,,,,,
,,,,,,,,,,,,0,3,3,3,1,fourth,12,28,female,L,IMT,2021-07-15_13h06.22.007,ImageRatingTask_S5,2021.1.4,MacIntel,52.63157895,,,,,,,,,,,,,,,,,
,,,,,,,,,,,,0,4,4,4,1,fifth,12,28,female,L,IMT,2021-07-15_13h06.22.007,ImageRatingTask_S5,2021.1.4,MacIntel,52.63157895,,,,,,,,,,,,,,,,,
,,,,,,,,,,,,0,5,5,5,1,sixth,12,28,female,L,IMT,2021-07-15_13h06.22.007,ImageRatingTask_S5,2021.1.4,MacIntel,52.63157895,,,,,,,,,,,,,,,,,
,,,,,,,,,,,,0,6,6,6,1,seventh,12,28,female,L,IMT,2021-07-15_13h06.22.007,ImageRatingTask_S5,2021.1.4,MacIntel,52.63157895,,,,,,,,,,,,,,,,,
,,,,,,,,,,,,0,7,7,7,1,last,12,28,female,L,IMT,2021-07-15_13h06.22.007,ImageRatingTask_S5,2021.1.4,MacIntel,52.63157895,,,,,,,,,,,,,,,,,
,,,,,,,,,,,,,,,,,,12,28,female,L,IMT,2021-07-15_13h06.22.007,ImageRatingTask_S5,2021.1.4,MacIntel,52.63157895,0,32,32,40,1,DreamStudyImages_rs1000x750g/Children/Excited face 7.jpg,,,,,,,,,,,
,,5,1.565,2,1.723,8,3.22,1,1.247,3,0.624,0,0,0,0,1,main,12,28,female,L,IMT,2021-07-15_13h06.22.007,ImageRatingTask_S5,2021.1.4,MacIntel,52.63157895,,,,,,,,,,,,,,,,,
,,,,,,,,,,,,0,1,1,1,1,second,12,28,female,L,IMT,2021-07-15_13h06.22.007,ImageRatingTask_S5,2021.1.4,MacIntel,52.63157895,,,,,,,,,,,,,,,,,
,,,,,,,,,,,,0,2,2,2,1,third,12,28,female,L,IMT,2021-07-15_13h06.22.007,ImageRatingTask_S5,2021.1.4,MacIntel,52.63157895,,,,,,,,,,,,,,,,,
,,,,,,,,,,,,0,3,3,3,1,fourth,12,28,female,L,IMT,2021-07-15_13h06.22.007,ImageRatingTask_S5,2021.1.4,MacIntel,52.63157895,,,,,,,,,,,,,,,,,
,,,,,,,,,,,,0,4,4,4,1,fifth,12,28,female,L,IMT,2021-07-15_13h06.22.007,ImageRatingTask_S5,2021.1.4,MacIntel,52.63157895,,,,,,,,,,,,,,,,,
,,,,,,,,,,,,0,5,5,5,1,sixth,12,28,female,L,IMT,2021-07-15_13h06.22.007,ImageRatingTask_S5,2021.1.4,MacIntel,52.63157895,,,,,,,,,,,,,,,,,
,,,,,,,,,,,,0,6,6,6,1,seventh,12,28,female,L,IMT,2021-07-15_13h06.22.007,ImageRatingTask_S5,2021.1.4,MacIntel,52.63157895,,,,,,,,,,,,,,,,,
,,,,,,,,,,,,0,7,7,7,1,last,12,28,female,L,IMT,2021-07-15_13h06.22.007,ImageRatingTask_S5,2021.1.4,MacIntel,52.63157895,,,,,,,,,,,,,,,,,
,,,,,,,,,,,,,,,,,,12,28,female,L,IMT,2021-07-15_13h06.22.007,ImageRatingTask_S5,2021.1.4,MacIntel,52.63157895,0,33,33,4,1,DreamStudyImages_rs1000x750g/Mammals/Animals_002_v.jpg,,,,,,,,,,,
,,6,1.045,1,0.683,5,1.345,1,2.02,6,0.417,0,0,0,0,1,main,12,28,female,L,IMT,2021-07-15_13h06.22.007,ImageRatingTask_S5,2021.1.4,MacIntel,52.63157895,,,,,,,,,,,,,,,,,
,,,,,,,,,,,,0,1,1,1,1,second,12,28,female,L,IMT,2021-07-15_13h06.22.007,ImageRatingTask_S5,2021.1.4,MacIntel,52.63157895,,,,,,,,,,,,,,,,,
,,,,,,,,,,,,0,2,2,2,1,third,12,28,female,L,IMT,2021-07-15_13h06.22.007,ImageRatingTask_S5,2021.1.4,MacIntel,52.63157895,,,,,,,,,,,,,,,,,
,,,,,,,,,,,,0,3,3,3,1,fourth,12,28,female,L,IMT,2021-07-15_13h06.22.007,ImageRatingTask_S5,2021.1.4,MacIntel,52.63157895,,,,,,,,,,,,,,,,,
,,,,,,,,,,,,0,4,4,4,1,fifth,12,28,female,L,IMT,2021-07-15_13h06.22.007,ImageRatingTask_S5,2021.1.4,MacIntel,52.63157895,,,,,,,,,,,,,,,,,
,,,,,,,,,,,,0,5,5,5,1,sixth,12,28,female,L,IMT,2021-07-15_13h06.22.007,ImageRatingTask_S5,2021.1.4,MacIntel,52.63157895,,,,,,,,,,,,,,,,,
,,,,,,,,,,,,0,6,6,6,1,seventh,12,28,female,L,IMT,2021-07-15_13h06.22.007,ImageRatingTask_S5,2021.1.4,MacIntel,52.63157895,,,,,,,,,,,,,,,,,
,,,,,,,,,,,,0,7,7,7,1,last,12,28,female,L,IMT,2021-07-15_13h06.22.007,ImageRatingTask_S5,2021.1.4,MacIntel,52.63157895,,,,,,,,,,,,,,,,,
,,,,,,,,,,,,,,,,,,12,28,female,L,IMT,2021-07-15_13h06.22.007,ImageRatingTask_S5,2021.1.4,MacIntel,52.63157895,0,34,34,127,1,DreamStudyImages_rs1000x750g/Houses/NDPS150_houses11.jpg,,,,,,,,,,,
,,5,3.575,1,0.462,3,8.982,1,1.93,6,0.698,0,0,0,0,1,main,12,28,female,L,IMT,2021-07-15_13h06.22.007,ImageRatingTask_S5,2021.1.4,MacIntel,52.63157895,,,,,,,,,,,,,,,,,
,,,,,,,,,,,,0,1,1,1,1,second,12,28,female,L,IMT,2021-07-15_13h06.22.007,ImageRatingTask_S5,2021.1.4,MacIntel,52.63157895,,,,,,,,,,,,,,,,,
,,,,,,,,,,,,0,2,2,2,1,third,12,28,female,L,IMT,2021-07-15_13h06.22.007,ImageRatingTask_S5,2021.1.4,MacIntel,52.63157895,,,,,,,,,,,,,,,,,
,,,,,,,,,,,,0,3,3,3,1,fourth,12,28,female,L,IMT,2021-07-15_13h06.22.007,ImageRatingTask_S5,2021.1.4,MacIntel,52.63157895,,,,,,,,,,,,,,,,,
,,,,,,,,,,,,0,4,4,4,1,fifth,12,28,female,L,IMT,2021-07-15_13h06.22.007,ImageRatingTask_S5,2021.1.4,MacIntel,52.63157895,,,,,,,,,,,,,,,,,
,,,,,,,,,,,,0,5,5,5,1,sixth,12,28,female,L,IMT,2021-07-15_13h06.22.007,ImageRatingTask_S5,2021.1.4,MacIntel,52.63157895,,,,,,,,,,,,,,,,,
,,,,,,,,,,,,0,6,6,6,1,seventh,12,28,female,L,IMT,2021-07-15_13h06.22.007,ImageRatingTask_S5,2021.1.4,MacIntel,52.63157895,,,,,,,,,,,,,,,,,
,,,,,,,,,,,,0,7,7,7,1,last,12,28,female,L,IMT,2021-07-15_13h06.22.007,ImageRatingTask_S5,2021.1.4,MacIntel,52.63157895,,,,,,,,,,,,,,,,,
,,,,,,,,,,,,,,,,,,12,28,female,L,IMT,2021-07-15_13h06.22.007,ImageRatingTask_S5,2021.1.4,MacIntel,52.63157895,0,35,35,143,1,DreamStudyImages_rs1000x750g/Houses/IAPS5994_hotels_CROPPED.jpg,,,,,,,,,,,
,,5,1.585,1,0.371,5,1.354,1,1.68,8,0.431,0,0,0,0,1,main,12,28,female,L,IMT,2021-07-15_13h06.22.007,ImageRatingTask_S5,2021.1.4,MacIntel,52.63157895,,,,,,,,,,,,,,,,,
,,,,,,,,,,,,0,1,1,1,1,second,12,28,female,L,IMT,2021-07-15_13h06.22.007,ImageRatingTask_S5,2021.1.4,MacIntel,52.63157895,,,,,,,,,,,,,,,,,
,,,,,,,,,,,,0,2,2,2,1,third,12,28,female,L,IMT,2021-07-15_13h06.22.007,ImageRatingTask_S5,2021.1.4,MacIntel,52.63157895,,,,,,,,,,,,,,,,,
,,,,,,,,,,,,0,3,3,3,1,fourth,12,28,female,L,IMT,2021-07-15_13h06.22.007,ImageRatingTask_S5,2021.1.4,MacIntel,52.63157895,,,,,,,,,,,,,,,,,
,,,,,,,,,,,,0,4,4,4,1,fifth,12,28,female,L,IMT,2021-07-15_13h06.22.007,ImageRatingTask_S5,2021.1.4,MacIntel,52.63157895,,,,,,,,,,,,,,,,,
,,,,,,,,,,,,0,5,5,5,1,sixth,12,28,female,L,IMT,2021-07-15_13h06.22.007,ImageRatingTask_S5,2021.1.4,MacIntel,52.63157895,,,,,,,,,,,,,,,,,
,,,,,,,,,,,,0,6,6,6,1,seventh,12,28,female,L,IMT,2021-07-15_13h06.22.007,ImageRatingTask_S5,2021.1.4,MacIntel,52.63157895,,,,,,,,,,,,,,,,,
,,,,,,,,,,,,0,7,7,7,1,last,12,28,female,L,IMT,2021-07-15_13h06.22.007,ImageRatingTask_S5,2021.1.4,MacIntel,52.63157895,,,,,,,,,,,,,,,,,
,,,,,,,,,,,,,,,,,,12,28,female,L,IMT,2021-07-15_13h06.22.007,ImageRatingTask_S5,2021.1.4,MacIntel,52.63157895,0,36,36,93,1,DreamStudyImages_rs1000x750g/Water/Lightning 1.jpg,,,,,,,,,,,
,,5,1.013,1,0.349,4,3.013,1,0.545,2,0.212,0,0,0,0,1,main,12,28,female,L,IMT,2021-07-15_13h06.22.007,ImageRatingTask_S5,2021.1.4,MacIntel,52.63157895,,,,,,,,,,,,,,,,,
,,,,,,,,,,,,0,1,1,1,1,second,12,28,female,L,IMT,2021-07-15_13h06.22.007,ImageRatingTask_S5,2021.1.4,MacIntel,52.63157895,,,,,,,,,,,,,,,,,
,,,,,,,,,,,,0,2,2,2,1,third,12,28,female,L,IMT,2021-07-15_13h06.22.007,ImageRatingTask_S5,2021.1.4,MacIntel,52.63157895,,,,,,,,,,,,,,,,,
,,,,,,,,,,,,0,3,3,3,1,fourth,12,28,female,L,IMT,2021-07-15_13h06.22.007,ImageRatingTask_S5,2021.1.4,MacIntel,52.63157895,,,,,,,,,,,,,,,,,
,,,,,,,,,,,,0,4,4,4,1,fifth,12,28,female,L,IMT,2021-07-15_13h06.22.007,ImageRatingTask_S5,2021.1.4,MacIntel,52.63157895,,,,,,,,,,,,,,,,,
,,,,,,,,,,,,0,5,5,5,1,sixth,12,28,female,L,IMT,2021-07-15_13h06.22.007,ImageRatingTask_S5,2021.1.4,MacIntel,52.63157895,,,,,,,,,,,,,,,,,
,,,,,,,,,,,,0,6,6,6,1,seventh,12,28,female,L,IMT,2021-07-15_13h06.22.007,ImageRatingTask_S5,2021.1.4,MacIntel,52.63157895,,,,,,,,,,,,,,,,,
,,,,,,,,,,,,0,7,7,7,1,last,12,28,female,L,IMT,2021-07-15_13h06.22.007,ImageRatingTask_S5,2021.1.4,MacIntel,52.63157895,,,,,,,,,,,,,,,,,
,,,,,,,,,,,,,,,,,,12,28,female,L,IMT,2021-07-15_13h06.22.007,ImageRatingTask_S5,2021.1.4,MacIntel,52.63157895,0,37,37,36,1,DreamStudyImages_rs1000x750g/Children/IAPS2040_baby1.jpg,,,,,,,,,,,
,,5,18.059,1,0.338,6,1.412,1,0.679,7,0.38,0,0,0,0,1,main,12,28,female,L,IMT,2021-07-15_13h06.22.007,ImageRatingTask_S5,2021.1.4,MacIntel,52.63157895,,,,,,,,,,,,,,,,,
,,,,,,,,,,,,0,1,1,1,1,second,12,28,female,L,IMT,2021-07-15_13h06.22.007,ImageRatingTask_S5,2021.1.4,MacIntel,52.63157895,,,,,,,,,,,,,,,,,
,,,,,,,,,,,,0,2,2,2,1,third,12,28,female,L,IMT,2021-07-15_13h06.22.007,ImageRatingTask_S5,2021.1.4,MacIntel,52.63157895,,,,,,,,,,,,,,,,,
,,,,,,,,,,,,0,3,3,3,1,fourth,12,28,female,L,IMT,2021-07-15_13h06.22.007,ImageRatingTask_S5,2021.1.4,MacIntel,52.63157895,,,,,,,,,,,,,,,,,
,,,,,,,,,,,,0,4,4,4,1,fifth,12,28,female,L,IMT,2021-07-15_13h06.22.007,ImageRatingTask_S5,2021.1.4,MacIntel,52.63157895,,,,,,,,,,,,,,,,,
,,,,,,,,,,,,0,5,5,5,1,sixth,12,28,female,L,IMT,2021-07-15_13h06.22.007,ImageRatingTask_S5,2021.1.4,MacIntel,52.63157895,,,,,,,,,,,,,,,,,
,,,,,,,,,,,,0,6,6,6,1,seventh,12,28,female,L,IMT,2021-07-15_13h06.22.007,ImageRatingTask_S5,2021.1.4,MacIntel,52.63157895,,,,,,,,,,,,,,,,,
,,,,,,,,,,,,0,7,7,7,1,last,12,28,female,L,IMT,2021-07-15_13h06.22.007,ImageRatingTask_S5,2021.1.4,MacIntel,52.63157895,,,,,,,,,,,,,,,,,
,,,,,,,,,,,,,,,,,,12,28,female,L,IMT,2021-07-15_13h06.22.007,ImageRatingTask_S5,2021.1.4,MacIntel,52.63157895,0,38,38,8,1,DreamStudyImages_rs1000x750g/Vehicles/Car 2.jpg,,,,,,,,,,,
,,4,1.603,2,0.935,7,2.697,1,0.765,6,0.566,0,0,0,0,1,main,12,28,female,L,IMT,2021-07-15_13h06.22.007,ImageRatingTask_S5,2021.1.4,MacIntel,52.63157895,,,,,,,,,,,,,,,,,
,,,,,,,,,,,,0,1,1,1,1,second,12,28,female,L,IMT,2021-07-15_13h06.22.007,ImageRatingTask_S5,2021.1.4,MacIntel,52.63157895,,,,,,,,,,,,,,,,,
,,,,,,,,,,,,0,2,2,2,1,third,12,28,female,L,IMT,2021-07-15_13h06.22.007,ImageRatingTask_S5,2021.1.4,MacIntel,52.63157895,,,,,,,,,,,,,,,,,
,,,,,,,,,,,,0,3,3,3,1,fourth,12,28,female,L,IMT,2021-07-15_13h06.22.007,ImageRatingTask_S5,2021.1.4,MacIntel,52.63157895,,,,,,,,,,,,,,,,,
,,,,,,,,,,,,0,4,4,4,1,fifth,12,28,female,L,IMT,2021-07-15_13h06.22.007,ImageRatingTask_S5,2021.1.4,MacIntel,52.63157895,,,,,,,,,,,,,,,,,
,,,,,,,,,,,,0,5,5,5,1,sixth,12,28,female,L,IMT,2021-07-15_13h06.22.007,ImageRatingTask_S5,2021.1.4,MacIntel,52.63157895,,,,,,,,,,,,,,,,,
,,,,,,,,,,,,0,6,6,6,1,seventh,12,28,female,L,IMT,2021-07-15_13h06.22.007,ImageRatingTask_S5,2021.1.4,MacIntel,52.63157895,,,,,,,,,,,,,,,,,
,,,,,,,,,,,,0,7,7,7,1,last,12,28,female,L,IMT,2021-07-15_13h06.22.007,ImageRatingTask_S5,2021.1.4,MacIntel,52.63157895,,,,,,,,,,,,,,,,,
,,,,,,,,,,,,,,,,,,12,28,female,L,IMT,2021-07-15_13h06.22.007,ImageRatingTask_S5,2021.1.4,MacIntel,52.63157895,0,39,39,105,1,DreamStudyImages_rs1000x750g/Houses/NDPS39_houseonfire.jpg,,,,,,,,,,,
,,5,1.128,1,0.341,6,1.417,1,0.607,7,0.329,0,0,0,0,1,main,12,28,female,L,IMT,2021-07-15_13h06.22.007,ImageRatingTask_S5,2021.1.4,MacIntel,52.63157895,,,,,,,,,,,,,,,,,
,,,,,,,,,,,,0,1,1,1,1,second,12,28,female,L,IMT,2021-07-15_13h06.22.007,ImageRatingTask_S5,2021.1.4,MacIntel,52.63157895,,,,,,,,,,,,,,,,,
,,,,,,,,,,,,0,2,2,2,1,third,12,28,female,L,IMT,2021-07-15_13h06.22.007,ImageRatingTask_S5,2021.1.4,MacIntel,52.63157895,,,,,,,,,,,,,,,,,
,,,,,,,,,,,,0,3,3,3,1,fourth,12,28,female,L,IMT,2021-07-15_13h06.22.007,ImageRatingTask_S5,2021.1.4,MacIntel,52.63157895,,,,,,,,,,,,,,,,,
,,,,,,,,,,,,0,4,4,4,1,fifth,12,28,female,L,IMT,2021-07-15_13h06.22.007,ImageRatingTask_S5,2021.1.4,MacIntel,52.63157895,,,,,,,,,,,,,,,,,
,,,,,,,,,,,,0,5,5,5,1,sixth,12,28,female,L,IMT,2021-07-15_13h06.22.007,ImageRatingTask_S5,2021.1.4,MacIntel,52.63157895,,,,,,,,,,,,,,,,,
,,,,,,,,,,,,0,6,6,6,1,seventh,12,28,female,L,IMT,2021-07-15_13h06.22.007,ImageRatingTask_S5,2021.1.4,MacIntel,52.63157895,,,,,,,,,,,,,,,,,
,,,,,,,,,,,,0,7,7,7,1,last,12,28,female,L,IMT,2021-07-15_13h06.22.007,ImageRatingTask_S5,2021.1.4,MacIntel,52.63157895,,,,,,,,,,,,,,,,,
,,,,,,,,,,,,,,,,,,12,28,female,L,IMT,2021-07-15_13h06.22.007,ImageRatingTask_S5,2021.1.4,MacIntel,52.63157895,0,40,40,24,1,DreamStudyImages_rs1000x750g/Vehicles/Car race 3.jpg,,,,,,,,,,,
,,5,1.258,1,0.313,7,1.43,1,1.107,2,0.244,0,0,0,0,1,main,12,28,female,L,IMT,2021-07-15_13h06.22.007,ImageRatingTask_S5,2021.1.4,MacIntel,52.63157895,,,,,,,,,,,,,,,,,
,,,,,,,,,,,,0,1,1,1,1,second,12,28,female,L,IMT,2021-07-15_13h06.22.007,ImageRatingTask_S5,2021.1.4,MacIntel,52.63157895,,,,,,,,,,,,,,,,,
,,,,,,,,,,,,0,2,2,2,1,third,12,28,female,L,IMT,2021-07-15_13h06.22.007,ImageRatingTask_S5,2021.1.4,MacIntel,52.63157895,,,,,,,,,,,,,,,,,
,,,,,,,,,,,,0,3,3,3,1,fourth,12,28,female,L,IMT,2021-07-15_13h06.22.007,ImageRatingTask_S5,2021.1.4,MacIntel,52.63157895,,,,,,,,,,,,,,,,,
,,,,,,,,,,,,0,4,4,4,1,fifth,12,28,female,L,IMT,2021-07-15_13h06.22.007,ImageRatingTask_S5,2021.1.4,MacIntel,52.63157895,,,,,,,,,,,,,,,,,
,,,,,,,,,,,,0,5,5,5,1,sixth,12,28,female,L,IMT,2021-07-15_13h06.22.007,ImageRatingTask_S5,2021.1.4,MacIntel,52.63157895,,,,,,,,,,,,,,,,,
,,,,,,,,,,,,0,6,6,6,1,seventh,12,28,female,L,IMT,2021-07-15_13h06.22.007,ImageRatingTask_S5,2021.1.4,MacIntel,52.63157895,,,,,,,,,,,,,,,,,
,,,,,,,,,,,,0,7,7,7,1,last,12,28,female,L,IMT,2021-07-15_13h06.22.007,ImageRatingTask_S5,2021.1.4,MacIntel,52.63157895,,,,,,,,,,,,,,,,,
,,,,,,,,,,,,,,,,,,12,28,female,L,IMT,2021-07-15_13h06.22.007,ImageRatingTask_S5,2021.1.4,MacIntel,52.63157895,0,41,41,16,1,DreamStudyImages_rs1000x750g/Children/2045.jpg,,,,,,,,,,,
,,2,13.744,1,0.65,3,1.629,1,0.68,2,0.278,0,0,0,0,1,main,12,28,female,L,IMT,2021-07-15_13h06.22.007,ImageRatingTask_S5,2021.1.4,MacIntel,52.63157895,,,,,,,,,,,,,,,,,
,,,,,,,,,,,,0,1,1,1,1,second,12,28,female,L,IMT,2021-07-15_13h06.22.007,ImageRatingTask_S5,2021.1.4,MacIntel,52.63157895,,,,,,,,,,,,,,,,,
,,,,,,,,,,,,0,2,2,2,1,third,12,28,female,L,IMT,2021-07-15_13h06.22.007,ImageRatingTask_S5,2021.1.4,MacIntel,52.63157895,,,,,,,,,,,,,,,,,
,,,,,,,,,,,,0,3,3,3,1,fourth,12,28,female,L,IMT,2021-07-15_13h06.22.007,ImageRatingTask_S5,2021.1.4,MacIntel,52.63157895,,,,,,,,,,,,,,,,,
,,,,,,,,,,,,0,4,4,4,1,fifth,12,28,female,L,IMT,2021-07-15_13h06.22.007,ImageRatingTask_S5,2021.1.4,MacIntel,52.63157895,,,,,,,,,,,,,,,,,
,,,,,,,,,,,,0,5,5,5,1,sixth,12,28,female,L,IMT,2021-07-15_13h06.22.007,ImageRatingTask_S5,2021.1.4,MacIntel,52.63157895,,,,,,,,,,,,,,,,,
,,,,,,,,,,,,0,6,6,6,1,seventh,12,28,female,L,IMT,2021-07-15_13h06.22.007,ImageRatingTask_S5,2021.1.4,MacIntel,52.63157895,,,,,,,,,,,,,,,,,
,,,,,,,,,,,,0,7,7,7,1,last,12,28,female,L,IMT,2021-07-15_13h06.22.007,ImageRatingTask_S5,2021.1.4,MacIntel,52.63157895,,,,,,,,,,,,,,,,,
,,,,,,,,,,,,,,,,,,12,28,female,L,IMT,2021-07-15_13h06.22.007,ImageRatingTask_S5,2021.1.4,MacIntel,52.63157895,0,42,42,29,1,DreamStudyImages_rs1000x750g/Children/Miserable pose 3.jpg,,,,,,,,,,,
,,7,23.948,3,0.587,7,1.346,1,0.696,8,0.574,0,0,0,0,1,main,12,28,female,L,IMT,2021-07-15_13h06.22.007,ImageRatingTask_S5,2021.1.4,MacIntel,52.63157895,,,,,,,,,,,,,,,,,
,,,,,,,,,,,,0,1,1,1,1,second,12,28,female,L,IMT,2021-07-15_13h06.22.007,ImageRatingTask_S5,2021.1.4,MacIntel,52.63157895,,,,,,,,,,,,,,,,,
,,,,,,,,,,,,0,2,2,2,1,third,12,28,female,L,IMT,2021-07-15_13h06.22.007,ImageRatingTask_S5,2021.1.4,MacIntel,52.63157895,,,,,,,,,,,,,,,,,
,,,,,,,,,,,,0,3,3,3,1,fourth,12,28,female,L,IMT,2021-07-15_13h06.22.007,ImageRatingTask_S5,2021.1.4,MacIntel,52.63157895,,,,,,,,,,,,,,,,,
,,,,,,,,,,,,0,4,4,4,1,fifth,12,28,female,L,IMT,2021-07-15_13h06.22.007,ImageRatingTask_S5,2021.1.4,MacIntel,52.63157895,,,,,,,,,,,,,,,,,
,,,,,,,,,,,,0,5,5,5,1,sixth,12,28,female,L,IMT,2021-07-15_13h06.22.007,ImageRatingTask_S5,2021.1.4,MacIntel,52.63157895,,,,,,,,,,,,,,,,,
,,,,,,,,,,,,0,6,6,6,1,seventh,12,28,female,L,IMT,2021-07-15_13h06.22.007,ImageRatingTask_S5,2021.1.4,MacIntel,52.63157895,,,,,,,,,,,,,,,,,
,,,,,,,,,,,,0,7,7,7,1,last,12,28,female,L,IMT,2021-07-15_13h06.22.007,ImageRatingTask_S5,2021.1.4,MacIntel,52.63157895,,,,,,,,,,,,,,,,,
,,,,,,,,,,,,,,,,,,12,28,female,L,IMT,2021-07-15_13h06.22.007,ImageRatingTask_S5,2021.1.4,MacIntel,52.63157895,0,43,43,151,1,DreamStudyImages_rs1000x750g/Water/seacliff.jpg,,,,,,,,,,,
,,4,14.414,1,0.513,6,1.236,1,1.517,6,0.457,0,0,0,0,1,main,12,28,female,L,IMT,2021-07-15_13h06.22.007,ImageRatingTask_S5,2021.1.4,MacIntel,52.63157895,,,,,,,,,,,,,,,,,
,,,,,,,,,,,,0,1,1,1,1,second,12,28,female,L,IMT,2021-07-15_13h06.22.007,ImageRatingTask_S5,2021.1.4,MacIntel,52.63157895,,,,,,,,,,,,,,,,,
,,,,,,,,,,,,0,2,2,2,1,third,12,28,female,L,IMT,2021-07-15_13h06.22.007,ImageRatingTask_S5,2021.1.4,MacIntel,52.63157895,,,,,,,,,,,,,,,,,
,,,,,,,,,,,,0,3,3,3,1,fourth,12,28,female,L,IMT,2021-07-15_13h06.22.007,ImageRatingTask_S5,2021.1.4,MacIntel,52.63157895,,,,,,,,,,,,,,,,,
,,,,,,,,,,,,0,4,4,4,1,fifth,12,28,female,L,IMT,2021-07-15_13h06.22.007,ImageRatingTask_S5,2021.1.4,MacIntel,52.63157895,,,,,,,,,,,,,,,,,
,,,,,,,,,,,,0,5,5,5,1,sixth,12,28,female,L,IMT,2021-07-15_13h06.22.007,ImageRatingTask_S5,2021.1.4,MacIntel,52.63157895,,,,,,,,,,,,,,,,,
,,,,,,,,,,,,0,6,6,6,1,seventh,12,28,female,L,IMT,2021-07-15_13h06.22.007,ImageRatingTask_S5,2021.1.4,MacIntel,52.63157895,,,,,,,,,,,,,,,,,
,,,,,,,,,,,,0,7,7,7,1,last,12,28,female,L,IMT,2021-07-15_13h06.22.007,ImageRatingTask_S5,2021.1.4,MacIntel,52.63157895,,,,,,,,,,,,,,,,,
,,,,,,,,,,,,,,,,,,12,28,female,L,IMT,2021-07-15_13h06.22.007,ImageRatingTask_S5,2021.1.4,MacIntel,52.63157895,0,44,44,86,1,DreamStudyImages_rs1000x750g/Houses/IAPS9623_housefire.jpg,,,,,,,,,,,
,,8,17.796,3,0.742,8,2.288,1,0.656,8,1.228,0,0,0,0,1,main,12,28,female,L,IMT,2021-07-15_13h06.22.007,ImageRatingTask_S5,2021.1.4,MacIntel,52.63157895,,,,,,,,,,,,,,,,,
,,,,,,,,,,,,0,1,1,1,1,second,12,28,female,L,IMT,2021-07-15_13h06.22.007,ImageRatingTask_S5,2021.1.4,MacIntel,52.63157895,,,,,,,,,,,,,,,,,
,,,,,,,,,,,,0,2,2,2,1,third,12,28,female,L,IMT,2021-07-15_13h06.22.007,ImageRatingTask_S5,2021.1.4,MacIntel,52.63157895,,,,,,,,,,,,,,,,,
,,,,,,,,,,,,0,3,3,3,1,fourth,12,28,female,L,IMT,2021-07-15_13h06.22.007,ImageRatingTask_S5,2021.1.4,MacIntel,52.63157895,,,,,,,,,,,,,,,,,
,,,,,,,,,,,,0,4,4,4,1,fifth,12,28,female,L,IMT,2021-07-15_13h06.22.007,ImageRatingTask_S5,2021.1.4,MacIntel,52.63157895,,,,,,,,,,,,,,,,,
,,,,,,,,,,,,0,5,5,5,1,sixth,12,28,female,L,IMT,2021-07-15_13h06.22.007,ImageRatingTask_S5,2021.1.4,MacIntel,52.63157895,,,,,,,,,,,,,,,,,
,,,,,,,,,,,,0,6,6,6,1,seventh,12,28,female,L,IMT,2021-07-15_13h06.22.007,ImageRatingTask_S5,2021.1.4,MacIntel,52.63157895,,,,,,,,,,,,,,,,,
,,,,,,,,,,,,0,7,7,7,1,last,12,28,female,L,IMT,2021-07-15_13h06.22.007,ImageRatingTask_S5,2021.1.4,MacIntel,52.63157895,,,,,,,,,,,,,,,,,
,,,,,,,,,,,,,,,,,,12,28,female,L,IMT,2021-07-15_13h06.22.007,ImageRatingTask_S5,2021.1.4,MacIntel,52.63157895,0,45,45,110,1,DreamStudyImages_rs1000x750g/Water/Landscapes_176_h.jpg,,,,,,,,,,,
,,4,16.474,1,0.905,5,1.213,1,0.529,3,0.38,0,0,0,0,1,main,12,28,female,L,IMT,2021-07-15_13h06.22.007,ImageRatingTask_S5,2021.1.4,MacIntel,52.63157895,,,,,,,,,,,,,,,,,
,,,,,,,,,,,,0,1,1,1,1,second,12,28,female,L,IMT,2021-07-15_13h06.22.007,ImageRatingTask_S5,2021.1.4,MacIntel,52.63157895,,,,,,,,,,,,,,,,,
,,,,,,,,,,,,0,2,2,2,1,third,12,28,female,L,IMT,2021-07-15_13h06.22.007,ImageRatingTask_S5,2021.1.4,MacIntel,52.63157895,,,,,,,,,,,,,,,,,
,,,,,,,,,,,,0,3,3,3,1,fourth,12,28,female,L,IMT,2021-07-15_13h06.22.007,ImageRatingTask_S5,2021.1.4,MacIntel,52.63157895,,,,,,,,,,,,,,,,,
,,,,,,,,,,,,0,4,4,4,1,fifth,12,28,female,L,IMT,2021-07-15_13h06.22.007,ImageRatingTask_S5,2021.1.4,MacIntel,52.63157895,,,,,,,,,,,,,,,,,
,,,,,,,,,,,,0,5,5,5,1,sixth,12,28,female,L,IMT,2021-07-15_13h06.22.007,ImageRatingTask_S5,2021.1.4,MacIntel,52.63157895,,,,,,,,,,,,,,,,,
,,,,,,,,,,,,0,6,6,6,1,seventh,12,28,female,L,IMT,2021-07-15_13h06.22.007,ImageRatingTask_S5,2021.1.4,MacIntel,52.63157895,,,,,,,,,,,,,,,,,
,,,,,,,,,,,,0,7,7,7,1,last,12,28,female,L,IMT,2021-07-15_13h06.22.007,ImageRatingTask_S5,2021.1.4,MacIntel,52.63157895,,,,,,,,,,,,,,,,,
,,,,,,,,,,,,,,,,,,12,28,female,L,IMT,2021-07-15_13h06.22.007,ImageRatingTask_S5,2021.1.4,MacIntel,52.63157895,0,46,46,156,1,DreamStudyImages_rs1000x750g/Mammals/Dog 25.jpg,,,,,,,,,,,
,,5,4.243,1,0.42,8,3.156,1,0.852,8,0.518,0,0,0,0,1,main,12,28,female,L,IMT,2021-07-15_13h06.22.007,ImageRatingTask_S5,2021.1.4,MacIntel,52.63157895,,,,,,,,,,,,,,,,,
,,,,,,,,,,,,0,1,1,1,1,second,12,28,female,L,IMT,2021-07-15_13h06.22.007,ImageRatingTask_S5,2021.1.4,MacIntel,52.63157895,,,,,,,,,,,,,,,,,
,,,,,,,,,,,,0,2,2,2,1,third,12,28,female,L,IMT,2021-07-15_13h06.22.007,ImageRatingTask_S5,2021.1.4,MacIntel,52.63157895,,,,,,,,,,,,,,,,,
,,,,,,,,,,,,0,3,3,3,1,fourth,12,28,female,L,IMT,2021-07-15_13h06.22.007,ImageRatingTask_S5,2021.1.4,MacIntel,52.63157895,,,,,,,,,,,,,,,,,
,,,,,,,,,,,,0,4,4,4,1,fifth,12,28,female,L,IMT,2021-07-15_13h06.22.007,ImageRatingTask_S5,2021.1.4,MacIntel,52.63157895,,,,,,,,,,,,,,,,,
,,,,,,,,,,,,0,5,5,5,1,sixth,12,28,female,L,IMT,2021-07-15_13h06.22.007,ImageRatingTask_S5,2021.1.4,MacIntel,52.63157895,,,,,,,,,,,,,,,,,
,,,,,,,,,,,,0,6,6,6,1,seventh,12,28,female,L,IMT,2021-07-15_13h06.22.007,ImageRatingTask_S5,2021.1.4,MacIntel,52.63157895,,,,,,,,,,,,,,,,,
,,,,,,,,,,,,0,7,7,7,1,last,12,28,female,L,IMT,2021-07-15_13h06.22.007,ImageRatingTask_S5,2021.1.4,MacIntel,52.63157895,,,,,,,,,,,,,,,,,
,,,,,,,,,,,,,,,,,,12,28,female,L,IMT,2021-07-15_13h06.22.007,ImageRatingTask_S5,2021.1.4,MacIntel,52.63157895,0,47,47,91,1,DreamStudyImages_rs1000x750g/Water/NDPS32_seafromabove.jpg,,,,,,,,,,,
,,5,17.919,1,0.43,4,1.549,1,1.118,7,0.796,0,0,0,0,1,main,12,28,female,L,IMT,2021-07-15_13h06.22.007,ImageRatingTask_S5,2021.1.4,MacIntel,52.63157895,,,,,,,,,,,,,,,,,
,,,,,,,,,,,,0,1,1,1,1,second,12,28,female,L,IMT,2021-07-15_13h06.22.007,ImageRatingTask_S5,2021.1.4,MacIntel,52.63157895,,,,,,,,,,,,,,,,,
,,,,,,,,,,,,0,2,2,2,1,third,12,28,female,L,IMT,2021-07-15_13h06.22.007,ImageRatingTask_S5,2021.1.4,MacIntel,52.63157895,,,,,,,,,,,,,,,,,
,,,,,,,,,,,,0,3,3,3,1,fourth,12,28,female,L,IMT,2021-07-15_13h06.22.007,ImageRatingTask_S5,2021.1.4,MacIntel,52.63157895,,,,,,,,,,,,,,,,,
,,,,,,,,,,,,0,4,4,4,1,fifth,12,28,female,L,IMT,2021-07-15_13h06.22.007,ImageRatingTask_S5,2021.1.4,MacIntel,52.63157895,,,,,,,,,,,,,,,,,
,,,,,,,,,,,,0,5,5,5,1,sixth,12,28,female,L,IMT,2021-07-15_13h06.22.007,ImageRatingTask_S5,2021.1.4,MacIntel,52.63157895,,,,,,,,,,,,,,,,,
,,,,,,,,,,,,0,6,6,6,1,seventh,12,28,female,L,IMT,2021-07-15_13h06.22.007,ImageRatingTask_S5,2021.1.4,MacIntel,52.63157895,,,,,,,,,,,,,,,,,
,,,,,,,,,,,,0,7,7,7,1,last,12,28,female,L,IMT,2021-07-15_13h06.22.007,ImageRatingTask_S5,2021.1.4,MacIntel,52.63157895,,,,,,,,,,,,,,,,,
,,,,,,,,,,,,,,,,,,12,28,female,L,IMT,2021-07-15_13h06.22.007,ImageRatingTask_S5,2021.1.4,MacIntel,52.63157895,0,48,48,130,1,DreamStudyImages_rs1000x750g/Vehicles/Car accident 3.jpg,,,,,,,,,,,
,,5,1.333,1,0.415,4,1.084,1,0.706,2,0.745,0,0,0,0,1,main,12,28,female,L,IMT,2021-07-15_13h06.22.007,ImageRatingTask_S5,2021.1.4,MacIntel,52.63157895,,,,,,,,,,,,,,,,,
,,,,,,,,,,,,0,1,1,1,1,second,12,28,female,L,IMT,2021-07-15_13h06.22.007,ImageRatingTask_S5,2021.1.4,MacIntel,52.63157895,,,,,,,,,,,,,,,,,
,,,,,,,,,,,,0,2,2,2,1,third,12,28,female,L,IMT,2021-07-15_13h06.22.007,ImageRatingTask_S5,2021.1.4,MacIntel,52.63157895,,,,,,,,,,,,,,,,,
,,,,,,,,,,,,0,3,3,3,1,fourth,12,28,female,L,IMT,2021-07-15_13h06.22.007,ImageRatingTask_S5,2021.1.4,MacIntel,52.63157895,,,,,,,,,,,,,,,,,
,,,,,,,,,,,,0,4,4,4,1,fifth,12,28,female,L,IMT,2021-07-15_13h06.22.007,ImageRatingTask_S5,2021.1.4,MacIntel,52.63157895,,,,,,,,,,,,,,,,,
,,,,,,,,,,,,0,5,5,5,1,sixth,12,28,female,L,IMT,2021-07-15_13h06.22.007,ImageRatingTask_S5,2021.1.4,MacIntel,52.63157895,,,,,,,,,,,,,,,,,
,,,,,,,,,,,,0,6,6,6,1,seventh,12,28,female,L,IMT,2021-07-15_13h06.22.007,ImageRatingTask_S5,2021.1.4,MacIntel,52.63157895,,,,,,,,,,,,,,,,,
,,,,,,,,,,,,0,7,7,7,1,last,12,28,female,L,IMT,2021-07-15_13h06.22.007,ImageRatingTask_S5,2021.1.4,MacIntel,52.63157895,,,,,,,,,,,,,,,,,
,,,,,,,,,,,,,,,,,,12,28,female,L,IMT,2021-07-15_13h06.22.007,ImageRatingTask_S5,2021.1.4,MacIntel,52.63157895,0,49,49,42,1,DreamStudyImages_rs1000x750g/Children/IAPS3280_boy14_humans.jpg,,,,,,,,,,,
,,5,4.011,1,0.351,7,2.933,1,1.336,7,0.595,0,0,0,0,1,main,12,28,female,L,IMT,2021-07-15_13h06.22.007,ImageRatingTask_S5,2021.1.4,MacIntel,52.63157895,,,,,,,,,,,,,,,,,
,,,,,,,,,,,,0,1,1,1,1,second,12,28,female,L,IMT,2021-07-15_13h06.22.007,ImageRatingTask_S5,2021.1.4,MacIntel,52.63157895,,,,,,,,,,,,,,,,,
,,,,,,,,,,,,0,2,2,2,1,third,12,28,female,L,IMT,2021-07-15_13h06.22.007,ImageRatingTask_S5,2021.1.4,MacIntel,52.63157895,,,,,,,,,,,,,,,,,
,,,,,,,,,,,,0,3,3,3,1,fourth,12,28,female,L,IMT,2021-07-15_13h06.22.007,ImageRatingTask_S5,2021.1.4,MacIntel,52.63157895,,,,,,,,,,,,,,,,,
,,,,,,,,,,,,0,4,4,4,1,fifth,12,28,female,L,IMT,2021-07-15_13h06.22.007,ImageRatingTask_S5,2021.1.4,MacIntel,52.63157895,,,,,,,,,,,,,,,,,
,,,,,,,,,,,,0,5,5,5,1,sixth,12,28,female,L,IMT,2021-07-15_13h06.22.007,ImageRatingTask_S5,2021.1.4,MacIntel,52.63157895,,,,,,,,,,,,,,,,,
,,,,,,,,,,,,0,6,6,6,1,seventh,12,28,female,L,IMT,2021-07-15_13h06.22.007,ImageRatingTask_S5,2021.1.4,MacIntel,52.63157895,,,,,,,,,,,,,,,,,
,,,,,,,,,,,,0,7,7,7,1,last,12,28,female,L,IMT,2021-07-15_13h06.22.007,ImageRatingTask_S5,2021.1.4,MacIntel,52.63157895,,,,,,,,,,,,,,,,,
,,,,,,,,,,,,,,,,,,12,28,female,L,IMT,2021-07-15_13h06.22.007,ImageRatingTask_S5,2021.1.4,MacIntel,52.63157895,0,50,50,10,1,DreamStudyImages_rs1000x750g/Vehicles/Objects_301_h.jpg,,,,,,,,,,,
,,5,1.053,1,0.419,8,1.13,1,0.745,7,0.364,0,0,0,0,1,main,12,28,female,L,IMT,2021-07-15_13h06.22.007,ImageRatingTask_S5,2021.1.4,MacIntel,52.63157895,,,,,,,,,,,,,,,,,
,,,,,,,,,,,,0,1,1,1,1,second,12,28,female,L,IMT,2021-07-15_13h06.22.007,ImageRatingTask_S5,2021.1.4,MacIntel,52.63157895,,,,,,,,,,,,,,,,,
,,,,,,,,,,,,0,2,2,2,1,third,12,28,female,L,IMT,2021-07-15_13h06.22.007,ImageRatingTask_S5,2021.1.4,MacIntel,52.63157895,,,,,,,,,,,,,,,,,
,,,,,,,,,,,,0,3,3,3,1,fourth,12,28,female,L,IMT,2021-07-15_13h06.22.007,ImageRatingTask_S5,2021.1.4,MacIntel,52.63157895,,,,,,,,,,,,,,,,,
,,,,,,,,,,,,0,4,4,4,1,fifth,12,28,female,L,IMT,2021-07-15_13h06.22.007,ImageRatingTask_S5,2021.1.4,MacIntel,52.63157895,,,,,,,,,,,,,,,,,
,,,,,,,,,,,,0,5,5,5,1,sixth,12,28,female,L,IMT,2021-07-15_13h06.22.007,ImageRatingTask_S5,2021.1.4,MacIntel,52.63157895,,,,,,,,,,,,,,,,,
,,,,,,,,,,,,0,6,6,6,1,seventh,12,28,female,L,IMT,2021-07-15_13h06.22.007,ImageRatingTask_S5,2021.1.4,MacIntel,52.63157895,,,,,,,,,,,,,,,,,
,,,,,,,,,,,,0,7,7,7,1,last,12,28,female,L,IMT,2021-07-15_13h06.22.007,ImageRatingTask_S5,2021.1.4,MacIntel,52.63157895,,,,,,,,,,,,,,,,,
,,,,,,,,,,,,,,,,,,12,28,female,L,IMT,2021-07-15_13h06.22.007,ImageRatingTask_S5,2021.1.4,MacIntel,52.63157895,0,51,51,106,1,DreamStudyImages_rs1000x750g/Vehicles/fireengine.jpg,,,,,,,,,,,
,,5,16.484,1,0.418,6,1.448,1,0.598,7,0.465,0,0,0,0,1,main,12,28,female,L,IMT,2021-07-15_13h06.22.007,ImageRatingTask_S5,2021.1.4,MacIntel,52.63157895,,,,,,,,,,,,,,,,,
,,,,,,,,,,,,0,1,1,1,1,second,12,28,female,L,IMT,2021-07-15_13h06.22.007,ImageRatingTask_S5,2021.1.4,MacIntel,52.63157895,,,,,,,,,,,,,,,,,
,,,,,,,,,,,,0,2,2,2,1,third,12,28,female,L,IMT,2021-07-15_13h06.22.007,ImageRatingTask_S5,2021.1.4,MacIntel,52.63157895,,,,,,,,,,,,,,,,,
,,,,,,,,,,,,0,3,3,3,1,fourth,12,28,female,L,IMT,2021-07-15_13h06.22.007,ImageRatingTask_S5,2021.1.4,MacIntel,52.63157895,,,,,,,,,,,,,,,,,
,,,,,,,,,,,,0,4,4,4,1,fifth,12,28,female,L,IMT,2021-07-15_13h06.22.007,ImageRatingTask_S5,2021.1.4,MacIntel,52.63157895,,,,,,,,,,,,,,,,,
,,,,,,,,,,,,0,5,5,5,1,sixth,12,28,female,L,IMT,2021-07-15_13h06.22.007,ImageRatingTask_S5,2021.1.4,MacIntel,52.63157895,,,,,,,,,,,,,,,,,
,,,,,,,,,,,,0,6,6,6,1,seventh,12,28,female,L,IMT,2021-07-15_13h06.22.007,ImageRatingTask_S5,2021.1.4,MacIntel,52.63157895,,,,,,,,,,,,,,,,,
,,,,,,,,,,,,0,7,7,7,1,last,12,28,female,L,IMT,2021-07-15_13h06.22.007,ImageRatingTask_S5,2021.1.4,MacIntel,52.63157895,,,,,,,,,,,,,,,,,
,,,,,,,,,,,,,,,,,,12,28,female,L,IMT,2021-07-15_13h06.22.007,ImageRatingTask_S5,2021.1.4,MacIntel,52.63157895,0,52,52,54,1,DreamStudyImages_rs1000x750g/Vehicles/Objects_314_h.jpg,,,,,,,,,,,
,,5,1.284,1,0.353,7,1.515,1,0.691,7,0.42,0,0,0,0,1,main,12,28,female,L,IMT,2021-07-15_13h06.22.007,ImageRatingTask_S5,2021.1.4,MacIntel,52.63157895,,,,,,,,,,,,,,,,,
,,,,,,,,,,,,0,1,1,1,1,second,12,28,female,L,IMT,2021-07-15_13h06.22.007,ImageRatingTask_S5,2021.1.4,MacIntel,52.63157895,,,,,,,,,,,,,,,,,
,,,,,,,,,,,,0,2,2,2,1,third,12,28,female,L,IMT,2021-07-15_13h06.22.007,ImageRatingTask_S5,2021.1.4,MacIntel,52.63157895,,,,,,,,,,,,,,,,,
,,,,,,,,,,,,0,3,3,3,1,fourth,12,28,female,L,IMT,2021-07-15_13h06.22.007,ImageRatingTask_S5,2021.1.4,MacIntel,52.63157895,,,,,,,,,,,,,,,,,
,,,,,,,,,,,,0,4,4,4,1,fifth,12,28,female,L,IMT,2021-07-15_13h06.22.007,ImageRatingTask_S5,2021.1.4,MacIntel,52.63157895,,,,,,,,,,,,,,,,,
,,,,,,,,,,,,0,5,5,5,1,sixth,12,28,female,L,IMT,2021-07-15_13h06.22.007,ImageRatingTask_S5,2021.1.4,MacIntel,52.63157895,,,,,,,,,,,,,,,,,
,,,,,,,,,,,,0,6,6,6,1,seventh,12,28,female,L,IMT,2021-07-15_13h06.22.007,ImageRatingTask_S5,2021.1.4,MacIntel,52.63157895,,,,,,,,,,,,,,,,,
,,,,,,,,,,,,0,7,7,7,1,last,12,28,female,L,IMT,2021-07-15_13h06.22.007,ImageRatingTask_S5,2021.1.4,MacIntel,52.63157895,,,,,,,,,,,,,,,,,
,,,,,,,,,,,,,,,,,,12,28,female,L,IMT,2021-07-15_13h06.22.007,ImageRatingTask_S5,2021.1.4,MacIntel,52.63157895,0,53,53,43,1,DreamStudyImages_rs1000x750g/Vehicles/Traffic 1.jpg,,,,,,,,,,,
,,5,3.187,1,0.429,7,1.5,1,0.813,5,0.544,0,0,0,0,1,main,12,28,female,L,IMT,2021-07-15_13h06.22.007,ImageRatingTask_S5,2021.1.4,MacIntel,52.63157895,,,,,,,,,,,,,,,,,
,,,,,,,,,,,,0,1,1,1,1,second,12,28,female,L,IMT,2021-07-15_13h06.22.007,ImageRatingTask_S5,2021.1.4,MacIntel,52.63157895,,,,,,,,,,,,,,,,,
,,,,,,,,,,,,0,2,2,2,1,third,12,28,female,L,IMT,2021-07-15_13h06.22.007,ImageRatingTask_S5,2021.1.4,MacIntel,52.63157895,,,,,,,,,,,,,,,,,
,,,,,,,,,,,,0,3,3,3,1,fourth,12,28,female,L,IMT,2021-07-15_13h06.22.007,ImageRatingTask_S5,2021.1.4,MacIntel,52.63157895,,,,,,,,,,,,,,,,,
,,,,,,,,,,,,0,4,4,4,1,fifth,12,28,female,L,IMT,2021-07-15_13h06.22.007,ImageRatingTask_S5,2021.1.4,MacIntel,52.63157895,,,,,,,,,,,,,,,,,
,,,,,,,,,,,,0,5,5,5,1,sixth,12,28,female,L,IMT,2021-07-15_13h06.22.007,ImageRatingTask_S5,2021.1.4,MacIntel,52.63157895,,,,,,,,,,,,,,,,,
,,,,,,,,,,,,0,6,6,6,1,seventh,12,28,female,L,IMT,2021-07-15_13h06.22.007,ImageRatingTask_S5,2021.1.4,MacIntel,52.63157895,,,,,,,,,,,,,,,,,
,,,,,,,,,,,,0,7,7,7,1,last,12,28,female,L,IMT,2021-07-15_13h06.22.007,ImageRatingTask_S5,2021.1.4,MacIntel,52.63157895,,,,,,,,,,,,,,,,,
,,,,,,,,,,,,,,,,,,12,28,female,L,IMT,2021-07-15_13h06.22.007,ImageRatingTask_S5,2021.1.4,MacIntel,52.63157895,0,54,54,134,1,DreamStudyImages_rs1000x750g/Food/Objects_087_h.jpg,,,,,,,,,,,
,,6,2.636,2,0.428,7,1.52,1,0.546,2,0.182,0,0,0,0,1,main,12,28,female,L,IMT,2021-07-15_13h06.22.007,ImageRatingTask_S5,2021.1.4,MacIntel,52.63157895,,,,,,,,,,,,,,,,,
,,,,,,,,,,,,0,1,1,1,1,second,12,28,female,L,IMT,2021-07-15_13h06.22.007,ImageRatingTask_S5,2021.1.4,MacIntel,52.63157895,,,,,,,,,,,,,,,,,
,,,,,,,,,,,,0,2,2,2,1,third,12,28,female,L,IMT,2021-07-15_13h06.22.007,ImageRatingTask_S5,2021.1.4,MacIntel,52.63157895,,,,,,,,,,,,,,,,,
,,,,,,,,,,,,0,3,3,3,1,fourth,12,28,female,L,IMT,2021-07-15_13h06.22.007,ImageRatingTask_S5,2021.1.4,MacIntel,52.63157895,,,,,,,,,,,,,,,,,
,,,,,,,,,,,,0,4,4,4,1,fifth,12,28,female,L,IMT,2021-07-15_13h06.22.007,ImageRatingTask_S5,2021.1.4,MacIntel,52.63157895,,,,,,,,,,,,,,,,,
,,,,,,,,,,,,0,5,5,5,1,sixth,12,28,female,L,IMT,2021-07-15_13h06.22.007,ImageRatingTask_S5,2021.1.4,MacIntel,52.63157895,,,,,,,,,,,,,,,,,
,,,,,,,,,,,,0,6,6,6,1,seventh,12,28,female,L,IMT,2021-07-15_13h06.22.007,ImageRatingTask_S5,2021.1.4,MacIntel,52.63157895,,,,,,,,,,,,,,,,,
,,,,,,,,,,,,0,7,7,7,1,last,12,28,female,L,IMT,2021-07-15_13h06.22.007,ImageRatingTask_S5,2021.1.4,MacIntel,52.63157895,,,,,,,,,,,,,,,,,
,,,,,,,,,,,,,,,,,,12,28,female,L,IMT,2021-07-15_13h06.22.007,ImageRatingTask_S5,2021.1.4,MacIntel,52.63157895,0,55,55,48,1,DreamStudyImages_rs1000x750g/Children/Faces_116_h.jpg,,,,,,,,,,,
,,5,39.669,1,0.348,7,1.428,1,0.753,5,0.412,0,0,0,0,1,main,12,28,female,L,IMT,2021-07-15_13h06.22.007,ImageRatingTask_S5,2021.1.4,MacIntel,52.63157895,,,,,,,,,,,,,,,,,
,,,,,,,,,,,,0,1,1,1,1,second,12,28,female,L,IMT,2021-07-15_13h06.22.007,ImageRatingTask_S5,2021.1.4,MacIntel,52.63157895,,,,,,,,,,,,,,,,,
,,,,,,,,,,,,0,2,2,2,1,third,12,28,female,L,IMT,2021-07-15_13h06.22.007,ImageRatingTask_S5,2021.1.4,MacIntel,52.63157895,,,,,,,,,,,,,,,,,
,,,,,,,,,,,,0,3,3,3,1,fourth,12,28,female,L,IMT,2021-07-15_13h06.22.007,ImageRatingTask_S5,2021.1.4,MacIntel,52.63157895,,,,,,,,,,,,,,,,,
,,,,,,,,,,,,0,4,4,4,1,fifth,12,28,female,L,IMT,2021-07-15_13h06.22.007,ImageRatingTask_S5,2021.1.4,MacIntel,52.63157895,,,,,,,,,,,,,,,,,
,,,,,,,,,,,,0,5,5,5,1,sixth,12,28,female,L,IMT,2021-07-15_13h06.22.007,ImageRatingTask_S5,2021.1.4,MacIntel,52.63157895,,,,,,,,,,,,,,,,,
,,,,,,,,,,,,0,6,6,6,1,seventh,12,28,female,L,IMT,2021-07-15_13h06.22.007,ImageRatingTask_S5,2021.1.4,MacIntel,52.63157895,,,,,,,,,,,,,,,,,
,,,,,,,,,,,,0,7,7,7,1,last,12,28,female,L,IMT,2021-07-15_13h06.22.007,ImageRatingTask_S5,2021.1.4,MacIntel,52.63157895,,,,,,,,,,,,,,,,,
,,,,,,,,,,,,,,,,,,12,28,female,L,IMT,2021-07-15_13h06.22.007,ImageRatingTask_S5,2021.1.4,MacIntel,52.63157895,0,56,56,88,1,DreamStudyImages_rs1000x750g/Food/Objects_090_h.jpg,,,,,,,,,,,
,,7,1.283,2,0.386,6,1.196,1,0.5,8,0.326,0,0,0,0,1,main,12,28,female,L,IMT,2021-07-15_13h06.22.007,ImageRatingTask_S5,2021.1.4,MacIntel,52.63157895,,,,,,,,,,,,,,,,,
,,,,,,,,,,,,0,1,1,1,1,second,12,28,female,L,IMT,2021-07-15_13h06.22.007,ImageRatingTask_S5,2021.1.4,MacIntel,52.63157895,,,,,,,,,,,,,,,,,
,,,,,,,,,,,,0,2,2,2,1,third,12,28,female,L,IMT,2021-07-15_13h06.22.007,ImageRatingTask_S5,2021.1.4,MacIntel,52.63157895,,,,,,,,,,,,,,,,,
,,,,,,,,,,,,0,3,3,3,1,fourth,12,28,female,L,IMT,2021-07-15_13h06.22.007,ImageRatingTask_S5,2021.1.4,MacIntel,52.63157895,,,,,,,,,,,,,,,,,
,,,,,,,,,,,,0,4,4,4,1,fifth,12,28,female,L,IMT,2021-07-15_13h06.22.007,ImageRatingTask_S5,2021.1.4,MacIntel,52.63157895,,,,,,,,,,,,,,,,,
,,,,,,,,,,,,0,5,5,5,1,sixth,12,28,female,L,IMT,2021-07-15_13h06.22.007,ImageRatingTask_S5,2021.1.4,MacIntel,52.63157895,,,,,,,,,,,,,,,,,
,,,,,,,,,,,,0,6,6,6,1,seventh,12,28,female,L,IMT,2021-07-15_13h06.22.007,ImageRatingTask_S5,2021.1.4,MacIntel,52.63157895,,,,,,,,,,,,,,,,,
,,,,,,,,,,,,0,7,7,7,1,last,12,28,female,L,IMT,2021-07-15_13h06.22.007,ImageRatingTask_S5,2021.1.4,MacIntel,52.63157895,,,,,,,,,,,,,,,,,
,,,,,,,,,,,,,,,,,,12,28,female,L,IMT,2021-07-15_13h06.22.007,ImageRatingTask_S5,2021.1.4,MacIntel,52.63157895,0,57,57,136,1,DreamStudyImages_rs1000x750g/Water/Lake 10.jpg,,,,,,,,,,,
,,5,1.282,1,0.368,5,0.904,1,0.867,3,0.249,0,0,0,0,1,main,12,28,female,L,IMT,2021-07-15_13h06.22.007,ImageRatingTask_S5,2021.1.4,MacIntel,52.63157895,,,,,,,,,,,,,,,,,
,,,,,,,,,,,,0,1,1,1,1,second,12,28,female,L,IMT,2021-07-15_13h06.22.007,ImageRatingTask_S5,2021.1.4,MacIntel,52.63157895,,,,,,,,,,,,,,,,,
,,,,,,,,,,,,0,2,2,2,1,third,12,28,female,L,IMT,2021-07-15_13h06.22.007,ImageRatingTask_S5,2021.1.4,MacIntel,52.63157895,,,,,,,,,,,,,,,,,
,,,,,,,,,,,,0,3,3,3,1,fourth,12,28,female,L,IMT,2021-07-15_13h06.22.007,ImageRatingTask_S5,2021.1.4,MacIntel,52.63157895,,,,,,,,,,,,,,,,,
,,,,,,,,,,,,0,4,4,4,1,fifth,12,28,female,L,IMT,2021-07-15_13h06.22.007,ImageRatingTask_S5,2021.1.4,MacIntel,52.63157895,,,,,,,,,,,,,,,,,
,,,,,,,,,,,,0,5,5,5,1,sixth,12,28,female,L,IMT,2021-07-15_13h06.22.007,ImageRatingTask_S5,2021.1.4,MacIntel,52.63157895,,,,,,,,,,,,,,,,,
,,,,,,,,,,,,0,6,6,6,1,seventh,12,28,female,L,IMT,2021-07-15_13h06.22.007,ImageRatingTask_S5,2021.1.4,MacIntel,52.63157895,,,,,,,,,,,,,,,,,
,,,,,,,,,,,,0,7,7,7,1,last,12,28,female,L,IMT,2021-07-15_13h06.22.007,ImageRatingTask_S5,2021.1.4,MacIntel,52.63157895,,,,,,,,,,,,,,,,,
,,,,,,,,,,,,,,,,,,12,28,female,L,IMT,2021-07-15_13h06.22.007,ImageRatingTask_S5,2021.1.4,MacIntel,52.63157895,0,58,58,59,1,DreamStudyImages_rs1000x750g/Mammals/1675.jpg,,,,,,,,,,,
,,5,1.493,1,0.372,7,1.083,1,0.654,3,0.312,0,0,0,0,1,main,12,28,female,L,IMT,2021-07-15_13h06.22.007,ImageRatingTask_S5,2021.1.4,MacIntel,52.63157895,,,,,,,,,,,,,,,,,
,,,,,,,,,,,,0,1,1,1,1,second,12,28,female,L,IMT,2021-07-15_13h06.22.007,ImageRatingTask_S5,2021.1.4,MacIntel,52.63157895,,,,,,,,,,,,,,,,,
,,,,,,,,,,,,0,2,2,2,1,third,12,28,female,L,IMT,2021-07-15_13h06.22.007,ImageRatingTask_S5,2021.1.4,MacIntel,52.63157895,,,,,,,,,,,,,,,,,
,,,,,,,,,,,,0,3,3,3,1,fourth,12,28,female,L,IMT,2021-07-15_13h06.22.007,ImageRatingTask_S5,2021.1.4,MacIntel,52.63157895,,,,,,,,,,,,,,,,,
,,,,,,,,,,,,0,4,4,4,1,fifth,12,28,female,L,IMT,2021-07-15_13h06.22.007,ImageRatingTask_S5,2021.1.4,MacIntel,52.63157895,,,,,,,,,,,,,,,,,
,,,,,,,,,,,,0,5,5,5,1,sixth,12,28,female,L,IMT,2021-07-15_13h06.22.007,ImageRatingTask_S5,2021.1.4,MacIntel,52.63157895,,,,,,,,,,,,,,,,,
,,,,,,,,,,,,0,6,6,6,1,seventh,12,28,female,L,IMT,2021-07-15_13h06.22.007,ImageRatingTask_S5,2021.1.4,MacIntel,52.63157895,,,,,,,,,,,,,,,,,
,,,,,,,,,,,,0,7,7,7,1,last,12,28,female,L,IMT,2021-07-15_13h06.22.007,ImageRatingTask_S5,2021.1.4,MacIntel,52.63157895,,,,,,,,,,,,,,,,,
,,,,,,,,,,,,,,,,,,12,28,female,L,IMT,2021-07-15_13h06.22.007,ImageRatingTask_S5,2021.1.4,MacIntel,52.63157895,0,59,59,81,1,DreamStudyImages_rs1000x750g/Mammals/Animals_207_h.jpg,,,,,,,,,,,
,,5,2.597,1,0.38,5,1.581,1,0.535,7,1.08,0,0,0,0,1,main,12,28,female,L,IMT,2021-07-15_13h06.22.007,ImageRatingTask_S5,2021.1.4,MacIntel,52.63157895,,,,,,,,,,,,,,,,,
,,,,,,,,,,,,0,1,1,1,1,second,12,28,female,L,IMT,2021-07-15_13h06.22.007,ImageRatingTask_S5,2021.1.4,MacIntel,52.63157895,,,,,,,,,,,,,,,,,
,,,,,,,,,,,,0,2,2,2,1,third,12,28,female,L,IMT,2021-07-15_13h06.22.007,ImageRatingTask_S5,2021.1.4,MacIntel,52.63157895,,,,,,,,,,,,,,,,,
,,,,,,,,,,,,0,3,3,3,1,fourth,12,28,female,L,IMT,2021-07-15_13h06.22.007,ImageRatingTask_S5,2021.1.4,MacIntel,52.63157895,,,,,,,,,,,,,,,,,
,,,,,,,,,,,,0,4,4,4,1,fifth,12,28,female,L,IMT,2021-07-15_13h06.22.007,ImageRatingTask_S5,2021.1.4,MacIntel,52.63157895,,,,,,,,,,,,,,,,,
,,,,,,,,,,,,0,5,5,5,1,sixth,12,28,female,L,IMT,2021-07-15_13h06.22.007,ImageRatingTask_S5,2021.1.4,MacIntel,52.63157895,,,,,,,,,,,,,,,,,
,,,,,,,,,,,,0,6,6,6,1,seventh,12,28,female,L,IMT,2021-07-15_13h06.22.007,ImageRatingTask_S5,2021.1.4,MacIntel,52.63157895,,,,,,,,,,,,,,,,,
,,,,,,,,,,,,0,7,7,7,1,last,12,28,female,L,IMT,2021-07-15_13h06.22.007,ImageRatingTask_S5,2021.1.4,MacIntel,52.63157895,,,,,,,,,,,,,,,,,
,,,,,,,,,,,,,,,,,,12,28,female,L,IMT,2021-07-15_13h06.22.007,ImageRatingTask_S5,2021.1.4,MacIntel,52.63157895,0,60,60,58,1,DreamStudyImages_rs1000x750g/Vehicles/8531.jpg,,,,,,,,,,,
,,7,1.104,3,0.61,6,1.419,1,0.513,3,0.279,0,0,0,0,1,main,12,28,female,L,IMT,2021-07-15_13h06.22.007,ImageRatingTask_S5,2021.1.4,MacIntel,52.63157895,,,,,,,,,,,,,,,,,
,,,,,,,,,,,,0,1,1,1,1,second,12,28,female,L,IMT,2021-07-15_13h06.22.007,ImageRatingTask_S5,2021.1.4,MacIntel,52.63157895,,,,,,,,,,,,,,,,,
,,,,,,,,,,,,0,2,2,2,1,third,12,28,female,L,IMT,2021-07-15_13h06.22.007,ImageRatingTask_S5,2021.1.4,MacIntel,52.63157895,,,,,,,,,,,,,,,,,
,,,,,,,,,,,,0,3,3,3,1,fourth,12,28,female,L,IMT,2021-07-15_13h06.22.007,ImageRatingTask_S5,2021.1.4,MacIntel,52.63157895,,,,,,,,,,,,,,,,,
,,,,,,,,,,,,0,4,4,4,1,fifth,12,28,female,L,IMT,2021-07-15_13h06.22.007,ImageRatingTask_S5,2021.1.4,MacIntel,52.63157895,,,,,,,,,,,,,,,,,
,,,,,,,,,,,,0,5,5,5,1,sixth,12,28,female,L,IMT,2021-07-15_13h06.22.007,ImageRatingTask_S5,2021.1.4,MacIntel,52.63157895,,,,,,,,,,,,,,,,,
,,,,,,,,,,,,0,6,6,6,1,seventh,12,28,female,L,IMT,2021-07-15_13h06.22.007,ImageRatingTask_S5,2021.1.4,MacIntel,52.63157895,,,,,,,,,,,,,,,,,
,,,,,,,,,,,,0,7,7,7,1,last,12,28,female,L,IMT,2021-07-15_13h06.22.007,ImageRatingTask_S5,2021.1.4,MacIntel,52.63157895,,,,,,,,,,,,,,,,,
,,,,,,,,,,,,,,,,,,12,28,female,L,IMT,2021-07-15_13h06.22.007,ImageRatingTask_S5,2021.1.4,MacIntel,52.63157895,0,61,61,22,1,DreamStudyImages_rs1000x750g/Mammals/Cat 10.jpg,,,,,,,,,,,
,,7,1.382,3,0.59,7,1.348,1,0.697,5,1.293,0,0,0,0,1,main,12,28,female,L,IMT,2021-07-15_13h06.22.007,ImageRatingTask_S5,2021.1.4,MacIntel,52.63157895,,,,,,,,,,,,,,,,,
,,,,,,,,,,,,0,1,1,1,1,second,12,28,female,L,IMT,2021-07-15_13h06.22.007,ImageRatingTask_S5,2021.1.4,MacIntel,52.63157895,,,,,,,,,,,,,,,,,
,,,,,,,,,,,,0,2,2,2,1,third,12,28,female,L,IMT,2021-07-15_13h06.22.007,ImageRatingTask_S5,2021.1.4,MacIntel,52.63157895,,,,,,,,,,,,,,,,,
,,,,,,,,,,,,0,3,3,3,1,fourth,12,28,female,L,IMT,2021-07-15_13h06.22.007,ImageRatingTask_S5,2021.1.4,MacIntel,52.63157895,,,,,,,,,,,,,,,,,
,,,,,,,,,,,,0,4,4,4,1,fifth,12,28,female,L,IMT,2021-07-15_13h06.22.007,ImageRatingTask_S5,2021.1.4,MacIntel,52.63157895,,,,,,,,,,,,,,,,,
,,,,,,,,,,,,0,5,5,5,1,sixth,12,28,female,L,IMT,2021-07-15_13h06.22.007,ImageRatingTask_S5,2021.1.4,MacIntel,52.63157895,,,,,,,,,,,,,,,,,
,,,,,,,,,,,,0,6,6,6,1,seventh,12,28,female,L,IMT,2021-07-15_13h06.22.007,ImageRatingTask_S5,2021.1.4,MacIntel,52.63157895,,,,,,,,,,,,,,,,,
,,,,,,,,,,,,0,7,7,7,1,last,12,28,female,L,IMT,2021-07-15_13h06.22.007,ImageRatingTask_S5,2021.1.4,MacIntel,52.63157895,,,,,,,,,,,,,,,,,
,,,,,,,,,,,,,,,,,,12,28,female,L,IMT,2021-07-15_13h06.22.007,ImageRatingTask_S5,2021.1.4,MacIntel,52.63157895,0,62,62,56,1,DreamStudyImages_rs1000x750g/Food/Objects_034_v.jpg,,,,,,,,,,,
,,5,6.118,1,0.368,6,1.037,1,0.456,7,0.347,0,0,0,0,1,main,12,28,female,L,IMT,2021-07-15_13h06.22.007,ImageRatingTask_S5,2021.1.4,MacIntel,52.63157895,,,,,,,,,,,,,,,,,
,,,,,,,,,,,,0,1,1,1,1,second,12,28,female,L,IMT,2021-07-15_13h06.22.007,ImageRatingTask_S5,2021.1.4,MacIntel,52.63157895,,,,,,,,,,,,,,,,,
,,,,,,,,,,,,0,2,2,2,1,third,12,28,female,L,IMT,2021-07-15_13h06.22.007,ImageRatingTask_S5,2021.1.4,MacIntel,52.63157895,,,,,,,,,,,,,,,,,
,,,,,,,,,,,,0,3,3,3,1,fourth,12,28,female,L,IMT,2021-07-15_13h06.22.007,ImageRatingTask_S5,2021.1.4,MacIntel,52.63157895,,,,,,,,,,,,,,,,,
,,,,,,,,,,,,0,4,4,4,1,fifth,12,28,female,L,IMT,2021-07-15_13h06.22.007,ImageRatingTask_S5,2021.1.4,MacIntel,52.63157895,,,,,,,,,,,,,,,,,
,,,,,,,,,,,,0,5,5,5,1,sixth,12,28,female,L,IMT,2021-07-15_13h06.22.007,ImageRatingTask_S5,2021.1.4,MacIntel,52.63157895,,,,,,,,,,,,,,,,,
,,,,,,,,,,,,0,6,6,6,1,seventh,12,28,female,L,IMT,2021-07-15_13h06.22.007,ImageRatingTask_S5,2021.1.4,MacIntel,52.63157895,,,,,,,,,,,,,,,,,
,,,,,,,,,,,,0,7,7,7,1,last,12,28,female,L,IMT,2021-07-15_13h06.22.007,ImageRatingTask_S5,2021.1.4,MacIntel,52.63157895,,,,,,,,,,,,,,,,,
,,,,,,,,,,,,,,,,,,12,28,female,L,IMT,2021-07-15_13h06.22.007,ImageRatingTask_S5,2021.1.4,MacIntel,52.63157895,0,63,63,9,1,DreamStudyImages_rs1000x750g/Vehicles/Objects_300_h.jpg,,,,,,,,,,,
,,6,1.612,1,1.035,7,2.005,1,0.564,7,0.399,0,0,0,0,1,main,12,28,female,L,IMT,2021-07-15_13h06.22.007,ImageRatingTask_S5,2021.1.4,MacIntel,52.63157895,,,,,,,,,,,,,,,,,
,,,,,,,,,,,,0,1,1,1,1,second,12,28,female,L,IMT,2021-07-15_13h06.22.007,ImageRatingTask_S5,2021.1.4,MacIntel,52.63157895,,,,,,,,,,,,,,,,,
,,,,,,,,,,,,0,2,2,2,1,third,12,28,female,L,IMT,2021-07-15_13h06.22.007,ImageRatingTask_S5,2021.1.4,MacIntel,52.63157895,,,,,,,,,,,,,,,,,
,,,,,,,,,,,,0,3,3,3,1,fourth,12,28,female,L,IMT,2021-07-15_13h06.22.007,ImageRatingTask_S5,2021.1.4,MacIntel,52.63157895,,,,,,,,,,,,,,,,,
,,,,,,,,,,,,0,4,4,4,1,fifth,12,28,female,L,IMT,2021-07-15_13h06.22.007,ImageRatingTask_S5,2021.1.4,MacIntel,52.63157895,,,,,,,,,,,,,,,,,
,,,,,,,,,,,,0,5,5,5,1,sixth,12,28,female,L,IMT,2021-07-15_13h06.22.007,ImageRatingTask_S5,2021.1.4,MacIntel,52.63157895,,,,,,,,,,,,,,,,,
,,,,,,,,,,,,0,6,6,6,1,seventh,12,28,female,L,IMT,2021-07-15_13h06.22.007,ImageRatingTask_S5,2021.1.4,MacIntel,52.63157895,,,,,,,,,,,,,,,,,
,,,,,,,,,,,,0,7,7,7,1,last,12,28,female,L,IMT,2021-07-15_13h06.22.007,ImageRatingTask_S5,2021.1.4,MacIntel,52.63157895,,,,,,,,,,,,,,,,,
,,,,,,,,,,,,,,,,,,12,28,female,L,IMT,2021-07-15_13h06.22.007,ImageRatingTask_S5,2021.1.4,MacIntel,52.63157895,0,64,64,39,1,DreamStudyImages_rs1000x750g/Vehicles/Objects_291_h.jpg,,,,,,,,,,,
,,7,1.646,3,0.531,7,1.313,1,0.58,3,0.401,0,0,0,0,1,main,12,28,female,L,IMT,2021-07-15_13h06.22.007,ImageRatingTask_S5,2021.1.4,MacIntel,52.63157895,,,,,,,,,,,,,,,,,
,,,,,,,,,,,,0,1,1,1,1,second,12,28,female,L,IMT,2021-07-15_13h06.22.007,ImageRatingTask_S5,2021.1.4,MacIntel,52.63157895,,,,,,,,,,,,,,,,,
,,,,,,,,,,,,0,2,2,2,1,third,12,28,female,L,IMT,2021-07-15_13h06.22.007,ImageRatingTask_S5,2021.1.4,MacIntel,52.63157895,,,,,,,,,,,,,,,,,
,,,,,,,,,,,,0,3,3,3,1,fourth,12,28,female,L,IMT,2021-07-15_13h06.22.007,ImageRatingTask_S5,2021.1.4,MacIntel,52.63157895,,,,,,,,,,,,,,,,,
,,,,,,,,,,,,0,4,4,4,1,fifth,12,28,female,L,IMT,2021-07-15_13h06.22.007,ImageRatingTask_S5,2021.1.4,MacIntel,52.63157895,,,,,,,,,,,,,,,,,
,,,,,,,,,,,,0,5,5,5,1,sixth,12,28,female,L,IMT,2021-07-15_13h06.22.007,ImageRatingTask_S5,2021.1.4,MacIntel,52.63157895,,,,,,,,,,,,,,,,,
,,,,,,,,,,,,0,6,6,6,1,seventh,12,28,female,L,IMT,2021-07-15_13h06.22.007,ImageRatingTask_S5,2021.1.4,MacIntel,52.63157895,,,,,,,,,,,,,,,,,
,,,,,,,,,,,,0,7,7,7,1,last,12,28,female,L,IMT,2021-07-15_13h06.22.007,ImageRatingTask_S5,2021.1.4,MacIntel,52.63157895,,,,,,,,,,,,,,,,,
,,,,,,,,,,,,,,,,,,12,28,female,L,IMT,2021-07-15_13h06.22.007,ImageRatingTask_S5,2021.1.4,MacIntel,52.63157895,0,65,65,62,1,DreamStudyImages_rs1000x750g/Mammals/Animals_168_h.jpg,,,,,,,,,,,
,,8,1.276,3,0.555,7,3.436,1,1.214,3,0.778,0,0,0,0,1,main,12,28,female,L,IMT,2021-07-15_13h06.22.007,ImageRatingTask_S5,2021.1.4,MacIntel,52.63157895,,,,,,,,,,,,,,,,,
,,,,,,,,,,,,0,1,1,1,1,second,12,28,female,L,IMT,2021-07-15_13h06.22.007,ImageRatingTask_S5,2021.1.4,MacIntel,52.63157895,,,,,,,,,,,,,,,,,
,,,,,,,,,,,,0,2,2,2,1,third,12,28,female,L,IMT,2021-07-15_13h06.22.007,ImageRatingTask_S5,2021.1.4,MacIntel,52.63157895,,,,,,,,,,,,,,,,,
,,,,,,,,,,,,0,3,3,3,1,fourth,12,28,female,L,IMT,2021-07-15_13h06.22.007,ImageRatingTask_S5,2021.1.4,MacIntel,52.63157895,,,,,,,,,,,,,,,,,
,,,,,,,,,,,,0,4,4,4,1,fifth,12,28,female,L,IMT,2021-07-15_13h06.22.007,ImageRatingTask_S5,2021.1.4,MacIntel,52.63157895,,,,,,,,,,,,,,,,,
,,,,,,,,,,,,0,5,5,5,1,sixth,12,28,female,L,IMT,2021-07-15_13h06.22.007,ImageRatingTask_S5,2021.1.4,MacIntel,52.63157895,,,,,,,,,,,,,,,,,
,,,,,,,,,,,,0,6,6,6,1,seventh,12,28,female,L,IMT,2021-07-15_13h06.22.007,ImageRatingTask_S5,2021.1.4,MacIntel,52.63157895,,,,,,,,,,,,,,,,,
,,,,,,,,,,,,0,7,7,7,1,last,12,28,female,L,IMT,2021-07-15_13h06.22.007,ImageRatingTask_S5,2021.1.4,MacIntel,52.63157895,,,,,,,,,,,,,,,,,
,,,,,,,,,,,,,,,,,,12,28,female,L,IMT,2021-07-15_13h06.22.007,ImageRatingTask_S5,2021.1.4,MacIntel,52.63157895,0,66,66,20,1,DreamStudyImages_rs1000x750g/Mammals/Animals_158_h.jpg,,,,,,,,,,,
,,5,1.252,1,0.268,6,1.288,1,0.595,8,0.547,0,0,0,0,1,main,12,28,female,L,IMT,2021-07-15_13h06.22.007,ImageRatingTask_S5,2021.1.4,MacIntel,52.63157895,,,,,,,,,,,,,,,,,
,,,,,,,,,,,,0,1,1,1,1,second,12,28,female,L,IMT,2021-07-15_13h06.22.007,ImageRatingTask_S5,2021.1.4,MacIntel,52.63157895,,,,,,,,,,,,,,,,,
,,,,,,,,,,,,0,2,2,2,1,third,12,28,female,L,IMT,2021-07-15_13h06.22.007,ImageRatingTask_S5,2021.1.4,MacIntel,52.63157895,,,,,,,,,,,,,,,,,
,,,,,,,,,,,,0,3,3,3,1,fourth,12,28,female,L,IMT,2021-07-15_13h06.22.007,ImageRatingTask_S5,2021.1.4,MacIntel,52.63157895,,,,,,,,,,,,,,,,,
,,,,,,,,,,,,0,4,4,4,1,fifth,12,28,female,L,IMT,2021-07-15_13h06.22.007,ImageRatingTask_S5,2021.1.4,MacIntel,52.63157895,,,,,,,,,,,,,,,,,
,,,,,,,,,,,,0,5,5,5,1,sixth,12,28,female,L,IMT,2021-07-15_13h06.22.007,ImageRatingTask_S5,2021.1.4,MacIntel,52.63157895,,,,,,,,,,,,,,,,,
,,,,,,,,,,,,0,6,6,6,1,seventh,12,28,female,L,IMT,2021-07-15_13h06.22.007,ImageRatingTask_S5,2021.1.4,MacIntel,52.63157895,,,,,,,,,,,,,,,,,
,,,,,,,,,,,,0,7,7,7,1,last,12,28,female,L,IMT,2021-07-15_13h06.22.007,ImageRatingTask_S5,2021.1.4,MacIntel,52.63157895,,,,,,,,,,,,,,,,,
,,,,,,,,,,,,,,,,,,12,28,female,L,IMT,2021-07-15_13h06.22.007,ImageRatingTask_S5,2021.1.4,MacIntel,52.63157895,0,67,67,102,1,DreamStudyImages_rs1000x750g/Water/water_neut_5.jpg,,,,,,,,,,,
,,5,0.993,1,0.347,5,3.091,1,1.079,5,0.354,0,0,0,0,1,main,12,28,female,L,IMT,2021-07-15_13h06.22.007,ImageRatingTask_S5,2021.1.4,MacIntel,52.63157895,,,,,,,,,,,,,,,,,
,,,,,,,,,,,,0,1,1,1,1,second,12,28,female,L,IMT,2021-07-15_13h06.22.007,ImageRatingTask_S5,2021.1.4,MacIntel,52.63157895,,,,,,,,,,,,,,,,,
,,,,,,,,,,,,0,2,2,2,1,third,12,28,female,L,IMT,2021-07-15_13h06.22.007,ImageRatingTask_S5,2021.1.4,MacIntel,52.63157895,,,,,,,,,,,,,,,,,
,,,,,,,,,,,,0,3,3,3,1,fourth,12,28,female,L,IMT,2021-07-15_13h06.22.007,ImageRatingTask_S5,2021.1.4,MacIntel,52.63157895,,,,,,,,,,,,,,,,,
,,,,,,,,,,,,0,4,4,4,1,fifth,12,28,female,L,IMT,2021-07-15_13h06.22.007,ImageRatingTask_S5,2021.1.4,MacIntel,52.63157895,,,,,,,,,,,,,,,,,
,,,,,,,,,,,,0,5,5,5,1,sixth,12,28,female,L,IMT,2021-07-15_13h06.22.007,ImageRatingTask_S5,2021.1.4,MacIntel,52.63157895,,,,,,,,,,,,,,,,,
,,,,,,,,,,,,0,6,6,6,1,seventh,12,28,female,L,IMT,2021-07-15_13h06.22.007,ImageRatingTask_S5,2021.1.4,MacIntel,52.63157895,,,,,,,,,,,,,,,,,
,,,,,,,,,,,,0,7,7,7,1,last,12,28,female,L,IMT,2021-07-15_13h06.22.007,ImageRatingTask_S5,2021.1.4,MacIntel,52.63157895,,,,,,,,,,,,,,,,,
,,,,,,,,,,,,,,,,,,12,28,female,L,IMT,2021-07-15_13h06.22.007,ImageRatingTask_S5,2021.1.4,MacIntel,52.63157895,0,68,68,11,1,DreamStudyImages_rs1000x750g/Food/Objects_089_h.jpg,,,,,,,,,,,
,,5,1.681,1,0.464,6,2.231,1,0.655,7,0.644,0,0,0,0,1,main,12,28,female,L,IMT,2021-07-15_13h06.22.007,ImageRatingTask_S5,2021.1.4,MacIntel,52.63157895,,,,,,,,,,,,,,,,,
,,,,,,,,,,,,0,1,1,1,1,second,12,28,female,L,IMT,2021-07-15_13h06.22.007,ImageRatingTask_S5,2021.1.4,MacIntel,52.63157895,,,,,,,,,,,,,,,,,
,,,,,,,,,,,,0,2,2,2,1,third,12,28,female,L,IMT,2021-07-15_13h06.22.007,ImageRatingTask_S5,2021.1.4,MacIntel,52.63157895,,,,,,,,,,,,,,,,,
,,,,,,,,,,,,0,3,3,3,1,fourth,12,28,female,L,IMT,2021-07-15_13h06.22.007,ImageRatingTask_S5,2021.1.4,MacIntel,52.63157895,,,,,,,,,,,,,,,,,
,,,,,,,,,,,,0,4,4,4,1,fifth,12,28,female,L,IMT,2021-07-15_13h06.22.007,ImageRatingTask_S5,2021.1.4,MacIntel,52.63157895,,,,,,,,,,,,,,,,,
,,,,,,,,,,,,0,5,5,5,1,sixth,12,28,female,L,IMT,2021-07-15_13h06.22.007,ImageRatingTask_S5,2021.1.4,MacIntel,52.63157895,,,,,,,,,,,,,,,,,
,,,,,,,,,,,,0,6,6,6,1,seventh,12,28,female,L,IMT,2021-07-15_13h06.22.007,ImageRatingTask_S5,2021.1.4,MacIntel,52.63157895,,,,,,,,,,,,,,,,,
,,,,,,,,,,,,0,7,7,7,1,last,12,28,female,L,IMT,2021-07-15_13h06.22.007,ImageRatingTask_S5,2021.1.4,MacIntel,52.63157895,,,,,,,,,,,,,,,,,
,,,,,,,,,,,,,,,,,,12,28,female,L,IMT,2021-07-15_13h06.22.007,ImageRatingTask_S5,2021.1.4,MacIntel,52.63157895,0,69,69,18,1,DreamStudyImages_rs1000x750g/Vehicles/7135.jpg,,,,,,,,,,,
,,6,10.772,2,0.42,6,1.245,1,0.504,5,0.455,0,0,0,0,1,main,12,28,female,L,IMT,2021-07-15_13h06.22.007,ImageRatingTask_S5,2021.1.4,MacIntel,52.63157895,,,,,,,,,,,,,,,,,
,,,,,,,,,,,,0,1,1,1,1,second,12,28,female,L,IMT,2021-07-15_13h06.22.007,ImageRatingTask_S5,2021.1.4,MacIntel,52.63157895,,,,,,,,,,,,,,,,,
,,,,,,,,,,,,0,2,2,2,1,third,12,28,female,L,IMT,2021-07-15_13h06.22.007,ImageRatingTask_S5,2021.1.4,MacIntel,52.63157895,,,,,,,,,,,,,,,,,
,,,,,,,,,,,,0,3,3,3,1,fourth,12,28,female,L,IMT,2021-07-15_13h06.22.007,ImageRatingTask_S5,2021.1.4,MacIntel,52.63157895,,,,,,,,,,,,,,,,,
,,,,,,,,,,,,0,4,4,4,1,fifth,12,28,female,L,IMT,2021-07-15_13h06.22.007,ImageRatingTask_S5,2021.1.4,MacIntel,52.63157895,,,,,,,,,,,,,,,,,
,,,,,,,,,,,,0,5,5,5,1,sixth,12,28,female,L,IMT,2021-07-15_13h06.22.007,ImageRatingTask_S5,2021.1.4,MacIntel,52.63157895,,,,,,,,,,,,,,,,,
,,,,,,,,,,,,0,6,6,6,1,seventh,12,28,female,L,IMT,2021-07-15_13h06.22.007,ImageRatingTask_S5,2021.1.4,MacIntel,52.63157895,,,,,,,,,,,,,,,,,
,,,,,,,,,,,,0,7,7,7,1,last,12,28,female,L,IMT,2021-07-15_13h06.22.007,ImageRatingTask_S5,2021.1.4,MacIntel,52.63157895,,,,,,,,,,,,,,,,,
,,,,,,,,,,,,,,,,,,12,28,female,L,IMT,2021-07-15_13h06.22.007,ImageRatingTask_S5,2021.1.4,MacIntel,52.63157895,0,70,70,77,1,DreamStudyImages_rs1000x750g/Food/Objects_102_v.jpg,,,,,,,,,,,
,,5,0.979,1,0.367,6,1.13,1,0.887,6,0.669,0,0,0,0,1,main,12,28,female,L,IMT,2021-07-15_13h06.22.007,ImageRatingTask_S5,2021.1.4,MacIntel,52.63157895,,,,,,,,,,,,,,,,,
,,,,,,,,,,,,0,1,1,1,1,second,12,28,female,L,IMT,2021-07-15_13h06.22.007,ImageRatingTask_S5,2021.1.4,MacIntel,52.63157895,,,,,,,,,,,,,,,,,
,,,,,,,,,,,,0,2,2,2,1,third,12,28,female,L,IMT,2021-07-15_13h06.22.007,ImageRatingTask_S5,2021.1.4,MacIntel,52.63157895,,,,,,,,,,,,,,,,,
,,,,,,,,,,,,0,3,3,3,1,fourth,12,28,female,L,IMT,2021-07-15_13h06.22.007,ImageRatingTask_S5,2021.1.4,MacIntel,52.63157895,,,,,,,,,,,,,,,,,
,,,,,,,,,,,,0,4,4,4,1,fifth,12,28,female,L,IMT,2021-07-15_13h06.22.007,ImageRatingTask_S5,2021.1.4,MacIntel,52.63157895,,,,,,,,,,,,,,,,,
,,,,,,,,,,,,0,5,5,5,1,sixth,12,28,female,L,IMT,2021-07-15_13h06.22.007,ImageRatingTask_S5,2021.1.4,MacIntel,52.63157895,,,,,,,,,,,,,,,,,
,,,,,,,,,,,,0,6,6,6,1,seventh,12,28,female,L,IMT,2021-07-15_13h06.22.007,ImageRatingTask_S5,2021.1.4,MacIntel,52.63157895,,,,,,,,,,,,,,,,,
,,,,,,,,,,,,0,7,7,7,1,last,12,28,female,L,IMT,2021-07-15_13h06.22.007,ImageRatingTask_S5,2021.1.4,MacIntel,52.63157895,,,,,,,,,,,,,,,,,
,,,,,,,,,,,,,,,,,,12,28,female,L,IMT,2021-07-15_13h06.22.007,ImageRatingTask_S5,2021.1.4,MacIntel,52.63157895,0,71,71,44,1,DreamStudyImages_rs1000x750g/Houses/Objects_130_h.jpg,,,,,,,,,,,
,,6,1.308,2,0.401,5,2.44,1,0.407,3,0.943,0,0,0,0,1,main,12,28,female,L,IMT,2021-07-15_13h06.22.007,ImageRatingTask_S5,2021.1.4,MacIntel,52.63157895,,,,,,,,,,,,,,,,,
,,,,,,,,,,,,0,1,1,1,1,second,12,28,female,L,IMT,2021-07-15_13h06.22.007,ImageRatingTask_S5,2021.1.4,MacIntel,52.63157895,,,,,,,,,,,,,,,,,
,,,,,,,,,,,,0,2,2,2,1,third,12,28,female,L,IMT,2021-07-15_13h06.22.007,ImageRatingTask_S5,2021.1.4,MacIntel,52.63157895,,,,,,,,,,,,,,,,,
,,,,,,,,,,,,0,3,3,3,1,fourth,12,28,female,L,IMT,2021-07-15_13h06.22.007,ImageRatingTask_S5,2021.1.4,MacIntel,52.63157895,,,,,,,,,,,,,,,,,
,,,,,,,,,,,,0,4,4,4,1,fifth,12,28,female,L,IMT,2021-07-15_13h06.22.007,ImageRatingTask_S5,2021.1.4,MacIntel,52.63157895,,,,,,,,,,,,,,,,,
,,,,,,,,,,,,0,5,5,5,1,sixth,12,28,female,L,IMT,2021-07-15_13h06.22.007,ImageRatingTask_S5,2021.1.4,MacIntel,52.63157895,,,,,,,,,,,,,,,,,
,,,,,,,,,,,,0,6,6,6,1,seventh,12,28,female,L,IMT,2021-07-15_13h06.22.007,ImageRatingTask_S5,2021.1.4,MacIntel,52.63157895,,,,,,,,,,,,,,,,,
,,,,,,,,,,,,0,7,7,7,1,last,12,28,female,L,IMT,2021-07-15_13h06.22.007,ImageRatingTask_S5,2021.1.4,MacIntel,52.63157895,,,,,,,,,,,,,,,,,
,,,,,,,,,,,,,,,,,,12,28,female,L,IMT,2021-07-15_13h06.22.007,ImageRatingTask_S5,2021.1.4,MacIntel,52.63157895,0,72,72,55,1,DreamStudyImages_rs1000x750g/Mammals/IAPS1670_cow.jpg,,,,,,,,,,,
,,6,1.702,2,0.447,6,2.653,1,0.729,2,0.377,0,0,0,0,1,main,12,28,female,L,IMT,2021-07-15_13h06.22.007,ImageRatingTask_S5,2021.1.4,MacIntel,52.63157895,,,,,,,,,,,,,,,,,
,,,,,,,,,,,,0,1,1,1,1,second,12,28,female,L,IMT,2021-07-15_13h06.22.007,ImageRatingTask_S5,2021.1.4,MacIntel,52.63157895,,,,,,,,,,,,,,,,,
,,,,,,,,,,,,0,2,2,2,1,third,12,28,female,L,IMT,2021-07-15_13h06.22.007,ImageRatingTask_S5,2021.1.4,MacIntel,52.63157895,,,,,,,,,,,,,,,,,
,,,,,,,,,,,,0,3,3,3,1,fourth,12,28,female,L,IMT,2021-07-15_13h06.22.007,ImageRatingTask_S5,2021.1.4,MacIntel,52.63157895,,,,,,,,,,,,,,,,,
,,,,,,,,,,,,0,4,4,4,1,fifth,12,28,female,L,IMT,2021-07-15_13h06.22.007,ImageRatingTask_S5,2021.1.4,MacIntel,52.63157895,,,,,,,,,,,,,,,,,
,,,,,,,,,,,,0,5,5,5,1,sixth,12,28,female,L,IMT,2021-07-15_13h06.22.007,ImageRatingTask_S5,2021.1.4,MacIntel,52.63157895,,,,,,,,,,,,,,,,,
,,,,,,,,,,,,0,6,6,6,1,seventh,12,28,female,L,IMT,2021-07-15_13h06.22.007,ImageRatingTask_S5,2021.1.4,MacIntel,52.63157895,,,,,,,,,,,,,,,,,
,,,,,,,,,,,,0,7,7,7,1,last,12,28,female,L,IMT,2021-07-15_13h06.22.007,ImageRatingTask_S5,2021.1.4,MacIntel,52.63157895,,,,,,,,,,,,,,,,,
,,,,,,,,,,,,,,,,,,12,28,female,L,IMT,2021-07-15_13h06.22.007,ImageRatingTask_S5,2021.1.4,MacIntel,52.63157895,0,73,73,109,1,DreamStudyImages_rs1000x750g/Children/IAPS2347_children12.jpg,,,,,,,,,,,
,,6,1.162,2,0.411,6,1.94,1,0.449,5,0.6,0,0,0,0,1,main,12,28,female,L,IMT,2021-07-15_13h06.22.007,ImageRatingTask_S5,2021.1.4,MacIntel,52.63157895,,,,,,,,,,,,,,,,,
,,,,,,,,,,,,0,1,1,1,1,second,12,28,female,L,IMT,2021-07-15_13h06.22.007,ImageRatingTask_S5,2021.1.4,MacIntel,52.63157895,,,,,,,,,,,,,,,,,
,,,,,,,,,,,,0,2,2,2,1,third,12,28,female,L,IMT,2021-07-15_13h06.22.007,ImageRatingTask_S5,2021.1.4,MacIntel,52.63157895,,,,,,,,,,,,,,,,,
,,,,,,,,,,,,0,3,3,3,1,fourth,12,28,female,L,IMT,2021-07-15_13h06.22.007,ImageRatingTask_S5,2021.1.4,MacIntel,52.63157895,,,,,,,,,,,,,,,,,
,,,,,,,,,,,,0,4,4,4,1,fifth,12,28,female,L,IMT,2021-07-15_13h06.22.007,ImageRatingTask_S5,2021.1.4,MacIntel,52.63157895,,,,,,,,,,,,,,,,,
,,,,,,,,,,,,0,5,5,5,1,sixth,12,28,female,L,IMT,2021-07-15_13h06.22.007,ImageRatingTask_S5,2021.1.4,MacIntel,52.63157895,,,,,,,,,,,,,,,,,
,,,,,,,,,,,,0,6,6,6,1,seventh,12,28,female,L,IMT,2021-07-15_13h06.22.007,ImageRatingTask_S5,2021.1.4,MacIntel,52.63157895,,,,,,,,,,,,,,,,,
,,,,,,,,,,,,0,7,7,7,1,last,12,28,female,L,IMT,2021-07-15_13h06.22.007,ImageRatingTask_S5,2021.1.4,MacIntel,52.63157895,,,,,,,,,,,,,,,,,
,,,,,,,,,,,,,,,,,,12,28,female,L,IMT,2021-07-15_13h06.22.007,ImageRatingTask_S5,2021.1.4,MacIntel,52.63157895,0,74,74,103,1,DreamStudyImages_rs1000x750g/Food/Food 1.jpg,,,,,,,,,,,
,,3,1.992,1,0.496,5,2.941,1,1.49,1,0.228,0,0,0,0,1,main,12,28,female,L,IMT,2021-07-15_13h06.22.007,ImageRatingTask_S5,2021.1.4,MacIntel,52.63157895,,,,,,,,,,,,,,,,,
,,,,,,,,,,,,0,1,1,1,1,second,12,28,female,L,IMT,2021-07-15_13h06.22.007,ImageRatingTask_S5,2021.1.4,MacIntel,52.63157895,,,,,,,,,,,,,,,,,
,,,,,,,,,,,,0,2,2,2,1,third,12,28,female,L,IMT,2021-07-15_13h06.22.007,ImageRatingTask_S5,2021.1.4,MacIntel,52.63157895,,,,,,,,,,,,,,,,,
,,,,,,,,,,,,0,3,3,3,1,fourth,12,28,female,L,IMT,2021-07-15_13h06.22.007,ImageRatingTask_S5,2021.1.4,MacIntel,52.63157895,,,,,,,,,,,,,,,,,
,,,,,,,,,,,,0,4,4,4,1,fifth,12,28,female,L,IMT,2021-07-15_13h06.22.007,ImageRatingTask_S5,2021.1.4,MacIntel,52.63157895,,,,,,,,,,,,,,,,,
