slider_pre.response,slider_pre.rt,key_val.keys,key_val.rt,key_aro.keys,key_aro.rt,key_qual.keys,key_qual.rt,key_ncat.keys,key_ncat.rt,key_cats.keys,key_cats.rt,ncat_order.thisRepN,ncat_order.thisTrialN,ncat_order.thisN,ncat_order.thisIndex,ncat_order.ran,cond_cat,participant,age,gender,handedness (L/R),site (IMT/Donders),date,expName,psychopyVersion,OS,frameRate,img_trials.thisRepN,img_trials.thisTrialN,img_trials.thisN,img_trials.thisIndex,img_trials.ran,filename,slider_post.response,slider_post.rt,textbox_openfb.text
6,7.916,5,4.422,1,2.234,9,3.183,1,2.224,6,1.169,0,0,0,0,1,main,13,26,F,R,IMT,2021-07-11_09h46.12.250,ImageRatingTask_S2,2021.1.4,Win32,59.95203837,,,,,,,,,
,,,,,,,,,,,,0,1,1,1,1,second,13,26,F,R,IMT,2021-07-11_09h46.12.250,ImageRatingTask_S2,2021.1.4,Win32,59.95203837,,,,,,,,,
,,,,,,,,,,,,0,2,2,2,1,third,13,26,F,R,IMT,2021-07-11_09h46.12.250,ImageRatingTask_S2,2021.1.4,Win32,59.95203837,,,,,,,,,
,,,,,,,,,,,,0,3,3,3,1,fourth,13,26,F,R,IMT,2021-07-11_09h46.12.250,ImageRatingTask_S2,2021.1.4,Win32,59.95203837,,,,,,,,,
,,,,,,,,,,,,0,4,4,4,1,fifth,13,26,F,R,IMT,2021-07-11_09h46.12.250,ImageRatingTask_S2,2021.1.4,Win32,59.95203837,,,,,,,,,
,,,,,,,,,,,,0,5,5,5,1,sixth,13,26,F,R,IMT,2021-07-11_09h46.12.250,ImageRatingTask_S2,2021.1.4,Win32,59.95203837,,,,,,,,,
,,,,,,,,,,,,0,6,6,6,1,seventh,13,26,F,R,IMT,2021-07-11_09h46.12.250,ImageRatingTask_S2,2021.1.4,Win32,59.95203837,,,,,,,,,
,,,,,,,,,,,,0,7,7,7,1,last,13,26,F,R,IMT,2021-07-11_09h46.12.250,ImageRatingTask_S2,2021.1.4,Win32,59.95203837,,,,,,,,,
,,,,,,,,,,,,,,,,,,13,26,F,R,IMT,2021-07-11_09h46.12.250,ImageRatingTask_S2,2021.1.4,Win32,59.95203837,0,0,0,78,1,DreamStudyImages_rs1000x750g/Food/Objects_027_h.jpg,,,
,,4,4.884,3,2.67,9,2.646,1,1.935,7,1.143,0,0,0,0,1,main,13,26,F,R,IMT,2021-07-11_09h46.12.250,ImageRatingTask_S2,2021.1.4,Win32,59.95203837,,,,,,,,,
,,,,,,,,,,,,0,1,1,1,1,second,13,26,F,R,IMT,2021-07-11_09h46.12.250,ImageRatingTask_S2,2021.1.4,Win32,59.95203837,,,,,,,,,
,,,,,,,,,,,,0,2,2,2,1,third,13,26,F,R,IMT,2021-07-11_09h46.12.250,ImageRatingTask_S2,2021.1.4,Win32,59.95203837,,,,,,,,,
,,,,,,,,,,,,0,3,3,3,1,fourth,13,26,F,R,IMT,2021-07-11_09h46.12.250,ImageRatingTask_S2,2021.1.4,Win32,59.95203837,,,,,,,,,
,,,,,,,,,,,,0,4,4,4,1,fifth,13,26,F,R,IMT,2021-07-11_09h46.12.250,ImageRatingTask_S2,2021.1.4,Win32,59.95203837,,,,,,,,,
,,,,,,,,,,,,0,5,5,5,1,sixth,13,26,F,R,IMT,2021-07-11_09h46.12.250,ImageRatingTask_S2,2021.1.4,Win32,59.95203837,,,,,,,,,
,,,,,,,,,,,,0,6,6,6,1,seventh,13,26,F,R,IMT,2021-07-11_09h46.12.250,ImageRatingTask_S2,2021.1.4,Win32,59.95203837,,,,,,,,,
,,,,,,,,,,,,0,7,7,7,1,last,13,26,F,R,IMT,2021-07-11_09h46.12.250,ImageRatingTask_S2,2021.1.4,Win32,59.95203837,,,,,,,,,
,,,,,,,,,,,,,,,,,,13,26,F,R,IMT,2021-07-11_09h46.12.250,ImageRatingTask_S2,2021.1.4,Win32,59.95203837,0,1,1,123,1,DreamStudyImages_rs1000x750g/Vehicles/Objects_002_h.jpg,,,
,,5,3.984,1,0.601,6,2.181,1,1.128,8,8.415,0,0,0,0,1,main,13,26,F,R,IMT,2021-07-11_09h46.12.250,ImageRatingTask_S2,2021.1.4,Win32,59.95203837,,,,,,,,,
,,,,,,,,,,,,0,1,1,1,1,second,13,26,F,R,IMT,2021-07-11_09h46.12.250,ImageRatingTask_S2,2021.1.4,Win32,59.95203837,,,,,,,,,
,,,,,,,,,,,,0,2,2,2,1,third,13,26,F,R,IMT,2021-07-11_09h46.12.250,ImageRatingTask_S2,2021.1.4,Win32,59.95203837,,,,,,,,,
,,,,,,,,,,,,0,3,3,3,1,fourth,13,26,F,R,IMT,2021-07-11_09h46.12.250,ImageRatingTask_S2,2021.1.4,Win32,59.95203837,,,,,,,,,
,,,,,,,,,,,,0,4,4,4,1,fifth,13,26,F,R,IMT,2021-07-11_09h46.12.250,ImageRatingTask_S2,2021.1.4,Win32,59.95203837,,,,,,,,,
,,,,,,,,,,,,0,5,5,5,1,sixth,13,26,F,R,IMT,2021-07-11_09h46.12.250,ImageRatingTask_S2,2021.1.4,Win32,59.95203837,,,,,,,,,
,,,,,,,,,,,,0,6,6,6,1,seventh,13,26,F,R,IMT,2021-07-11_09h46.12.250,ImageRatingTask_S2,2021.1.4,Win32,59.95203837,,,,,,,,,
,,,,,,,,,,,,0,7,7,7,1,last,13,26,F,R,IMT,2021-07-11_09h46.12.250,ImageRatingTask_S2,2021.1.4,Win32,59.95203837,,,,,,,,,
,,,,,,,,,,,,,,,,,,13,26,F,R,IMT,2021-07-11_09h46.12.250,ImageRatingTask_S2,2021.1.4,Win32,59.95203837,0,2,2,103,1,DreamStudyImages_rs1000x750g/Water/IAPS5814_tropicalbeach.jpg,,,
,,5,10.822,1,5.487,7,3.798,2,1.298,8,2.094,0,0,0,0,1,main,13,26,F,R,IMT,2021-07-11_09h46.12.250,ImageRatingTask_S2,2021.1.4,Win32,59.95203837,,,,,,,,,
,,,,,,,,,,4,2.606,0,1,1,1,1,second,13,26,F,R,IMT,2021-07-11_09h46.12.250,ImageRatingTask_S2,2021.1.4,Win32,59.95203837,,,,,,,,,
,,,,,,,,,,,,0,2,2,2,1,third,13,26,F,R,IMT,2021-07-11_09h46.12.250,ImageRatingTask_S2,2021.1.4,Win32,59.95203837,,,,,,,,,
,,,,,,,,,,,,0,3,3,3,1,fourth,13,26,F,R,IMT,2021-07-11_09h46.12.250,ImageRatingTask_S2,2021.1.4,Win32,59.95203837,,,,,,,,,
,,,,,,,,,,,,0,4,4,4,1,fifth,13,26,F,R,IMT,2021-07-11_09h46.12.250,ImageRatingTask_S2,2021.1.4,Win32,59.95203837,,,,,,,,,
,,,,,,,,,,,,0,5,5,5,1,sixth,13,26,F,R,IMT,2021-07-11_09h46.12.250,ImageRatingTask_S2,2021.1.4,Win32,59.95203837,,,,,,,,,
,,,,,,,,,,,,0,6,6,6,1,seventh,13,26,F,R,IMT,2021-07-11_09h46.12.250,ImageRatingTask_S2,2021.1.4,Win32,59.95203837,,,,,,,,,
,,,,,,,,,,,,0,7,7,7,1,last,13,26,F,R,IMT,2021-07-11_09h46.12.250,ImageRatingTask_S2,2021.1.4,Win32,59.95203837,,,,,,,,,
,,,,,,,,,,,,,,,,,,13,26,F,R,IMT,2021-07-11_09h46.12.250,ImageRatingTask_S2,2021.1.4,Win32,59.95203837,0,3,3,35,1,DreamStudyImages_rs1000x750g/Water/Landscapes_129_v.jpg,,,
,,5,3.008,1,0.833,9,3.049,1,1.606,6,1.488,0,0,0,0,1,main,13,26,F,R,IMT,2021-07-11_09h46.12.250,ImageRatingTask_S2,2021.1.4,Win32,59.95203837,,,,,,,,,
,,,,,,,,,,,,0,1,1,1,1,second,13,26,F,R,IMT,2021-07-11_09h46.12.250,ImageRatingTask_S2,2021.1.4,Win32,59.95203837,,,,,,,,,
,,,,,,,,,,,,0,2,2,2,1,third,13,26,F,R,IMT,2021-07-11_09h46.12.250,ImageRatingTask_S2,2021.1.4,Win32,59.95203837,,,,,,,,,
,,,,,,,,,,,,0,3,3,3,1,fourth,13,26,F,R,IMT,2021-07-11_09h46.12.250,ImageRatingTask_S2,2021.1.4,Win32,59.95203837,,,,,,,,,
,,,,,,,,,,,,0,4,4,4,1,fifth,13,26,F,R,IMT,2021-07-11_09h46.12.250,ImageRatingTask_S2,2021.1.4,Win32,59.95203837,,,,,,,,,
,,,,,,,,,,,,0,5,5,5,1,sixth,13,26,F,R,IMT,2021-07-11_09h46.12.250,ImageRatingTask_S2,2021.1.4,Win32,59.95203837,,,,,,,,,
,,,,,,,,,,,,0,6,6,6,1,seventh,13,26,F,R,IMT,2021-07-11_09h46.12.250,ImageRatingTask_S2,2021.1.4,Win32,59.95203837,,,,,,,,,
,,,,,,,,,,,,0,7,7,7,1,last,13,26,F,R,IMT,2021-07-11_09h46.12.250,ImageRatingTask_S2,2021.1.4,Win32,59.95203837,,,,,,,,,
,,,,,,,,,,,,,,,,,,13,26,F,R,IMT,2021-07-11_09h46.12.250,ImageRatingTask_S2,2021.1.4,Win32,59.95203837,0,4,4,152,1,DreamStudyImages_rs1000x750g/Houses/Objects_210_h.jpg,,,
,,5,1.809,1,1.269,9,2.135,1,0.881,5,0.768,0,0,0,0,1,main,13,26,F,R,IMT,2021-07-11_09h46.12.250,ImageRatingTask_S2,2021.1.4,Win32,59.95203837,,,,,,,,,
,,,,,,,,,,,,0,1,1,1,1,second,13,26,F,R,IMT,2021-07-11_09h46.12.250,ImageRatingTask_S2,2021.1.4,Win32,59.95203837,,,,,,,,,
,,,,,,,,,,,,0,2,2,2,1,third,13,26,F,R,IMT,2021-07-11_09h46.12.250,ImageRatingTask_S2,2021.1.4,Win32,59.95203837,,,,,,,,,
,,,,,,,,,,,,0,3,3,3,1,fourth,13,26,F,R,IMT,2021-07-11_09h46.12.250,ImageRatingTask_S2,2021.1.4,Win32,59.95203837,,,,,,,,,
,,,,,,,,,,,,0,4,4,4,1,fifth,13,26,F,R,IMT,2021-07-11_09h46.12.250,ImageRatingTask_S2,2021.1.4,Win32,59.95203837,,,,,,,,,
,,,,,,,,,,,,0,5,5,5,1,sixth,13,26,F,R,IMT,2021-07-11_09h46.12.250,ImageRatingTask_S2,2021.1.4,Win32,59.95203837,,,,,,,,,
,,,,,,,,,,,,0,6,6,6,1,seventh,13,26,F,R,IMT,2021-07-11_09h46.12.250,ImageRatingTask_S2,2021.1.4,Win32,59.95203837,,,,,,,,,
,,,,,,,,,,,,0,7,7,7,1,last,13,26,F,R,IMT,2021-07-11_09h46.12.250,ImageRatingTask_S2,2021.1.4,Win32,59.95203837,,,,,,,,,
,,,,,,,,,,,,,,,,,,13,26,F,R,IMT,2021-07-11_09h46.12.250,ImageRatingTask_S2,2021.1.4,Win32,59.95203837,0,5,5,55,1,DreamStudyImages_rs1000x750g/Food/Objects_101_h.jpg,,,
,,3,4.511,5,0.851,6,1.757,1,2.468,6,1.413,0,0,0,0,1,main,13,26,F,R,IMT,2021-07-11_09h46.12.250,ImageRatingTask_S2,2021.1.4,Win32,59.95203837,,,,,,,,,
,,,,,,,,,,,,0,1,1,1,1,second,13,26,F,R,IMT,2021-07-11_09h46.12.250,ImageRatingTask_S2,2021.1.4,Win32,59.95203837,,,,,,,,,
,,,,,,,,,,,,0,2,2,2,1,third,13,26,F,R,IMT,2021-07-11_09h46.12.250,ImageRatingTask_S2,2021.1.4,Win32,59.95203837,,,,,,,,,
,,,,,,,,,,,,0,3,3,3,1,fourth,13,26,F,R,IMT,2021-07-11_09h46.12.250,ImageRatingTask_S2,2021.1.4,Win32,59.95203837,,,,,,,,,
,,,,,,,,,,,,0,4,4,4,1,fifth,13,26,F,R,IMT,2021-07-11_09h46.12.250,ImageRatingTask_S2,2021.1.4,Win32,59.95203837,,,,,,,,,
,,,,,,,,,,,,0,5,5,5,1,sixth,13,26,F,R,IMT,2021-07-11_09h46.12.250,ImageRatingTask_S2,2021.1.4,Win32,59.95203837,,,,,,,,,
,,,,,,,,,,,,0,6,6,6,1,seventh,13,26,F,R,IMT,2021-07-11_09h46.12.250,ImageRatingTask_S2,2021.1.4,Win32,59.95203837,,,,,,,,,
,,,,,,,,,,,,0,7,7,7,1,last,13,26,F,R,IMT,2021-07-11_09h46.12.250,ImageRatingTask_S2,2021.1.4,Win32,59.95203837,,,,,,,,,
,,,,,,,,,,,,,,,,,,13,26,F,R,IMT,2021-07-11_09h46.12.250,ImageRatingTask_S2,2021.1.4,Win32,59.95203837,0,6,6,136,1,DreamStudyImages_rs1000x750g/Houses/9941.jpg,,,
,,1,2.818,9,2.004,9,2.494,1,2.016,3,7.862,0,0,0,0,1,main,13,26,F,R,IMT,2021-07-11_09h46.12.250,ImageRatingTask_S2,2021.1.4,Win32,59.95203837,,,,,,,,,
,,,,,,,,,,,,0,1,1,1,1,second,13,26,F,R,IMT,2021-07-11_09h46.12.250,ImageRatingTask_S2,2021.1.4,Win32,59.95203837,,,,,,,,,
,,,,,,,,,,,,0,2,2,2,1,third,13,26,F,R,IMT,2021-07-11_09h46.12.250,ImageRatingTask_S2,2021.1.4,Win32,59.95203837,,,,,,,,,
,,,,,,,,,,,,0,3,3,3,1,fourth,13,26,F,R,IMT,2021-07-11_09h46.12.250,ImageRatingTask_S2,2021.1.4,Win32,59.95203837,,,,,,,,,
,,,,,,,,,,,,0,4,4,4,1,fifth,13,26,F,R,IMT,2021-07-11_09h46.12.250,ImageRatingTask_S2,2021.1.4,Win32,59.95203837,,,,,,,,,
,,,,,,,,,,,,0,5,5,5,1,sixth,13,26,F,R,IMT,2021-07-11_09h46.12.250,ImageRatingTask_S2,2021.1.4,Win32,59.95203837,,,,,,,,,
,,,,,,,,,,,,0,6,6,6,1,seventh,13,26,F,R,IMT,2021-07-11_09h46.12.250,ImageRatingTask_S2,2021.1.4,Win32,59.95203837,,,,,,,,,
,,,,,,,,,,,,0,7,7,7,1,last,13,26,F,R,IMT,2021-07-11_09h46.12.250,ImageRatingTask_S2,2021.1.4,Win32,59.95203837,,,,,,,,,
,,,,,,,,,,,,,,,,,,13,26,F,R,IMT,2021-07-11_09h46.12.250,ImageRatingTask_S2,2021.1.4,Win32,59.95203837,0,7,7,76,1,DreamStudyImages_rs1000x750g/Mammals/Animals_211_h.jpg,,,
,,5,2.756,1,0.584,7,1.482,1,4.268,7,0.763,0,0,0,0,1,main,13,26,F,R,IMT,2021-07-11_09h46.12.250,ImageRatingTask_S2,2021.1.4,Win32,59.95203837,,,,,,,,,
,,,,,,,,,,,,0,1,1,1,1,second,13,26,F,R,IMT,2021-07-11_09h46.12.250,ImageRatingTask_S2,2021.1.4,Win32,59.95203837,,,,,,,,,
,,,,,,,,,,,,0,2,2,2,1,third,13,26,F,R,IMT,2021-07-11_09h46.12.250,ImageRatingTask_S2,2021.1.4,Win32,59.95203837,,,,,,,,,
,,,,,,,,,,,,0,3,3,3,1,fourth,13,26,F,R,IMT,2021-07-11_09h46.12.250,ImageRatingTask_S2,2021.1.4,Win32,59.95203837,,,,,,,,,
,,,,,,,,,,,,0,4,4,4,1,fifth,13,26,F,R,IMT,2021-07-11_09h46.12.250,ImageRatingTask_S2,2021.1.4,Win32,59.95203837,,,,,,,,,
,,,,,,,,,,,,0,5,5,5,1,sixth,13,26,F,R,IMT,2021-07-11_09h46.12.250,ImageRatingTask_S2,2021.1.4,Win32,59.95203837,,,,,,,,,
,,,,,,,,,,,,0,6,6,6,1,seventh,13,26,F,R,IMT,2021-07-11_09h46.12.250,ImageRatingTask_S2,2021.1.4,Win32,59.95203837,,,,,,,,,
,,,,,,,,,,,,0,7,7,7,1,last,13,26,F,R,IMT,2021-07-11_09h46.12.250,ImageRatingTask_S2,2021.1.4,Win32,59.95203837,,,,,,,,,
,,,,,,,,,,,,,,,,,,13,26,F,R,IMT,2021-07-11_09h46.12.250,ImageRatingTask_S2,2021.1.4,Win32,59.95203837,0,8,8,53,1,DreamStudyImages_rs1000x750g/Vehicles/trainwagon.jpg,,,
,,5,2.42,1,0.553,7,2.102,1,2.265,8,1.095,0,0,0,0,1,main,13,26,F,R,IMT,2021-07-11_09h46.12.250,ImageRatingTask_S2,2021.1.4,Win32,59.95203837,,,,,,,,,
,,,,,,,,,,,,0,1,1,1,1,second,13,26,F,R,IMT,2021-07-11_09h46.12.250,ImageRatingTask_S2,2021.1.4,Win32,59.95203837,,,,,,,,,
,,,,,,,,,,,,0,2,2,2,1,third,13,26,F,R,IMT,2021-07-11_09h46.12.250,ImageRatingTask_S2,2021.1.4,Win32,59.95203837,,,,,,,,,
,,,,,,,,,,,,0,3,3,3,1,fourth,13,26,F,R,IMT,2021-07-11_09h46.12.250,ImageRatingTask_S2,2021.1.4,Win32,59.95203837,,,,,,,,,
,,,,,,,,,,,,0,4,4,4,1,fifth,13,26,F,R,IMT,2021-07-11_09h46.12.250,ImageRatingTask_S2,2021.1.4,Win32,59.95203837,,,,,,,,,
,,,,,,,,,,,,0,5,5,5,1,sixth,13,26,F,R,IMT,2021-07-11_09h46.12.250,ImageRatingTask_S2,2021.1.4,Win32,59.95203837,,,,,,,,,
,,,,,,,,,,,,0,6,6,6,1,seventh,13,26,F,R,IMT,2021-07-11_09h46.12.250,ImageRatingTask_S2,2021.1.4,Win32,59.95203837,,,,,,,,,
,,,,,,,,,,,,0,7,7,7,1,last,13,26,F,R,IMT,2021-07-11_09h46.12.250,ImageRatingTask_S2,2021.1.4,Win32,59.95203837,,,,,,,,,
,,,,,,,,,,,,,,,,,,13,26,F,R,IMT,2021-07-11_09h46.12.250,ImageRatingTask_S2,2021.1.4,Win32,59.95203837,0,9,9,16,1,DreamStudyImages_rs1000x750g/Water/landscapes_181_h_EDITED.jpg,,,
,,3,4.821,3,1.358,9,2.918,1,3.716,6,0.926,0,0,0,0,1,main,13,26,F,R,IMT,2021-07-11_09h46.12.250,ImageRatingTask_S2,2021.1.4,Win32,59.95203837,,,,,,,,,
,,,,,,,,,,,,0,1,1,1,1,second,13,26,F,R,IMT,2021-07-11_09h46.12.250,ImageRatingTask_S2,2021.1.4,Win32,59.95203837,,,,,,,,,
,,,,,,,,,,,,0,2,2,2,1,third,13,26,F,R,IMT,2021-07-11_09h46.12.250,ImageRatingTask_S2,2021.1.4,Win32,59.95203837,,,,,,,,,
,,,,,,,,,,,,0,3,3,3,1,fourth,13,26,F,R,IMT,2021-07-11_09h46.12.250,ImageRatingTask_S2,2021.1.4,Win32,59.95203837,,,,,,,,,
,,,,,,,,,,,,0,4,4,4,1,fifth,13,26,F,R,IMT,2021-07-11_09h46.12.250,ImageRatingTask_S2,2021.1.4,Win32,59.95203837,,,,,,,,,
,,,,,,,,,,,,0,5,5,5,1,sixth,13,26,F,R,IMT,2021-07-11_09h46.12.250,ImageRatingTask_S2,2021.1.4,Win32,59.95203837,,,,,,,,,
,,,,,,,,,,,,0,6,6,6,1,seventh,13,26,F,R,IMT,2021-07-11_09h46.12.250,ImageRatingTask_S2,2021.1.4,Win32,59.95203837,,,,,,,,,
,,,,,,,,,,,,0,7,7,7,1,last,13,26,F,R,IMT,2021-07-11_09h46.12.250,ImageRatingTask_S2,2021.1.4,Win32,59.95203837,,,,,,,,,
,,,,,,,,,,,,,,,,,,13,26,F,R,IMT,2021-07-11_09h46.12.250,ImageRatingTask_S2,2021.1.4,Win32,59.95203837,0,10,10,25,1,DreamStudyImages_rs1000x750g/Houses/IAPS9469_ruins.jpg,,,
,,6,8,2,1.238,9,1.186,1,2.134,3,0.863,0,0,0,0,1,main,13,26,F,R,IMT,2021-07-11_09h46.12.250,ImageRatingTask_S2,2021.1.4,Win32,59.95203837,,,,,,,,,
,,,,,,,,,,,,0,1,1,1,1,second,13,26,F,R,IMT,2021-07-11_09h46.12.250,ImageRatingTask_S2,2021.1.4,Win32,59.95203837,,,,,,,,,
,,,,,,,,,,,,0,2,2,2,1,third,13,26,F,R,IMT,2021-07-11_09h46.12.250,ImageRatingTask_S2,2021.1.4,Win32,59.95203837,,,,,,,,,
,,,,,,,,,,,,0,3,3,3,1,fourth,13,26,F,R,IMT,2021-07-11_09h46.12.250,ImageRatingTask_S2,2021.1.4,Win32,59.95203837,,,,,,,,,
,,,,,,,,,,,,0,4,4,4,1,fifth,13,26,F,R,IMT,2021-07-11_09h46.12.250,ImageRatingTask_S2,2021.1.4,Win32,59.95203837,,,,,,,,,
,,,,,,,,,,,,0,5,5,5,1,sixth,13,26,F,R,IMT,2021-07-11_09h46.12.250,ImageRatingTask_S2,2021.1.4,Win32,59.95203837,,,,,,,,,
,,,,,,,,,,,,0,6,6,6,1,seventh,13,26,F,R,IMT,2021-07-11_09h46.12.250,ImageRatingTask_S2,2021.1.4,Win32,59.95203837,,,,,,,,,
,,,,,,,,,,,,0,7,7,7,1,last,13,26,F,R,IMT,2021-07-11_09h46.12.250,ImageRatingTask_S2,2021.1.4,Win32,59.95203837,,,,,,,,,
,,,,,,,,,,,,,,,,,,13,26,F,R,IMT,2021-07-11_09h46.12.250,ImageRatingTask_S2,2021.1.4,Win32,59.95203837,0,11,11,134,1,DreamStudyImages_rs1000x750g/Mammals/Animals_207_h.jpg,,,
,,5,2.875,1,0.439,9,1.412,1,2.564,5,0.813,0,0,0,0,1,main,13,26,F,R,IMT,2021-07-11_09h46.12.250,ImageRatingTask_S2,2021.1.4,Win32,59.95203837,,,,,,,,,
,,,,,,,,,,,,0,1,1,1,1,second,13,26,F,R,IMT,2021-07-11_09h46.12.250,ImageRatingTask_S2,2021.1.4,Win32,59.95203837,,,,,,,,,
,,,,,,,,,,,,0,2,2,2,1,third,13,26,F,R,IMT,2021-07-11_09h46.12.250,ImageRatingTask_S2,2021.1.4,Win32,59.95203837,,,,,,,,,
,,,,,,,,,,,,0,3,3,3,1,fourth,13,26,F,R,IMT,2021-07-11_09h46.12.250,ImageRatingTask_S2,2021.1.4,Win32,59.95203837,,,,,,,,,
,,,,,,,,,,,,0,4,4,4,1,fifth,13,26,F,R,IMT,2021-07-11_09h46.12.250,ImageRatingTask_S2,2021.1.4,Win32,59.95203837,,,,,,,,,
,,,,,,,,,,,,0,5,5,5,1,sixth,13,26,F,R,IMT,2021-07-11_09h46.12.250,ImageRatingTask_S2,2021.1.4,Win32,59.95203837,,,,,,,,,
,,,,,,,,,,,,0,6,6,6,1,seventh,13,26,F,R,IMT,2021-07-11_09h46.12.250,ImageRatingTask_S2,2021.1.4,Win32,59.95203837,,,,,,,,,
,,,,,,,,,,,,0,7,7,7,1,last,13,26,F,R,IMT,2021-07-11_09h46.12.250,ImageRatingTask_S2,2021.1.4,Win32,59.95203837,,,,,,,,,
,,,,,,,,,,,,,,,,,,13,26,F,R,IMT,2021-07-11_09h46.12.250,ImageRatingTask_S2,2021.1.4,Win32,59.95203837,0,12,12,72,1,DreamStudyImages_rs1000x750g/Food/Objects_079_h.jpg,,,
,,4,4.635,2,0.954,5,1.73,1,2.367,7,0.928,0,0,0,0,1,main,13,26,F,R,IMT,2021-07-11_09h46.12.250,ImageRatingTask_S2,2021.1.4,Win32,59.95203837,,,,,,,,,
,,,,,,,,,,,,0,1,1,1,1,second,13,26,F,R,IMT,2021-07-11_09h46.12.250,ImageRatingTask_S2,2021.1.4,Win32,59.95203837,,,,,,,,,
,,,,,,,,,,,,0,2,2,2,1,third,13,26,F,R,IMT,2021-07-11_09h46.12.250,ImageRatingTask_S2,2021.1.4,Win32,59.95203837,,,,,,,,,
,,,,,,,,,,,,0,3,3,3,1,fourth,13,26,F,R,IMT,2021-07-11_09h46.12.250,ImageRatingTask_S2,2021.1.4,Win32,59.95203837,,,,,,,,,
,,,,,,,,,,,,0,4,4,4,1,fifth,13,26,F,R,IMT,2021-07-11_09h46.12.250,ImageRatingTask_S2,2021.1.4,Win32,59.95203837,,,,,,,,,
,,,,,,,,,,,,0,5,5,5,1,sixth,13,26,F,R,IMT,2021-07-11_09h46.12.250,ImageRatingTask_S2,2021.1.4,Win32,59.95203837,,,,,,,,,
,,,,,,,,,,,,0,6,6,6,1,seventh,13,26,F,R,IMT,2021-07-11_09h46.12.250,ImageRatingTask_S2,2021.1.4,Win32,59.95203837,,,,,,,,,
,,,,,,,,,,,,0,7,7,7,1,last,13,26,F,R,IMT,2021-07-11_09h46.12.250,ImageRatingTask_S2,2021.1.4,Win32,59.95203837,,,,,,,,,
,,,,,,,,,,,,,,,,,,13,26,F,R,IMT,2021-07-11_09h46.12.250,ImageRatingTask_S2,2021.1.4,Win32,59.95203837,0,13,13,60,1,DreamStudyImages_rs1000x750g/Vehicles/Destruction 10.jpg,,,
,,6,2.438,2,1.128,8,3.038,1,0.888,5,0.796,0,0,0,0,1,main,13,26,F,R,IMT,2021-07-11_09h46.12.250,ImageRatingTask_S2,2021.1.4,Win32,59.95203837,,,,,,,,,
,,,,,,,,,,,,0,1,1,1,1,second,13,26,F,R,IMT,2021-07-11_09h46.12.250,ImageRatingTask_S2,2021.1.4,Win32,59.95203837,,,,,,,,,
,,,,,,,,,,,,0,2,2,2,1,third,13,26,F,R,IMT,2021-07-11_09h46.12.250,ImageRatingTask_S2,2021.1.4,Win32,59.95203837,,,,,,,,,
,,,,,,,,,,,,0,3,3,3,1,fourth,13,26,F,R,IMT,2021-07-11_09h46.12.250,ImageRatingTask_S2,2021.1.4,Win32,59.95203837,,,,,,,,,
,,,,,,,,,,,,0,4,4,4,1,fifth,13,26,F,R,IMT,2021-07-11_09h46.12.250,ImageRatingTask_S2,2021.1.4,Win32,59.95203837,,,,,,,,,
,,,,,,,,,,,,0,5,5,5,1,sixth,13,26,F,R,IMT,2021-07-11_09h46.12.250,ImageRatingTask_S2,2021.1.4,Win32,59.95203837,,,,,,,,,
,,,,,,,,,,,,0,6,6,6,1,seventh,13,26,F,R,IMT,2021-07-11_09h46.12.250,ImageRatingTask_S2,2021.1.4,Win32,59.95203837,,,,,,,,,
,,,,,,,,,,,,0,7,7,7,1,last,13,26,F,R,IMT,2021-07-11_09h46.12.250,ImageRatingTask_S2,2021.1.4,Win32,59.95203837,,,,,,,,,
,,,,,,,,,,,,,,,,,,13,26,F,R,IMT,2021-07-11_09h46.12.250,ImageRatingTask_S2,2021.1.4,Win32,59.95203837,0,14,14,48,1,DreamStudyImages_rs1000x750g/Food/7351.jpg,,,
,,4,4.321,7,1.405,5,5.832,1,0.767,6,2.786,0,0,0,0,1,main,13,26,F,R,IMT,2021-07-11_09h46.12.250,ImageRatingTask_S2,2021.1.4,Win32,59.95203837,,,,,,,,,
,,,,,,,,,,,,0,1,1,1,1,second,13,26,F,R,IMT,2021-07-11_09h46.12.250,ImageRatingTask_S2,2021.1.4,Win32,59.95203837,,,,,,,,,
,,,,,,,,,,,,0,2,2,2,1,third,13,26,F,R,IMT,2021-07-11_09h46.12.250,ImageRatingTask_S2,2021.1.4,Win32,59.95203837,,,,,,,,,
,,,,,,,,,,,,0,3,3,3,1,fourth,13,26,F,R,IMT,2021-07-11_09h46.12.250,ImageRatingTask_S2,2021.1.4,Win32,59.95203837,,,,,,,,,
,,,,,,,,,,,,0,4,4,4,1,fifth,13,26,F,R,IMT,2021-07-11_09h46.12.250,ImageRatingTask_S2,2021.1.4,Win32,59.95203837,,,,,,,,,
,,,,,,,,,,,,0,5,5,5,1,sixth,13,26,F,R,IMT,2021-07-11_09h46.12.250,ImageRatingTask_S2,2021.1.4,Win32,59.95203837,,,,,,,,,
,,,,,,,,,,,,0,6,6,6,1,seventh,13,26,F,R,IMT,2021-07-11_09h46.12.250,ImageRatingTask_S2,2021.1.4,Win32,59.95203837,,,,,,,,,
,,,,,,,,,,,,0,7,7,7,1,last,13,26,F,R,IMT,2021-07-11_09h46.12.250,ImageRatingTask_S2,2021.1.4,Win32,59.95203837,,,,,,,,,
,,,,,,,,,,,,,,,,,,13,26,F,R,IMT,2021-07-11_09h46.12.250,ImageRatingTask_S2,2021.1.4,Win32,59.95203837,0,15,15,148,1,DreamStudyImages_rs1000x750g/Houses/Thunderstorm 1.jpg,,,
,,5,5.587,2,2.755,9,2.92,1,5.983,2,1.23,0,0,0,0,1,main,13,26,F,R,IMT,2021-07-11_09h46.12.250,ImageRatingTask_S2,2021.1.4,Win32,59.95203837,,,,,,,,,
,,,,,,,,,,,,0,1,1,1,1,second,13,26,F,R,IMT,2021-07-11_09h46.12.250,ImageRatingTask_S2,2021.1.4,Win32,59.95203837,,,,,,,,,
,,,,,,,,,,,,0,2,2,2,1,third,13,26,F,R,IMT,2021-07-11_09h46.12.250,ImageRatingTask_S2,2021.1.4,Win32,59.95203837,,,,,,,,,
,,,,,,,,,,,,0,3,3,3,1,fourth,13,26,F,R,IMT,2021-07-11_09h46.12.250,ImageRatingTask_S2,2021.1.4,Win32,59.95203837,,,,,,,,,
,,,,,,,,,,,,0,4,4,4,1,fifth,13,26,F,R,IMT,2021-07-11_09h46.12.250,ImageRatingTask_S2,2021.1.4,Win32,59.95203837,,,,,,,,,
,,,,,,,,,,,,0,5,5,5,1,sixth,13,26,F,R,IMT,2021-07-11_09h46.12.250,ImageRatingTask_S2,2021.1.4,Win32,59.95203837,,,,,,,,,
,,,,,,,,,,,,0,6,6,6,1,seventh,13,26,F,R,IMT,2021-07-11_09h46.12.250,ImageRatingTask_S2,2021.1.4,Win32,59.95203837,,,,,,,,,
,,,,,,,,,,,,0,7,7,7,1,last,13,26,F,R,IMT,2021-07-11_09h46.12.250,ImageRatingTask_S2,2021.1.4,Win32,59.95203837,,,,,,,,,
,,,,,,,,,,,,,,,,,,13,26,F,R,IMT,2021-07-11_09h46.12.250,ImageRatingTask_S2,2021.1.4,Win32,59.95203837,0,16,16,129,1,DreamStudyImages_rs1000x750g/Children/Faces_104_h.jpg,,,
,,5,2.29,1,1.189,7,2.131,1,0.749,6,4.105,0,0,0,0,1,main,13,26,F,R,IMT,2021-07-11_09h46.12.250,ImageRatingTask_S2,2021.1.4,Win32,59.95203837,,,,,,,,,
,,,,,,,,,,,,0,1,1,1,1,second,13,26,F,R,IMT,2021-07-11_09h46.12.250,ImageRatingTask_S2,2021.1.4,Win32,59.95203837,,,,,,,,,
,,,,,,,,,,,,0,2,2,2,1,third,13,26,F,R,IMT,2021-07-11_09h46.12.250,ImageRatingTask_S2,2021.1.4,Win32,59.95203837,,,,,,,,,
,,,,,,,,,,,,0,3,3,3,1,fourth,13,26,F,R,IMT,2021-07-11_09h46.12.250,ImageRatingTask_S2,2021.1.4,Win32,59.95203837,,,,,,,,,
,,,,,,,,,,,,0,4,4,4,1,fifth,13,26,F,R,IMT,2021-07-11_09h46.12.250,ImageRatingTask_S2,2021.1.4,Win32,59.95203837,,,,,,,,,
,,,,,,,,,,,,0,5,5,5,1,sixth,13,26,F,R,IMT,2021-07-11_09h46.12.250,ImageRatingTask_S2,2021.1.4,Win32,59.95203837,,,,,,,,,
,,,,,,,,,,,,0,6,6,6,1,seventh,13,26,F,R,IMT,2021-07-11_09h46.12.250,ImageRatingTask_S2,2021.1.4,Win32,59.95203837,,,,,,,,,
,,,,,,,,,,,,0,7,7,7,1,last,13,26,F,R,IMT,2021-07-11_09h46.12.250,ImageRatingTask_S2,2021.1.4,Win32,59.95203837,,,,,,,,,
,,,,,,,,,,,,,,,,,,13,26,F,R,IMT,2021-07-11_09h46.12.250,ImageRatingTask_S2,2021.1.4,Win32,59.95203837,0,17,17,94,1,DreamStudyImages_rs1000x750g/Houses/Graveyard 4.jpg,,,
,,5,4.106,1,0.919,9,1.634,1,1.482,2,0.629,0,0,0,0,1,main,13,26,F,R,IMT,2021-07-11_09h46.12.250,ImageRatingTask_S2,2021.1.4,Win32,59.95203837,,,,,,,,,
,,,,,,,,,,,,0,1,1,1,1,second,13,26,F,R,IMT,2021-07-11_09h46.12.250,ImageRatingTask_S2,2021.1.4,Win32,59.95203837,,,,,,,,,
,,,,,,,,,,,,0,2,2,2,1,third,13,26,F,R,IMT,2021-07-11_09h46.12.250,ImageRatingTask_S2,2021.1.4,Win32,59.95203837,,,,,,,,,
,,,,,,,,,,,,0,3,3,3,1,fourth,13,26,F,R,IMT,2021-07-11_09h46.12.250,ImageRatingTask_S2,2021.1.4,Win32,59.95203837,,,,,,,,,
,,,,,,,,,,,,0,4,4,4,1,fifth,13,26,F,R,IMT,2021-07-11_09h46.12.250,ImageRatingTask_S2,2021.1.4,Win32,59.95203837,,,,,,,,,
,,,,,,,,,,,,0,5,5,5,1,sixth,13,26,F,R,IMT,2021-07-11_09h46.12.250,ImageRatingTask_S2,2021.1.4,Win32,59.95203837,,,,,,,,,
,,,,,,,,,,,,0,6,6,6,1,seventh,13,26,F,R,IMT,2021-07-11_09h46.12.250,ImageRatingTask_S2,2021.1.4,Win32,59.95203837,,,,,,,,,
,,,,,,,,,,,,0,7,7,7,1,last,13,26,F,R,IMT,2021-07-11_09h46.12.250,ImageRatingTask_S2,2021.1.4,Win32,59.95203837,,,,,,,,,
,,,,,,,,,,,,,,,,,,13,26,F,R,IMT,2021-07-11_09h46.12.250,ImageRatingTask_S2,2021.1.4,Win32,59.95203837,0,18,18,36,1,DreamStudyImages_rs1000x750g/Children/Faces_097_v.jpg,,,
,,5,2518.21,1,1.434,7,11.449,1,5.633,3,3.654,0,0,0,0,1,main,13,26,F,R,IMT,2021-07-11_09h46.12.250,ImageRatingTask_S2,2021.1.4,Win32,59.95203837,,,,,,,,,
,,,,,,,,,,,,0,1,1,1,1,second,13,26,F,R,IMT,2021-07-11_09h46.12.250,ImageRatingTask_S2,2021.1.4,Win32,59.95203837,,,,,,,,,
,,,,,,,,,,,,0,2,2,2,1,third,13,26,F,R,IMT,2021-07-11_09h46.12.250,ImageRatingTask_S2,2021.1.4,Win32,59.95203837,,,,,,,,,
,,,,,,,,,,,,0,3,3,3,1,fourth,13,26,F,R,IMT,2021-07-11_09h46.12.250,ImageRatingTask_S2,2021.1.4,Win32,59.95203837,,,,,,,,,
,,,,,,,,,,,,0,4,4,4,1,fifth,13,26,F,R,IMT,2021-07-11_09h46.12.250,ImageRatingTask_S2,2021.1.4,Win32,59.95203837,,,,,,,,,
,,,,,,,,,,,,0,5,5,5,1,sixth,13,26,F,R,IMT,2021-07-11_09h46.12.250,ImageRatingTask_S2,2021.1.4,Win32,59.95203837,,,,,,,,,
,,,,,,,,,,,,0,6,6,6,1,seventh,13,26,F,R,IMT,2021-07-11_09h46.12.250,ImageRatingTask_S2,2021.1.4,Win32,59.95203837,,,,,,,,,
,,,,,,,,,,,,0,7,7,7,1,last,13,26,F,R,IMT,2021-07-11_09h46.12.250,ImageRatingTask_S2,2021.1.4,Win32,59.95203837,,,,,,,,,
,,,,,,,,,,,,,,,,,,13,26,F,R,IMT,2021-07-11_09h46.12.250,ImageRatingTask_S2,2021.1.4,Win32,59.95203837,0,19,19,106,1,DreamStudyImages_rs1000x750g/Mammals/Dog 14.jpg,,,
,,6,768.649,1,1.097,7,3.523,1,1.094,3,2.198,0,0,0,0,1,main,13,26,F,R,IMT,2021-07-11_09h46.12.250,ImageRatingTask_S2,2021.1.4,Win32,59.95203837,,,,,,,,,
,,,,,,,,,,,,0,1,1,1,1,second,13,26,F,R,IMT,2021-07-11_09h46.12.250,ImageRatingTask_S2,2021.1.4,Win32,59.95203837,,,,,,,,,
,,,,,,,,,,,,0,2,2,2,1,third,13,26,F,R,IMT,2021-07-11_09h46.12.250,ImageRatingTask_S2,2021.1.4,Win32,59.95203837,,,,,,,,,
,,,,,,,,,,,,0,3,3,3,1,fourth,13,26,F,R,IMT,2021-07-11_09h46.12.250,ImageRatingTask_S2,2021.1.4,Win32,59.95203837,,,,,,,,,
,,,,,,,,,,,,0,4,4,4,1,fifth,13,26,F,R,IMT,2021-07-11_09h46.12.250,ImageRatingTask_S2,2021.1.4,Win32,59.95203837,,,,,,,,,
,,,,,,,,,,,,0,5,5,5,1,sixth,13,26,F,R,IMT,2021-07-11_09h46.12.250,ImageRatingTask_S2,2021.1.4,Win32,59.95203837,,,,,,,,,
,,,,,,,,,,,,0,6,6,6,1,seventh,13,26,F,R,IMT,2021-07-11_09h46.12.250,ImageRatingTask_S2,2021.1.4,Win32,59.95203837,,,,,,,,,
,,,,,,,,,,,,0,7,7,7,1,last,13,26,F,R,IMT,2021-07-11_09h46.12.250,ImageRatingTask_S2,2021.1.4,Win32,59.95203837,,,,,,,,,
,,,,,,,,,,,,,,,,,,13,26,F,R,IMT,2021-07-11_09h46.12.250,ImageRatingTask_S2,2021.1.4,Win32,59.95203837,0,20,20,87,1,DreamStudyImages_rs1000x750g/Mammals/Lion 4.jpg,,,
,,5,4.132,1,1.438,9,1.966,1,3.838,6,0.949,0,0,0,0,1,main,13,26,F,R,IMT,2021-07-11_09h46.12.250,ImageRatingTask_S2,2021.1.4,Win32,59.95203837,,,,,,,,,
,,,,,,,,,,,,0,1,1,1,1,second,13,26,F,R,IMT,2021-07-11_09h46.12.250,ImageRatingTask_S2,2021.1.4,Win32,59.95203837,,,,,,,,,
,,,,,,,,,,,,0,2,2,2,1,third,13,26,F,R,IMT,2021-07-11_09h46.12.250,ImageRatingTask_S2,2021.1.4,Win32,59.95203837,,,,,,,,,
,,,,,,,,,,,,0,3,3,3,1,fourth,13,26,F,R,IMT,2021-07-11_09h46.12.250,ImageRatingTask_S2,2021.1.4,Win32,59.95203837,,,,,,,,,
,,,,,,,,,,,,0,4,4,4,1,fifth,13,26,F,R,IMT,2021-07-11_09h46.12.250,ImageRatingTask_S2,2021.1.4,Win32,59.95203837,,,,,,,,,
,,,,,,,,,,,,0,5,5,5,1,sixth,13,26,F,R,IMT,2021-07-11_09h46.12.250,ImageRatingTask_S2,2021.1.4,Win32,59.95203837,,,,,,,,,
,,,,,,,,,,,,0,6,6,6,1,seventh,13,26,F,R,IMT,2021-07-11_09h46.12.250,ImageRatingTask_S2,2021.1.4,Win32,59.95203837,,,,,,,,,
,,,,,,,,,,,,0,7,7,7,1,last,13,26,F,R,IMT,2021-07-11_09h46.12.250,ImageRatingTask_S2,2021.1.4,Win32,59.95203837,,,,,,,,,
,,,,,,,,,,,,,,,,,,13,26,F,R,IMT,2021-07-11_09h46.12.250,ImageRatingTask_S2,2021.1.4,Win32,59.95203837,0,21,21,30,1,DreamStudyImages_rs1000x750g/Vehicles/Landscapes_028_h.jpg,,,
,,5,2.814,1,1.539,9,1.865,1,6.535,8,0.845,0,0,0,0,1,main,13,26,F,R,IMT,2021-07-11_09h46.12.250,ImageRatingTask_S2,2021.1.4,Win32,59.95203837,,,,,,,,,
,,,,,,,,,,,,0,1,1,1,1,second,13,26,F,R,IMT,2021-07-11_09h46.12.250,ImageRatingTask_S2,2021.1.4,Win32,59.95203837,,,,,,,,,
,,,,,,,,,,,,0,2,2,2,1,third,13,26,F,R,IMT,2021-07-11_09h46.12.250,ImageRatingTask_S2,2021.1.4,Win32,59.95203837,,,,,,,,,
,,,,,,,,,,,,0,3,3,3,1,fourth,13,26,F,R,IMT,2021-07-11_09h46.12.250,ImageRatingTask_S2,2021.1.4,Win32,59.95203837,,,,,,,,,
,,,,,,,,,,,,0,4,4,4,1,fifth,13,26,F,R,IMT,2021-07-11_09h46.12.250,ImageRatingTask_S2,2021.1.4,Win32,59.95203837,,,,,,,,,
,,,,,,,,,,,,0,5,5,5,1,sixth,13,26,F,R,IMT,2021-07-11_09h46.12.250,ImageRatingTask_S2,2021.1.4,Win32,59.95203837,,,,,,,,,
,,,,,,,,,,,,0,6,6,6,1,seventh,13,26,F,R,IMT,2021-07-11_09h46.12.250,ImageRatingTask_S2,2021.1.4,Win32,59.95203837,,,,,,,,,
,,,,,,,,,,,,0,7,7,7,1,last,13,26,F,R,IMT,2021-07-11_09h46.12.250,ImageRatingTask_S2,2021.1.4,Win32,59.95203837,,,,,,,,,
,,,,,,,,,,,,,,,,,,13,26,F,R,IMT,2021-07-11_09h46.12.250,ImageRatingTask_S2,2021.1.4,Win32,59.95203837,0,22,22,112,1,DreamStudyImages_rs1000x750g/Water/objects_108_v.jpg,,,
,,5,21.041,2,12.52,9,1.714,1,1.018,2,1.844,0,0,0,0,1,main,13,26,F,R,IMT,2021-07-11_09h46.12.250,ImageRatingTask_S2,2021.1.4,Win32,59.95203837,,,,,,,,,
,,,,,,,,,,,,0,1,1,1,1,second,13,26,F,R,IMT,2021-07-11_09h46.12.250,ImageRatingTask_S2,2021.1.4,Win32,59.95203837,,,,,,,,,
,,,,,,,,,,,,0,2,2,2,1,third,13,26,F,R,IMT,2021-07-11_09h46.12.250,ImageRatingTask_S2,2021.1.4,Win32,59.95203837,,,,,,,,,
,,,,,,,,,,,,0,3,3,3,1,fourth,13,26,F,R,IMT,2021-07-11_09h46.12.250,ImageRatingTask_S2,2021.1.4,Win32,59.95203837,,,,,,,,,
,,,,,,,,,,,,0,4,4,4,1,fifth,13,26,F,R,IMT,2021-07-11_09h46.12.250,ImageRatingTask_S2,2021.1.4,Win32,59.95203837,,,,,,,,,
,,,,,,,,,,,,0,5,5,5,1,sixth,13,26,F,R,IMT,2021-07-11_09h46.12.250,ImageRatingTask_S2,2021.1.4,Win32,59.95203837,,,,,,,,,
,,,,,,,,,,,,0,6,6,6,1,seventh,13,26,F,R,IMT,2021-07-11_09h46.12.250,ImageRatingTask_S2,2021.1.4,Win32,59.95203837,,,,,,,,,
,,,,,,,,,,,,0,7,7,7,1,last,13,26,F,R,IMT,2021-07-11_09h46.12.250,ImageRatingTask_S2,2021.1.4,Win32,59.95203837,,,,,,,,,
,,,,,,,,,,,,,,,,,,13,26,F,R,IMT,2021-07-11_09h46.12.250,ImageRatingTask_S2,2021.1.4,Win32,59.95203837,0,23,23,128,1,DreamStudyImages_rs1000x750g/Children/Faces_118_h.jpg,,,
,,5,10.182,5,2.879,6,4.84,1,0.948,7,3.451,0,0,0,0,1,main,13,26,F,R,IMT,2021-07-11_09h46.12.250,ImageRatingTask_S2,2021.1.4,Win32,59.95203837,,,,,,,,,
,,,,,,,,,,,,0,1,1,1,1,second,13,26,F,R,IMT,2021-07-11_09h46.12.250,ImageRatingTask_S2,2021.1.4,Win32,59.95203837,,,,,,,,,
,,,,,,,,,,,,0,2,2,2,1,third,13,26,F,R,IMT,2021-07-11_09h46.12.250,ImageRatingTask_S2,2021.1.4,Win32,59.95203837,,,,,,,,,
,,,,,,,,,,,,0,3,3,3,1,fourth,13,26,F,R,IMT,2021-07-11_09h46.12.250,ImageRatingTask_S2,2021.1.4,Win32,59.95203837,,,,,,,,,
,,,,,,,,,,,,0,4,4,4,1,fifth,13,26,F,R,IMT,2021-07-11_09h46.12.250,ImageRatingTask_S2,2021.1.4,Win32,59.95203837,,,,,,,,,
,,,,,,,,,,,,0,5,5,5,1,sixth,13,26,F,R,IMT,2021-07-11_09h46.12.250,ImageRatingTask_S2,2021.1.4,Win32,59.95203837,,,,,,,,,
,,,,,,,,,,,,0,6,6,6,1,seventh,13,26,F,R,IMT,2021-07-11_09h46.12.250,ImageRatingTask_S2,2021.1.4,Win32,59.95203837,,,,,,,,,
,,,,,,,,,,,,0,7,7,7,1,last,13,26,F,R,IMT,2021-07-11_09h46.12.250,ImageRatingTask_S2,2021.1.4,Win32,59.95203837,,,,,,,,,
,,,,,,,,,,,,,,,,,,13,26,F,R,IMT,2021-07-11_09h46.12.250,ImageRatingTask_S2,2021.1.4,Win32,59.95203837,0,24,24,100,1,DreamStudyImages_rs1000x750g/Vehicles/9611.jpg,,,
,,5,1.823,1,0.203,9,3.129,1,1.217,7,0.785,0,0,0,0,1,main,13,26,F,R,IMT,2021-07-11_09h46.12.250,ImageRatingTask_S2,2021.1.4,Win32,59.95203837,,,,,,,,,
,,,,,,,,,,,,0,1,1,1,1,second,13,26,F,R,IMT,2021-07-11_09h46.12.250,ImageRatingTask_S2,2021.1.4,Win32,59.95203837,,,,,,,,,
,,,,,,,,,,,,0,2,2,2,1,third,13,26,F,R,IMT,2021-07-11_09h46.12.250,ImageRatingTask_S2,2021.1.4,Win32,59.95203837,,,,,,,,,
,,,,,,,,,,,,0,3,3,3,1,fourth,13,26,F,R,IMT,2021-07-11_09h46.12.250,ImageRatingTask_S2,2021.1.4,Win32,59.95203837,,,,,,,,,
,,,,,,,,,,,,0,4,4,4,1,fifth,13,26,F,R,IMT,2021-07-11_09h46.12.250,ImageRatingTask_S2,2021.1.4,Win32,59.95203837,,,,,,,,,
,,,,,,,,,,,,0,5,5,5,1,sixth,13,26,F,R,IMT,2021-07-11_09h46.12.250,ImageRatingTask_S2,2021.1.4,Win32,59.95203837,,,,,,,,,
,,,,,,,,,,,,0,6,6,6,1,seventh,13,26,F,R,IMT,2021-07-11_09h46.12.250,ImageRatingTask_S2,2021.1.4,Win32,59.95203837,,,,,,,,,
,,,,,,,,,,,,0,7,7,7,1,last,13,26,F,R,IMT,2021-07-11_09h46.12.250,ImageRatingTask_S2,2021.1.4,Win32,59.95203837,,,,,,,,,
,,,,,,,,,,,,,,,,,,13,26,F,R,IMT,2021-07-11_09h46.12.250,ImageRatingTask_S2,2021.1.4,Win32,59.95203837,0,25,25,116,1,DreamStudyImages_rs1000x750g/Water/Landscapes_115_v.jpg,,,
,,6,3.208,1,15.778,9,1497.487,1,1.063,2,0.684,0,0,0,0,1,main,13,26,F,R,IMT,2021-07-11_09h46.12.250,ImageRatingTask_S2,2021.1.4,Win32,59.95203837,,,,,,,,,
,,,,,,,,,,,,0,1,1,1,1,second,13,26,F,R,IMT,2021-07-11_09h46.12.250,ImageRatingTask_S2,2021.1.4,Win32,59.95203837,,,,,,,,,
,,,,,,,,,,,,0,2,2,2,1,third,13,26,F,R,IMT,2021-07-11_09h46.12.250,ImageRatingTask_S2,2021.1.4,Win32,59.95203837,,,,,,,,,
,,,,,,,,,,,,0,3,3,3,1,fourth,13,26,F,R,IMT,2021-07-11_09h46.12.250,ImageRatingTask_S2,2021.1.4,Win32,59.95203837,,,,,,,,,
,,,,,,,,,,,,0,4,4,4,1,fifth,13,26,F,R,IMT,2021-07-11_09h46.12.250,ImageRatingTask_S2,2021.1.4,Win32,59.95203837,,,,,,,,,
,,,,,,,,,,,,0,5,5,5,1,sixth,13,26,F,R,IMT,2021-07-11_09h46.12.250,ImageRatingTask_S2,2021.1.4,Win32,59.95203837,,,,,,,,,
,,,,,,,,,,,,0,6,6,6,1,seventh,13,26,F,R,IMT,2021-07-11_09h46.12.250,ImageRatingTask_S2,2021.1.4,Win32,59.95203837,,,,,,,,,
,,,,,,,,,,,,0,7,7,7,1,last,13,26,F,R,IMT,2021-07-11_09h46.12.250,ImageRatingTask_S2,2021.1.4,Win32,59.95203837,,,,,,,,,
,,,,,,,,,,,,,,,,,,13,26,F,R,IMT,2021-07-11_09h46.12.250,ImageRatingTask_S2,2021.1.4,Win32,59.95203837,0,26,26,144,1,DreamStudyImages_rs1000x750g/Children/Baby 6.jpg,,,
,,4,2.814,4,1.098,9,1.711,1,1.083,3,1.009,0,0,0,0,1,main,13,26,F,R,IMT,2021-07-11_09h46.12.250,ImageRatingTask_S2,2021.1.4,Win32,59.95203837,,,,,,,,,
,,,,,,,,,,,,0,1,1,1,1,second,13,26,F,R,IMT,2021-07-11_09h46.12.250,ImageRatingTask_S2,2021.1.4,Win32,59.95203837,,,,,,,,,
,,,,,,,,,,,,0,2,2,2,1,third,13,26,F,R,IMT,2021-07-11_09h46.12.250,ImageRatingTask_S2,2021.1.4,Win32,59.95203837,,,,,,,,,
,,,,,,,,,,,,0,3,3,3,1,fourth,13,26,F,R,IMT,2021-07-11_09h46.12.250,ImageRatingTask_S2,2021.1.4,Win32,59.95203837,,,,,,,,,
,,,,,,,,,,,,0,4,4,4,1,fifth,13,26,F,R,IMT,2021-07-11_09h46.12.250,ImageRatingTask_S2,2021.1.4,Win32,59.95203837,,,,,,,,,
,,,,,,,,,,,,0,5,5,5,1,sixth,13,26,F,R,IMT,2021-07-11_09h46.12.250,ImageRatingTask_S2,2021.1.4,Win32,59.95203837,,,,,,,,,
,,,,,,,,,,,,0,6,6,6,1,seventh,13,26,F,R,IMT,2021-07-11_09h46.12.250,ImageRatingTask_S2,2021.1.4,Win32,59.95203837,,,,,,,,,
,,,,,,,,,,,,0,7,7,7,1,last,13,26,F,R,IMT,2021-07-11_09h46.12.250,ImageRatingTask_S2,2021.1.4,Win32,59.95203837,,,,,,,,,
,,,,,,,,,,,,,,,,,,13,26,F,R,IMT,2021-07-11_09h46.12.250,ImageRatingTask_S2,2021.1.4,Win32,59.95203837,0,27,27,117,1,DreamStudyImages_rs1000x750g/Mammals/Wolf 2.jpg,,,
,,5,2.599,2,0.382,9,2.966,1,2.162,7,0.868,0,0,0,0,1,main,13,26,F,R,IMT,2021-07-11_09h46.12.250,ImageRatingTask_S2,2021.1.4,Win32,59.95203837,,,,,,,,,
,,,,,,,,,,,,0,1,1,1,1,second,13,26,F,R,IMT,2021-07-11_09h46.12.250,ImageRatingTask_S2,2021.1.4,Win32,59.95203837,,,,,,,,,
,,,,,,,,,,,,0,2,2,2,1,third,13,26,F,R,IMT,2021-07-11_09h46.12.250,ImageRatingTask_S2,2021.1.4,Win32,59.95203837,,,,,,,,,
,,,,,,,,,,,,0,3,3,3,1,fourth,13,26,F,R,IMT,2021-07-11_09h46.12.250,ImageRatingTask_S2,2021.1.4,Win32,59.95203837,,,,,,,,,
,,,,,,,,,,,,0,4,4,4,1,fifth,13,26,F,R,IMT,2021-07-11_09h46.12.250,ImageRatingTask_S2,2021.1.4,Win32,59.95203837,,,,,,,,,
,,,,,,,,,,,,0,5,5,5,1,sixth,13,26,F,R,IMT,2021-07-11_09h46.12.250,ImageRatingTask_S2,2021.1.4,Win32,59.95203837,,,,,,,,,
,,,,,,,,,,,,0,6,6,6,1,seventh,13,26,F,R,IMT,2021-07-11_09h46.12.250,ImageRatingTask_S2,2021.1.4,Win32,59.95203837,,,,,,,,,
,,,,,,,,,,,,0,7,7,7,1,last,13,26,F,R,IMT,2021-07-11_09h46.12.250,ImageRatingTask_S2,2021.1.4,Win32,59.95203837,,,,,,,,,
,,,,,,,,,,,,,,,,,,13,26,F,R,IMT,2021-07-11_09h46.12.250,ImageRatingTask_S2,2021.1.4,Win32,59.95203837,0,28,28,23,1,DreamStudyImages_rs1000x750g/Vehicles/Objects_297_h.jpg,,,
,,5,1.729,1,1.768,9,2.034,1,0.899,7,0.621,0,0,0,0,1,main,13,26,F,R,IMT,2021-07-11_09h46.12.250,ImageRatingTask_S2,2021.1.4,Win32,59.95203837,,,,,,,,,
,,,,,,,,,,,,0,1,1,1,1,second,13,26,F,R,IMT,2021-07-11_09h46.12.250,ImageRatingTask_S2,2021.1.4,Win32,59.95203837,,,,,,,,,
,,,,,,,,,,,,0,2,2,2,1,third,13,26,F,R,IMT,2021-07-11_09h46.12.250,ImageRatingTask_S2,2021.1.4,Win32,59.95203837,,,,,,,,,
,,,,,,,,,,,,0,3,3,3,1,fourth,13,26,F,R,IMT,2021-07-11_09h46.12.250,ImageRatingTask_S2,2021.1.4,Win32,59.95203837,,,,,,,,,
,,,,,,,,,,,,0,4,4,4,1,fifth,13,26,F,R,IMT,2021-07-11_09h46.12.250,ImageRatingTask_S2,2021.1.4,Win32,59.95203837,,,,,,,,,
,,,,,,,,,,,,0,5,5,5,1,sixth,13,26,F,R,IMT,2021-07-11_09h46.12.250,ImageRatingTask_S2,2021.1.4,Win32,59.95203837,,,,,,,,,
,,,,,,,,,,,,0,6,6,6,1,seventh,13,26,F,R,IMT,2021-07-11_09h46.12.250,ImageRatingTask_S2,2021.1.4,Win32,59.95203837,,,,,,,,,
,,,,,,,,,,,,0,7,7,7,1,last,13,26,F,R,IMT,2021-07-11_09h46.12.250,ImageRatingTask_S2,2021.1.4,Win32,59.95203837,,,,,,,,,
,,,,,,,,,,,,,,,,,,13,26,F,R,IMT,2021-07-11_09h46.12.250,ImageRatingTask_S2,2021.1.4,Win32,59.95203837,0,29,29,80,1,DreamStudyImages_rs1000x750g/Vehicles/Objects_284_h.jpg,,,
,,5,2.667,1,0.803,5,1.481,1,0.862,6,3.211,0,0,0,0,1,main,13,26,F,R,IMT,2021-07-11_09h46.12.250,ImageRatingTask_S2,2021.1.4,Win32,59.95203837,,,,,,,,,
,,,,,,,,,,,,0,1,1,1,1,second,13,26,F,R,IMT,2021-07-11_09h46.12.250,ImageRatingTask_S2,2021.1.4,Win32,59.95203837,,,,,,,,,
,,,,,,,,,,,,0,2,2,2,1,third,13,26,F,R,IMT,2021-07-11_09h46.12.250,ImageRatingTask_S2,2021.1.4,Win32,59.95203837,,,,,,,,,
,,,,,,,,,,,,0,3,3,3,1,fourth,13,26,F,R,IMT,2021-07-11_09h46.12.250,ImageRatingTask_S2,2021.1.4,Win32,59.95203837,,,,,,,,,
,,,,,,,,,,,,0,4,4,4,1,fifth,13,26,F,R,IMT,2021-07-11_09h46.12.250,ImageRatingTask_S2,2021.1.4,Win32,59.95203837,,,,,,,,,
,,,,,,,,,,,,0,5,5,5,1,sixth,13,26,F,R,IMT,2021-07-11_09h46.12.250,ImageRatingTask_S2,2021.1.4,Win32,59.95203837,,,,,,,,,
,,,,,,,,,,,,0,6,6,6,1,seventh,13,26,F,R,IMT,2021-07-11_09h46.12.250,ImageRatingTask_S2,2021.1.4,Win32,59.95203837,,,,,,,,,
,,,,,,,,,,,,0,7,7,7,1,last,13,26,F,R,IMT,2021-07-11_09h46.12.250,ImageRatingTask_S2,2021.1.4,Win32,59.95203837,,,,,,,,,
,,,,,,,,,,,,,,,,,,13,26,F,R,IMT,2021-07-11_09h46.12.250,ImageRatingTask_S2,2021.1.4,Win32,59.95203837,0,30,30,44,1,DreamStudyImages_rs1000x750g/Houses/IAPS7504_staircases.jpg,,,
,,5,2.454,1,0.302,7,1.884,1,0.839,7,1.152,0,0,0,0,1,main,13,26,F,R,IMT,2021-07-11_09h46.12.250,ImageRatingTask_S2,2021.1.4,Win32,59.95203837,,,,,,,,,
,,,,,,,,,,,,0,1,1,1,1,second,13,26,F,R,IMT,2021-07-11_09h46.12.250,ImageRatingTask_S2,2021.1.4,Win32,59.95203837,,,,,,,,,
,,,,,,,,,,,,0,2,2,2,1,third,13,26,F,R,IMT,2021-07-11_09h46.12.250,ImageRatingTask_S2,2021.1.4,Win32,59.95203837,,,,,,,,,
,,,,,,,,,,,,0,3,3,3,1,fourth,13,26,F,R,IMT,2021-07-11_09h46.12.250,ImageRatingTask_S2,2021.1.4,Win32,59.95203837,,,,,,,,,
,,,,,,,,,,,,0,4,4,4,1,fifth,13,26,F,R,IMT,2021-07-11_09h46.12.250,ImageRatingTask_S2,2021.1.4,Win32,59.95203837,,,,,,,,,
,,,,,,,,,,,,0,5,5,5,1,sixth,13,26,F,R,IMT,2021-07-11_09h46.12.250,ImageRatingTask_S2,2021.1.4,Win32,59.95203837,,,,,,,,,
,,,,,,,,,,,,0,6,6,6,1,seventh,13,26,F,R,IMT,2021-07-11_09h46.12.250,ImageRatingTask_S2,2021.1.4,Win32,59.95203837,,,,,,,,,
,,,,,,,,,,,,0,7,7,7,1,last,13,26,F,R,IMT,2021-07-11_09h46.12.250,ImageRatingTask_S2,2021.1.4,Win32,59.95203837,,,,,,,,,
,,,,,,,,,,,,,,,,,,13,26,F,R,IMT,2021-07-11_09h46.12.250,ImageRatingTask_S2,2021.1.4,Win32,59.95203837,0,31,31,149,1,DreamStudyImages_rs1000x750g/Vehicles/Car race 4.jpg,,,
,,4,1344.468,2,0.776,6,10.26,1,0.962,3,0.784,0,0,0,0,1,main,13,26,F,R,IMT,2021-07-11_09h46.12.250,ImageRatingTask_S2,2021.1.4,Win32,59.95203837,,,,,,,,,
,,,,,,,,,,,,0,1,1,1,1,second,13,26,F,R,IMT,2021-07-11_09h46.12.250,ImageRatingTask_S2,2021.1.4,Win32,59.95203837,,,,,,,,,
,,,,,,,,,,,,0,2,2,2,1,third,13,26,F,R,IMT,2021-07-11_09h46.12.250,ImageRatingTask_S2,2021.1.4,Win32,59.95203837,,,,,,,,,
,,,,,,,,,,,,0,3,3,3,1,fourth,13,26,F,R,IMT,2021-07-11_09h46.12.250,ImageRatingTask_S2,2021.1.4,Win32,59.95203837,,,,,,,,,
,,,,,,,,,,,,0,4,4,4,1,fifth,13,26,F,R,IMT,2021-07-11_09h46.12.250,ImageRatingTask_S2,2021.1.4,Win32,59.95203837,,,,,,,,,
,,,,,,,,,,,,0,5,5,5,1,sixth,13,26,F,R,IMT,2021-07-11_09h46.12.250,ImageRatingTask_S2,2021.1.4,Win32,59.95203837,,,,,,,,,
,,,,,,,,,,,,0,6,6,6,1,seventh,13,26,F,R,IMT,2021-07-11_09h46.12.250,ImageRatingTask_S2,2021.1.4,Win32,59.95203837,,,,,,,,,
,,,,,,,,,,,,0,7,7,7,1,last,13,26,F,R,IMT,2021-07-11_09h46.12.250,ImageRatingTask_S2,2021.1.4,Win32,59.95203837,,,,,,,,,
,,,,,,,,,,,,,,,,,,13,26,F,R,IMT,2021-07-11_09h46.12.250,ImageRatingTask_S2,2021.1.4,Win32,59.95203837,0,32,32,21,1,DreamStudyImages_rs1000x750g/Mammals/Dog 31.jpg,,,
,,6,5.513,1,0.914,9,7.301,1,4.466,2,1.545,0,0,0,0,1,main,13,26,F,R,IMT,2021-07-11_09h46.12.250,ImageRatingTask_S2,2021.1.4,Win32,59.95203837,,,,,,,,,
,,,,,,,,,,,,0,1,1,1,1,second,13,26,F,R,IMT,2021-07-11_09h46.12.250,ImageRatingTask_S2,2021.1.4,Win32,59.95203837,,,,,,,,,
,,,,,,,,,,,,0,2,2,2,1,third,13,26,F,R,IMT,2021-07-11_09h46.12.250,ImageRatingTask_S2,2021.1.4,Win32,59.95203837,,,,,,,,,
,,,,,,,,,,,,0,3,3,3,1,fourth,13,26,F,R,IMT,2021-07-11_09h46.12.250,ImageRatingTask_S2,2021.1.4,Win32,59.95203837,,,,,,,,,
,,,,,,,,,,,,0,4,4,4,1,fifth,13,26,F,R,IMT,2021-07-11_09h46.12.250,ImageRatingTask_S2,2021.1.4,Win32,59.95203837,,,,,,,,,
,,,,,,,,,,,,0,5,5,5,1,sixth,13,26,F,R,IMT,2021-07-11_09h46.12.250,ImageRatingTask_S2,2021.1.4,Win32,59.95203837,,,,,,,,,
,,,,,,,,,,,,0,6,6,6,1,seventh,13,26,F,R,IMT,2021-07-11_09h46.12.250,ImageRatingTask_S2,2021.1.4,Win32,59.95203837,,,,,,,,,
,,,,,,,,,,,,0,7,7,7,1,last,13,26,F,R,IMT,2021-07-11_09h46.12.250,ImageRatingTask_S2,2021.1.4,Win32,59.95203837,,,,,,,,,
,,,,,,,,,,,,,,,,,,13,26,F,R,IMT,2021-07-11_09h46.12.250,ImageRatingTask_S2,2021.1.4,Win32,59.95203837,0,33,33,71,1,DreamStudyImages_rs1000x750g/Children/Faces_131_v.jpg,,,
,,4,4.811,8,1.486,8,5.387,1,3.816,4,6.179,0,0,0,0,1,main,13,26,F,R,IMT,2021-07-11_09h46.12.250,ImageRatingTask_S2,2021.1.4,Win32,59.95203837,,,,,,,,,
,,,,,,,,,,,,0,1,1,1,1,second,13,26,F,R,IMT,2021-07-11_09h46.12.250,ImageRatingTask_S2,2021.1.4,Win32,59.95203837,,,,,,,,,
,,,,,,,,,,,,0,2,2,2,1,third,13,26,F,R,IMT,2021-07-11_09h46.12.250,ImageRatingTask_S2,2021.1.4,Win32,59.95203837,,,,,,,,,
,,,,,,,,,,,,0,3,3,3,1,fourth,13,26,F,R,IMT,2021-07-11_09h46.12.250,ImageRatingTask_S2,2021.1.4,Win32,59.95203837,,,,,,,,,
,,,,,,,,,,,,0,4,4,4,1,fifth,13,26,F,R,IMT,2021-07-11_09h46.12.250,ImageRatingTask_S2,2021.1.4,Win32,59.95203837,,,,,,,,,
,,,,,,,,,,,,0,5,5,5,1,sixth,13,26,F,R,IMT,2021-07-11_09h46.12.250,ImageRatingTask_S2,2021.1.4,Win32,59.95203837,,,,,,,,,
,,,,,,,,,,,,0,6,6,6,1,seventh,13,26,F,R,IMT,2021-07-11_09h46.12.250,ImageRatingTask_S2,2021.1.4,Win32,59.95203837,,,,,,,,,
,,,,,,,,,,,,0,7,7,7,1,last,13,26,F,R,IMT,2021-07-11_09h46.12.250,ImageRatingTask_S2,2021.1.4,Win32,59.95203837,,,,,,,,,
,,,,,,,,,,,,,,,,,,13,26,F,R,IMT,2021-07-11_09h46.12.250,ImageRatingTask_S2,2021.1.4,Win32,59.95203837,0,34,34,108,1,DreamStudyImages_rs1000x750g/Mammals/Animals_111_h.jpg,,,
,,4,8.426,8,8.04,6,10.599,1,0.915,6,2.796,0,0,0,0,1,main,13,26,F,R,IMT,2021-07-11_09h46.12.250,ImageRatingTask_S2,2021.1.4,Win32,59.95203837,,,,,,,,,
,,,,,,,,,,,,0,1,1,1,1,second,13,26,F,R,IMT,2021-07-11_09h46.12.250,ImageRatingTask_S2,2021.1.4,Win32,59.95203837,,,,,,,,,
,,,,,,,,,,,,0,2,2,2,1,third,13,26,F,R,IMT,2021-07-11_09h46.12.250,ImageRatingTask_S2,2021.1.4,Win32,59.95203837,,,,,,,,,
,,,,,,,,,,,,0,3,3,3,1,fourth,13,26,F,R,IMT,2021-07-11_09h46.12.250,ImageRatingTask_S2,2021.1.4,Win32,59.95203837,,,,,,,,,
,,,,,,,,,,,,0,4,4,4,1,fifth,13,26,F,R,IMT,2021-07-11_09h46.12.250,ImageRatingTask_S2,2021.1.4,Win32,59.95203837,,,,,,,,,
,,,,,,,,,,,,0,5,5,5,1,sixth,13,26,F,R,IMT,2021-07-11_09h46.12.250,ImageRatingTask_S2,2021.1.4,Win32,59.95203837,,,,,,,,,
,,,,,,,,,,,,0,6,6,6,1,seventh,13,26,F,R,IMT,2021-07-11_09h46.12.250,ImageRatingTask_S2,2021.1.4,Win32,59.95203837,,,,,,,,,
,,,,,,,,,,,,0,7,7,7,1,last,13,26,F,R,IMT,2021-07-11_09h46.12.250,ImageRatingTask_S2,2021.1.4,Win32,59.95203837,,,,,,,,,
,,,,,,,,,,,,,,,,,,13,26,F,R,IMT,2021-07-11_09h46.12.250,ImageRatingTask_S2,2021.1.4,Win32,59.95203837,0,35,35,132,1,DreamStudyImages_rs1000x750g/Houses/9470.jpg,,,
,,3,9.258,3,4.708,6,16.604,1,1.029,6,2.245,0,0,0,0,1,main,13,26,F,R,IMT,2021-07-11_09h46.12.250,ImageRatingTask_S2,2021.1.4,Win32,59.95203837,,,,,,,,,
,,,,,,,,,,,,0,1,1,1,1,second,13,26,F,R,IMT,2021-07-11_09h46.12.250,ImageRatingTask_S2,2021.1.4,Win32,59.95203837,,,,,,,,,
,,,,,,,,,,,,0,2,2,2,1,third,13,26,F,R,IMT,2021-07-11_09h46.12.250,ImageRatingTask_S2,2021.1.4,Win32,59.95203837,,,,,,,,,
,,,,,,,,,,,,0,3,3,3,1,fourth,13,26,F,R,IMT,2021-07-11_09h46.12.250,ImageRatingTask_S2,2021.1.4,Win32,59.95203837,,,,,,,,,
,,,,,,,,,,,,0,4,4,4,1,fifth,13,26,F,R,IMT,2021-07-11_09h46.12.250,ImageRatingTask_S2,2021.1.4,Win32,59.95203837,,,,,,,,,
,,,,,,,,,,,,0,5,5,5,1,sixth,13,26,F,R,IMT,2021-07-11_09h46.12.250,ImageRatingTask_S2,2021.1.4,Win32,59.95203837,,,,,,,,,
,,,,,,,,,,,,0,6,6,6,1,seventh,13,26,F,R,IMT,2021-07-11_09h46.12.250,ImageRatingTask_S2,2021.1.4,Win32,59.95203837,,,,,,,,,
,,,,,,,,,,,,0,7,7,7,1,last,13,26,F,R,IMT,2021-07-11_09h46.12.250,ImageRatingTask_S2,2021.1.4,Win32,59.95203837,,,,,,,,,
,,,,,,,,,,,,,,,,,,13,26,F,R,IMT,2021-07-11_09h46.12.250,ImageRatingTask_S2,2021.1.4,Win32,59.95203837,0,36,36,125,1,DreamStudyImages_rs1000x750g/Houses/Landscapes_002_h.jpg,,,
,,5,7.875,1,0.619,8,2.198,1,0.903,8,3.83,0,0,0,0,1,main,13,26,F,R,IMT,2021-07-11_09h46.12.250,ImageRatingTask_S2,2021.1.4,Win32,59.95203837,,,,,,,,,
,,,,,,,,,,,,0,1,1,1,1,second,13,26,F,R,IMT,2021-07-11_09h46.12.250,ImageRatingTask_S2,2021.1.4,Win32,59.95203837,,,,,,,,,
,,,,,,,,,,,,0,2,2,2,1,third,13,26,F,R,IMT,2021-07-11_09h46.12.250,ImageRatingTask_S2,2021.1.4,Win32,59.95203837,,,,,,,,,
,,,,,,,,,,,,0,3,3,3,1,fourth,13,26,F,R,IMT,2021-07-11_09h46.12.250,ImageRatingTask_S2,2021.1.4,Win32,59.95203837,,,,,,,,,
,,,,,,,,,,,,0,4,4,4,1,fifth,13,26,F,R,IMT,2021-07-11_09h46.12.250,ImageRatingTask_S2,2021.1.4,Win32,59.95203837,,,,,,,,,
,,,,,,,,,,,,0,5,5,5,1,sixth,13,26,F,R,IMT,2021-07-11_09h46.12.250,ImageRatingTask_S2,2021.1.4,Win32,59.95203837,,,,,,,,,
,,,,,,,,,,,,0,6,6,6,1,seventh,13,26,F,R,IMT,2021-07-11_09h46.12.250,ImageRatingTask_S2,2021.1.4,Win32,59.95203837,,,,,,,,,
,,,,,,,,,,,,0,7,7,7,1,last,13,26,F,R,IMT,2021-07-11_09h46.12.250,ImageRatingTask_S2,2021.1.4,Win32,59.95203837,,,,,,,,,
,,,,,,,,,,,,,,,,,,13,26,F,R,IMT,2021-07-11_09h46.12.250,ImageRatingTask_S2,2021.1.4,Win32,59.95203837,0,37,37,153,1,DreamStudyImages_rs1000x750g/Water/cityfountain.jpg,,,
,,4,5.15,2,2.211,5,3.199,1,0.935,2,936.092,0,0,0,0,1,main,13,26,F,R,IMT,2021-07-11_09h46.12.250,ImageRatingTask_S2,2021.1.4,Win32,59.95203837,,,,,,,,,
,,,,,,,,,,,,0,1,1,1,1,second,13,26,F,R,IMT,2021-07-11_09h46.12.250,ImageRatingTask_S2,2021.1.4,Win32,59.95203837,,,,,,,,,
,,,,,,,,,,,,0,2,2,2,1,third,13,26,F,R,IMT,2021-07-11_09h46.12.250,ImageRatingTask_S2,2021.1.4,Win32,59.95203837,,,,,,,,,
,,,,,,,,,,,,0,3,3,3,1,fourth,13,26,F,R,IMT,2021-07-11_09h46.12.250,ImageRatingTask_S2,2021.1.4,Win32,59.95203837,,,,,,,,,
,,,,,,,,,,,,0,4,4,4,1,fifth,13,26,F,R,IMT,2021-07-11_09h46.12.250,ImageRatingTask_S2,2021.1.4,Win32,59.95203837,,,,,,,,,
,,,,,,,,,,,,0,5,5,5,1,sixth,13,26,F,R,IMT,2021-07-11_09h46.12.250,ImageRatingTask_S2,2021.1.4,Win32,59.95203837,,,,,,,,,
,,,,,,,,,,,,0,6,6,6,1,seventh,13,26,F,R,IMT,2021-07-11_09h46.12.250,ImageRatingTask_S2,2021.1.4,Win32,59.95203837,,,,,,,,,
,,,,,,,,,,,,0,7,7,7,1,last,13,26,F,R,IMT,2021-07-11_09h46.12.250,ImageRatingTask_S2,2021.1.4,Win32,59.95203837,,,,,,,,,
,,,,,,,,,,,,,,,,,,13,26,F,R,IMT,2021-07-11_09h46.12.250,ImageRatingTask_S2,2021.1.4,Win32,59.95203837,0,38,38,7,1,DreamStudyImages_rs1000x750g/Children/IAPS3301_babyaccident2.jpg,,,
,,5,2.391,1,0.353,8,1.727,1,1.074,3,1.469,0,0,0,0,1,main,13,26,F,R,IMT,2021-07-11_09h46.12.250,ImageRatingTask_S2,2021.1.4,Win32,59.95203837,,,,,,,,,
,,,,,,,,,,,,0,1,1,1,1,second,13,26,F,R,IMT,2021-07-11_09h46.12.250,ImageRatingTask_S2,2021.1.4,Win32,59.95203837,,,,,,,,,
,,,,,,,,,,,,0,2,2,2,1,third,13,26,F,R,IMT,2021-07-11_09h46.12.250,ImageRatingTask_S2,2021.1.4,Win32,59.95203837,,,,,,,,,
,,,,,,,,,,,,0,3,3,3,1,fourth,13,26,F,R,IMT,2021-07-11_09h46.12.250,ImageRatingTask_S2,2021.1.4,Win32,59.95203837,,,,,,,,,
,,,,,,,,,,,,0,4,4,4,1,fifth,13,26,F,R,IMT,2021-07-11_09h46.12.250,ImageRatingTask_S2,2021.1.4,Win32,59.95203837,,,,,,,,,
,,,,,,,,,,,,0,5,5,5,1,sixth,13,26,F,R,IMT,2021-07-11_09h46.12.250,ImageRatingTask_S2,2021.1.4,Win32,59.95203837,,,,,,,,,
,,,,,,,,,,,,0,6,6,6,1,seventh,13,26,F,R,IMT,2021-07-11_09h46.12.250,ImageRatingTask_S2,2021.1.4,Win32,59.95203837,,,,,,,,,
,,,,,,,,,,,,0,7,7,7,1,last,13,26,F,R,IMT,2021-07-11_09h46.12.250,ImageRatingTask_S2,2021.1.4,Win32,59.95203837,,,,,,,,,
,,,,,,,,,,,,,,,,,,13,26,F,R,IMT,2021-07-11_09h46.12.250,ImageRatingTask_S2,2021.1.4,Win32,59.95203837,0,39,39,90,1,DreamStudyImages_rs1000x750g/Mammals/Animals_206_h_CHECK.jpg,,,
,,5,2.022,5,1.369,8,3.602,8,0.19,1,0.393,0,0,0,0,1,main,13,26,F,R,IMT,2021-07-11_09h46.12.250,ImageRatingTask_S2,2021.1.4,Win32,59.95203837,,,,,,,,,
,,,,,,,,,,7,1.251,0,1,1,1,1,second,13,26,F,R,IMT,2021-07-11_09h46.12.250,ImageRatingTask_S2,2021.1.4,Win32,59.95203837,,,,,,,,,
,,,,,,,,,,7,4.902,0,2,2,2,1,third,13,26,F,R,IMT,2021-07-11_09h46.12.250,ImageRatingTask_S2,2021.1.4,Win32,59.95203837,,,,,,,,,
,,,,,,,,,,7,3.353,0,3,3,3,1,fourth,13,26,F,R,IMT,2021-07-11_09h46.12.250,ImageRatingTask_S2,2021.1.4,Win32,59.95203837,,,,,,,,,
,,,,,,,,,,7,0.736,0,4,4,4,1,fifth,13,26,F,R,IMT,2021-07-11_09h46.12.250,ImageRatingTask_S2,2021.1.4,Win32,59.95203837,,,,,,,,,
,,,,,,,,,,7,0.334,0,5,5,5,1,sixth,13,26,F,R,IMT,2021-07-11_09h46.12.250,ImageRatingTask_S2,2021.1.4,Win32,59.95203837,,,,,,,,,
,,,,,,,,,,7,0.468,0,6,6,6,1,seventh,13,26,F,R,IMT,2021-07-11_09h46.12.250,ImageRatingTask_S2,2021.1.4,Win32,59.95203837,,,,,,,,,
,,,,,,,,,,7,1.584,0,7,7,7,1,last,13,26,F,R,IMT,2021-07-11_09h46.12.250,ImageRatingTask_S2,2021.1.4,Win32,59.95203837,,,,,,,,,
,,,,,,,,,,,,,,,,,,13,26,F,R,IMT,2021-07-11_09h46.12.250,ImageRatingTask_S2,2021.1.4,Win32,59.95203837,0,40,40,110,1,DreamStudyImages_rs1000x750g/Vehicles/Objects_288_h.jpg,,,
,,5,5.418,1,0.787,8,3.22,1,0.936,8,1.146,0,0,0,0,1,main,13,26,F,R,IMT,2021-07-11_09h46.12.250,ImageRatingTask_S2,2021.1.4,Win32,59.95203837,,,,,,,,,
,,,,,,,,,,,,0,1,1,1,1,second,13,26,F,R,IMT,2021-07-11_09h46.12.250,ImageRatingTask_S2,2021.1.4,Win32,59.95203837,,,,,,,,,
,,,,,,,,,,,,0,2,2,2,1,third,13,26,F,R,IMT,2021-07-11_09h46.12.250,ImageRatingTask_S2,2021.1.4,Win32,59.95203837,,,,,,,,,
,,,,,,,,,,,,0,3,3,3,1,fourth,13,26,F,R,IMT,2021-07-11_09h46.12.250,ImageRatingTask_S2,2021.1.4,Win32,59.95203837,,,,,,,,,
,,,,,,,,,,,,0,4,4,4,1,fifth,13,26,F,R,IMT,2021-07-11_09h46.12.250,ImageRatingTask_S2,2021.1.4,Win32,59.95203837,,,,,,,,,
,,,,,,,,,,,,0,5,5,5,1,sixth,13,26,F,R,IMT,2021-07-11_09h46.12.250,ImageRatingTask_S2,2021.1.4,Win32,59.95203837,,,,,,,,,
,,,,,,,,,,,,0,6,6,6,1,seventh,13,26,F,R,IMT,2021-07-11_09h46.12.250,ImageRatingTask_S2,2021.1.4,Win32,59.95203837,,,,,,,,,
,,,,,,,,,,,,0,7,7,7,1,last,13,26,F,R,IMT,2021-07-11_09h46.12.250,ImageRatingTask_S2,2021.1.4,Win32,59.95203837,,,,,,,,,
,,,,,,,,,,,,,,,,,,13,26,F,R,IMT,2021-07-11_09h46.12.250,ImageRatingTask_S2,2021.1.4,Win32,59.95203837,0,41,41,6,1,DreamStudyImages_rs1000x750g/Water/landscapes_130_h.jpg,,,
,,6,14.539,3,0.714,7,1.717,1,0.496,2,0.678,0,0,0,0,1,main,13,26,F,R,IMT,2021-07-11_09h46.12.250,ImageRatingTask_S2,2021.1.4,Win32,59.95203837,,,,,,,,,
,,,,,,,,,,,,0,1,1,1,1,second,13,26,F,R,IMT,2021-07-11_09h46.12.250,ImageRatingTask_S2,2021.1.4,Win32,59.95203837,,,,,,,,,
,,,,,,,,,,,,0,2,2,2,1,third,13,26,F,R,IMT,2021-07-11_09h46.12.250,ImageRatingTask_S2,2021.1.4,Win32,59.95203837,,,,,,,,,
,,,,,,,,,,,,0,3,3,3,1,fourth,13,26,F,R,IMT,2021-07-11_09h46.12.250,ImageRatingTask_S2,2021.1.4,Win32,59.95203837,,,,,,,,,
,,,,,,,,,,,,0,4,4,4,1,fifth,13,26,F,R,IMT,2021-07-11_09h46.12.250,ImageRatingTask_S2,2021.1.4,Win32,59.95203837,,,,,,,,,
,,,,,,,,,,,,0,5,5,5,1,sixth,13,26,F,R,IMT,2021-07-11_09h46.12.250,ImageRatingTask_S2,2021.1.4,Win32,59.95203837,,,,,,,,,
,,,,,,,,,,,,0,6,6,6,1,seventh,13,26,F,R,IMT,2021-07-11_09h46.12.250,ImageRatingTask_S2,2021.1.4,Win32,59.95203837,,,,,,,,,
,,,,,,,,,,,,0,7,7,7,1,last,13,26,F,R,IMT,2021-07-11_09h46.12.250,ImageRatingTask_S2,2021.1.4,Win32,59.95203837,,,,,,,,,
,,,,,,,,,,,,,,,,,,13,26,F,R,IMT,2021-07-11_09h46.12.250,ImageRatingTask_S2,2021.1.4,Win32,59.95203837,0,42,42,146,1,DreamStudyImages_rs1000x750g/Children/2045.jpg,,,
,,4,1.625,4,1.105,7,1.965,1,0.68,3,3.512,0,0,0,0,1,main,13,26,F,R,IMT,2021-07-11_09h46.12.250,ImageRatingTask_S2,2021.1.4,Win32,59.95203837,,,,,,,,,
,,,,,,,,,,,,0,1,1,1,1,second,13,26,F,R,IMT,2021-07-11_09h46.12.250,ImageRatingTask_S2,2021.1.4,Win32,59.95203837,,,,,,,,,
,,,,,,,,,,,,0,2,2,2,1,third,13,26,F,R,IMT,2021-07-11_09h46.12.250,ImageRatingTask_S2,2021.1.4,Win32,59.95203837,,,,,,,,,
,,,,,,,,,,,,0,3,3,3,1,fourth,13,26,F,R,IMT,2021-07-11_09h46.12.250,ImageRatingTask_S2,2021.1.4,Win32,59.95203837,,,,,,,,,
,,,,,,,,,,,,0,4,4,4,1,fifth,13,26,F,R,IMT,2021-07-11_09h46.12.250,ImageRatingTask_S2,2021.1.4,Win32,59.95203837,,,,,,,,,
,,,,,,,,,,,,0,5,5,5,1,sixth,13,26,F,R,IMT,2021-07-11_09h46.12.250,ImageRatingTask_S2,2021.1.4,Win32,59.95203837,,,,,,,,,
,,,,,,,,,,,,0,6,6,6,1,seventh,13,26,F,R,IMT,2021-07-11_09h46.12.250,ImageRatingTask_S2,2021.1.4,Win32,59.95203837,,,,,,,,,
,,,,,,,,,,,,0,7,7,7,1,last,13,26,F,R,IMT,2021-07-11_09h46.12.250,ImageRatingTask_S2,2021.1.4,Win32,59.95203837,,,,,,,,,
,,,,,,,,,,,,,,,,,,13,26,F,R,IMT,2021-07-11_09h46.12.250,ImageRatingTask_S2,2021.1.4,Win32,59.95203837,0,43,43,56,1,DreamStudyImages_rs1000x750g/Mammals/Tiger 1.jpg,,,
,,5,4.088,1,0.454,9,1.093,1,0.466,6,1.057,0,0,0,0,1,main,13,26,F,R,IMT,2021-07-11_09h46.12.250,ImageRatingTask_S2,2021.1.4,Win32,59.95203837,,,,,,,,,
,,,,,,,,,,,,0,1,1,1,1,second,13,26,F,R,IMT,2021-07-11_09h46.12.250,ImageRatingTask_S2,2021.1.4,Win32,59.95203837,,,,,,,,,
,,,,,,,,,,,,0,2,2,2,1,third,13,26,F,R,IMT,2021-07-11_09h46.12.250,ImageRatingTask_S2,2021.1.4,Win32,59.95203837,,,,,,,,,
,,,,,,,,,,,,0,3,3,3,1,fourth,13,26,F,R,IMT,2021-07-11_09h46.12.250,ImageRatingTask_S2,2021.1.4,Win32,59.95203837,,,,,,,,,
,,,,,,,,,,,,0,4,4,4,1,fifth,13,26,F,R,IMT,2021-07-11_09h46.12.250,ImageRatingTask_S2,2021.1.4,Win32,59.95203837,,,,,,,,,
,,,,,,,,,,,,0,5,5,5,1,sixth,13,26,F,R,IMT,2021-07-11_09h46.12.250,ImageRatingTask_S2,2021.1.4,Win32,59.95203837,,,,,,,,,
,,,,,,,,,,,,0,6,6,6,1,seventh,13,26,F,R,IMT,2021-07-11_09h46.12.250,ImageRatingTask_S2,2021.1.4,Win32,59.95203837,,,,,,,,,
,,,,,,,,,,,,0,7,7,7,1,last,13,26,F,R,IMT,2021-07-11_09h46.12.250,ImageRatingTask_S2,2021.1.4,Win32,59.95203837,,,,,,,,,
,,,,,,,,,,,,,,,,,,13,26,F,R,IMT,2021-07-11_09h46.12.250,ImageRatingTask_S2,2021.1.4,Win32,59.95203837,0,44,44,50,1,DreamStudyImages_rs1000x750g/Houses/Landscapes_042_h.jpg,,,
,,5,1.37,1,0.219,8,3.064,1,0.451,3,1.162,0,0,0,0,1,main,13,26,F,R,IMT,2021-07-11_09h46.12.250,ImageRatingTask_S2,2021.1.4,Win32,59.95203837,,,,,,,,,
,,,,,,,,,,,,0,1,1,1,1,second,13,26,F,R,IMT,2021-07-11_09h46.12.250,ImageRatingTask_S2,2021.1.4,Win32,59.95203837,,,,,,,,,
,,,,,,,,,,,,0,2,2,2,1,third,13,26,F,R,IMT,2021-07-11_09h46.12.250,ImageRatingTask_S2,2021.1.4,Win32,59.95203837,,,,,,,,,
,,,,,,,,,,,,0,3,3,3,1,fourth,13,26,F,R,IMT,2021-07-11_09h46.12.250,ImageRatingTask_S2,2021.1.4,Win32,59.95203837,,,,,,,,,
,,,,,,,,,,,,0,4,4,4,1,fifth,13,26,F,R,IMT,2021-07-11_09h46.12.250,ImageRatingTask_S2,2021.1.4,Win32,59.95203837,,,,,,,,,
,,,,,,,,,,,,0,5,5,5,1,sixth,13,26,F,R,IMT,2021-07-11_09h46.12.250,ImageRatingTask_S2,2021.1.4,Win32,59.95203837,,,,,,,,,
,,,,,,,,,,,,0,6,6,6,1,seventh,13,26,F,R,IMT,2021-07-11_09h46.12.250,ImageRatingTask_S2,2021.1.4,Win32,59.95203837,,,,,,,,,
,,,,,,,,,,,,0,7,7,7,1,last,13,26,F,R,IMT,2021-07-11_09h46.12.250,ImageRatingTask_S2,2021.1.4,Win32,59.95203837,,,,,,,,,
,,,,,,,,,,,,,,,,,,13,26,F,R,IMT,2021-07-11_09h46.12.250,ImageRatingTask_S2,2021.1.4,Win32,59.95203837,0,45,45,105,1,DreamStudyImages_rs1000x750g/Mammals/IAPS1505_dog7.jpg,,,
,,5,2.034,1,0.202,9,2.495,1,0.448,5,1.128,0,0,0,0,1,main,13,26,F,R,IMT,2021-07-11_09h46.12.250,ImageRatingTask_S2,2021.1.4,Win32,59.95203837,,,,,,,,,
,,,,,,,,,,,,0,1,1,1,1,second,13,26,F,R,IMT,2021-07-11_09h46.12.250,ImageRatingTask_S2,2021.1.4,Win32,59.95203837,,,,,,,,,
,,,,,,,,,,,,0,2,2,2,1,third,13,26,F,R,IMT,2021-07-11_09h46.12.250,ImageRatingTask_S2,2021.1.4,Win32,59.95203837,,,,,,,,,
,,,,,,,,,,,,0,3,3,3,1,fourth,13,26,F,R,IMT,2021-07-11_09h46.12.250,ImageRatingTask_S2,2021.1.4,Win32,59.95203837,,,,,,,,,
,,,,,,,,,,,,0,4,4,4,1,fifth,13,26,F,R,IMT,2021-07-11_09h46.12.250,ImageRatingTask_S2,2021.1.4,Win32,59.95203837,,,,,,,,,
,,,,,,,,,,,,0,5,5,5,1,sixth,13,26,F,R,IMT,2021-07-11_09h46.12.250,ImageRatingTask_S2,2021.1.4,Win32,59.95203837,,,,,,,,,
,,,,,,,,,,,,0,6,6,6,1,seventh,13,26,F,R,IMT,2021-07-11_09h46.12.250,ImageRatingTask_S2,2021.1.4,Win32,59.95203837,,,,,,,,,
,,,,,,,,,,,,0,7,7,7,1,last,13,26,F,R,IMT,2021-07-11_09h46.12.250,ImageRatingTask_S2,2021.1.4,Win32,59.95203837,,,,,,,,,
,,,,,,,,,,,,,,,,,,13,26,F,R,IMT,2021-07-11_09h46.12.250,ImageRatingTask_S2,2021.1.4,Win32,59.95203837,0,46,46,67,1,DreamStudyImages_rs1000x750g/Food/Objects_014_h.jpg,,,
,,5,2.556,1,0.143,6,1.496,1,0.553,7,1.103,0,0,0,0,1,main,13,26,F,R,IMT,2021-07-11_09h46.12.250,ImageRatingTask_S2,2021.1.4,Win32,59.95203837,,,,,,,,,
,,,,,,,,,,,,0,1,1,1,1,second,13,26,F,R,IMT,2021-07-11_09h46.12.250,ImageRatingTask_S2,2021.1.4,Win32,59.95203837,,,,,,,,,
,,,,,,,,,,,,0,2,2,2,1,third,13,26,F,R,IMT,2021-07-11_09h46.12.250,ImageRatingTask_S2,2021.1.4,Win32,59.95203837,,,,,,,,,
,,,,,,,,,,,,0,3,3,3,1,fourth,13,26,F,R,IMT,2021-07-11_09h46.12.250,ImageRatingTask_S2,2021.1.4,Win32,59.95203837,,,,,,,,,
,,,,,,,,,,,,0,4,4,4,1,fifth,13,26,F,R,IMT,2021-07-11_09h46.12.250,ImageRatingTask_S2,2021.1.4,Win32,59.95203837,,,,,,,,,
,,,,,,,,,,,,0,5,5,5,1,sixth,13,26,F,R,IMT,2021-07-11_09h46.12.250,ImageRatingTask_S2,2021.1.4,Win32,59.95203837,,,,,,,,,
,,,,,,,,,,,,0,6,6,6,1,seventh,13,26,F,R,IMT,2021-07-11_09h46.12.250,ImageRatingTask_S2,2021.1.4,Win32,59.95203837,,,,,,,,,
,,,,,,,,,,,,0,7,7,7,1,last,13,26,F,R,IMT,2021-07-11_09h46.12.250,ImageRatingTask_S2,2021.1.4,Win32,59.95203837,,,,,,,,,
,,,,,,,,,,,,,,,,,,13,26,F,R,IMT,2021-07-11_09h46.12.250,ImageRatingTask_S2,2021.1.4,Win32,59.95203837,0,47,47,114,1,DreamStudyImages_rs1000x750g/Vehicles/IAPS7140_bus.jpg,,,
,,6,1.595,2,0.774,7,1.831,1,0.977,8,2.91,0,0,0,0,1,main,13,26,F,R,IMT,2021-07-11_09h46.12.250,ImageRatingTask_S2,2021.1.4,Win32,59.95203837,,,,,,,,,
,,,,,,,,,,,,0,1,1,1,1,second,13,26,F,R,IMT,2021-07-11_09h46.12.250,ImageRatingTask_S2,2021.1.4,Win32,59.95203837,,,,,,,,,
,,,,,,,,,,,,0,2,2,2,1,third,13,26,F,R,IMT,2021-07-11_09h46.12.250,ImageRatingTask_S2,2021.1.4,Win32,59.95203837,,,,,,,,,
,,,,,,,,,,,,0,3,3,3,1,fourth,13,26,F,R,IMT,2021-07-11_09h46.12.250,ImageRatingTask_S2,2021.1.4,Win32,59.95203837,,,,,,,,,
,,,,,,,,,,,,0,4,4,4,1,fifth,13,26,F,R,IMT,2021-07-11_09h46.12.250,ImageRatingTask_S2,2021.1.4,Win32,59.95203837,,,,,,,,,
,,,,,,,,,,,,0,5,5,5,1,sixth,13,26,F,R,IMT,2021-07-11_09h46.12.250,ImageRatingTask_S2,2021.1.4,Win32,59.95203837,,,,,,,,,
,,,,,,,,,,,,0,6,6,6,1,seventh,13,26,F,R,IMT,2021-07-11_09h46.12.250,ImageRatingTask_S2,2021.1.4,Win32,59.95203837,,,,,,,,,
,,,,,,,,,,,,0,7,7,7,1,last,13,26,F,R,IMT,2021-07-11_09h46.12.250,ImageRatingTask_S2,2021.1.4,Win32,59.95203837,,,,,,,,,
,,,,,,,,,,,,,,,,,,13,26,F,R,IMT,2021-07-11_09h46.12.250,ImageRatingTask_S2,2021.1.4,Win32,59.95203837,0,48,48,75,1,DreamStudyImages_rs1000x750g/Water/Lake 9.jpg,,,
,,5,1.826,1,0.123,9,1.517,1,0.532,6,3.753,0,0,0,0,1,main,13,26,F,R,IMT,2021-07-11_09h46.12.250,ImageRatingTask_S2,2021.1.4,Win32,59.95203837,,,,,,,,,
,,,,,,,,,,,,0,1,1,1,1,second,13,26,F,R,IMT,2021-07-11_09h46.12.250,ImageRatingTask_S2,2021.1.4,Win32,59.95203837,,,,,,,,,
,,,,,,,,,,,,0,2,2,2,1,third,13,26,F,R,IMT,2021-07-11_09h46.12.250,ImageRatingTask_S2,2021.1.4,Win32,59.95203837,,,,,,,,,
,,,,,,,,,,,,0,3,3,3,1,fourth,13,26,F,R,IMT,2021-07-11_09h46.12.250,ImageRatingTask_S2,2021.1.4,Win32,59.95203837,,,,,,,,,
,,,,,,,,,,,,0,4,4,4,1,fifth,13,26,F,R,IMT,2021-07-11_09h46.12.250,ImageRatingTask_S2,2021.1.4,Win32,59.95203837,,,,,,,,,
,,,,,,,,,,,,0,5,5,5,1,sixth,13,26,F,R,IMT,2021-07-11_09h46.12.250,ImageRatingTask_S2,2021.1.4,Win32,59.95203837,,,,,,,,,
,,,,,,,,,,,,0,6,6,6,1,seventh,13,26,F,R,IMT,2021-07-11_09h46.12.250,ImageRatingTask_S2,2021.1.4,Win32,59.95203837,,,,,,,,,
,,,,,,,,,,,,0,7,7,7,1,last,13,26,F,R,IMT,2021-07-11_09h46.12.250,ImageRatingTask_S2,2021.1.4,Win32,59.95203837,,,,,,,,,
,,,,,,,,,,,,,,,,,,13,26,F,R,IMT,2021-07-11_09h46.12.250,ImageRatingTask_S2,2021.1.4,Win32,59.95203837,0,49,49,3,1,DreamStudyImages_rs1000x750g/Houses/Landscapes_019_h.jpg,,,
,,5,1.068,1,0.606,9,1.201,1,0.347,2,1.078,0,0,0,0,1,main,13,26,F,R,IMT,2021-07-11_09h46.12.250,ImageRatingTask_S2,2021.1.4,Win32,59.95203837,,,,,,,,,
,,,,,,,,,,,,0,1,1,1,1,second,13,26,F,R,IMT,2021-07-11_09h46.12.250,ImageRatingTask_S2,2021.1.4,Win32,59.95203837,,,,,,,,,
,,,,,,,,,,,,0,2,2,2,1,third,13,26,F,R,IMT,2021-07-11_09h46.12.250,ImageRatingTask_S2,2021.1.4,Win32,59.95203837,,,,,,,,,
,,,,,,,,,,,,0,3,3,3,1,fourth,13,26,F,R,IMT,2021-07-11_09h46.12.250,ImageRatingTask_S2,2021.1.4,Win32,59.95203837,,,,,,,,,
,,,,,,,,,,,,0,4,4,4,1,fifth,13,26,F,R,IMT,2021-07-11_09h46.12.250,ImageRatingTask_S2,2021.1.4,Win32,59.95203837,,,,,,,,,
,,,,,,,,,,,,0,5,5,5,1,sixth,13,26,F,R,IMT,2021-07-11_09h46.12.250,ImageRatingTask_S2,2021.1.4,Win32,59.95203837,,,,,,,,,
,,,,,,,,,,,,0,6,6,6,1,seventh,13,26,F,R,IMT,2021-07-11_09h46.12.250,ImageRatingTask_S2,2021.1.4,Win32,59.95203837,,,,,,,,,
,,,,,,,,,,,,0,7,7,7,1,last,13,26,F,R,IMT,2021-07-11_09h46.12.250,ImageRatingTask_S2,2021.1.4,Win32,59.95203837,,,,,,,,,
,,,,,,,,,,,,,,,,,,13,26,F,R,IMT,2021-07-11_09h46.12.250,ImageRatingTask_S2,2021.1.4,Win32,59.95203837,0,50,50,13,1,DreamStudyImages_rs1000x750g/Children/Faces_056_h.jpg,,,
,,5,1.508,1,0.208,8,2.265,1,0.837,5,1.06,0,0,0,0,1,main,13,26,F,R,IMT,2021-07-11_09h46.12.250,ImageRatingTask_S2,2021.1.4,Win32,59.95203837,,,,,,,,,
,,,,,,,,,,,,0,1,1,1,1,second,13,26,F,R,IMT,2021-07-11_09h46.12.250,ImageRatingTask_S2,2021.1.4,Win32,59.95203837,,,,,,,,,
,,,,,,,,,,,,0,2,2,2,1,third,13,26,F,R,IMT,2021-07-11_09h46.12.250,ImageRatingTask_S2,2021.1.4,Win32,59.95203837,,,,,,,,,
,,,,,,,,,,,,0,3,3,3,1,fourth,13,26,F,R,IMT,2021-07-11_09h46.12.250,ImageRatingTask_S2,2021.1.4,Win32,59.95203837,,,,,,,,,
,,,,,,,,,,,,0,4,4,4,1,fifth,13,26,F,R,IMT,2021-07-11_09h46.12.250,ImageRatingTask_S2,2021.1.4,Win32,59.95203837,,,,,,,,,
,,,,,,,,,,,,0,5,5,5,1,sixth,13,26,F,R,IMT,2021-07-11_09h46.12.250,ImageRatingTask_S2,2021.1.4,Win32,59.95203837,,,,,,,,,
,,,,,,,,,,,,0,6,6,6,1,seventh,13,26,F,R,IMT,2021-07-11_09h46.12.250,ImageRatingTask_S2,2021.1.4,Win32,59.95203837,,,,,,,,,
,,,,,,,,,,,,0,7,7,7,1,last,13,26,F,R,IMT,2021-07-11_09h46.12.250,ImageRatingTask_S2,2021.1.4,Win32,59.95203837,,,,,,,,,
,,,,,,,,,,,,,,,,,,13,26,F,R,IMT,2021-07-11_09h46.12.250,ImageRatingTask_S2,2021.1.4,Win32,59.95203837,0,51,51,118,1,DreamStudyImages_rs1000x750g/Food/Food 6.jpg,,,
,,5,1.043,1,1.115,8,1.836,1,1.382,5,0.684,0,0,0,0,1,main,13,26,F,R,IMT,2021-07-11_09h46.12.250,ImageRatingTask_S2,2021.1.4,Win32,59.95203837,,,,,,,,,
,,,,,,,,,,,,0,1,1,1,1,second,13,26,F,R,IMT,2021-07-11_09h46.12.250,ImageRatingTask_S2,2021.1.4,Win32,59.95203837,,,,,,,,,
,,,,,,,,,,,,0,2,2,2,1,third,13,26,F,R,IMT,2021-07-11_09h46.12.250,ImageRatingTask_S2,2021.1.4,Win32,59.95203837,,,,,,,,,
,,,,,,,,,,,,0,3,3,3,1,fourth,13,26,F,R,IMT,2021-07-11_09h46.12.250,ImageRatingTask_S2,2021.1.4,Win32,59.95203837,,,,,,,,,
,,,,,,,,,,,,0,4,4,4,1,fifth,13,26,F,R,IMT,2021-07-11_09h46.12.250,ImageRatingTask_S2,2021.1.4,Win32,59.95203837,,,,,,,,,
,,,,,,,,,,,,0,5,5,5,1,sixth,13,26,F,R,IMT,2021-07-11_09h46.12.250,ImageRatingTask_S2,2021.1.4,Win32,59.95203837,,,,,,,,,
,,,,,,,,,,,,0,6,6,6,1,seventh,13,26,F,R,IMT,2021-07-11_09h46.12.250,ImageRatingTask_S2,2021.1.4,Win32,59.95203837,,,,,,,,,
,,,,,,,,,,,,0,7,7,7,1,last,13,26,F,R,IMT,2021-07-11_09h46.12.250,ImageRatingTask_S2,2021.1.4,Win32,59.95203837,,,,,,,,,
,,,,,,,,,,,,,,,,,,13,26,F,R,IMT,2021-07-11_09h46.12.250,ImageRatingTask_S2,2021.1.4,Win32,59.95203837,0,52,52,158,1,DreamStudyImages_rs1000x750g/Food/IAPS7284_apricots.jpg,,,
,,5,1.314,1,0.375,9,1.587,1,0.83,3,1.144,0,0,0,0,1,main,13,26,F,R,IMT,2021-07-11_09h46.12.250,ImageRatingTask_S2,2021.1.4,Win32,59.95203837,,,,,,,,,
,,,,,,,,,,,,0,1,1,1,1,second,13,26,F,R,IMT,2021-07-11_09h46.12.250,ImageRatingTask_S2,2021.1.4,Win32,59.95203837,,,,,,,,,
,,,,,,,,,,,,0,2,2,2,1,third,13,26,F,R,IMT,2021-07-11_09h46.12.250,ImageRatingTask_S2,2021.1.4,Win32,59.95203837,,,,,,,,,
,,,,,,,,,,,,0,3,3,3,1,fourth,13,26,F,R,IMT,2021-07-11_09h46.12.250,ImageRatingTask_S2,2021.1.4,Win32,59.95203837,,,,,,,,,
,,,,,,,,,,,,0,4,4,4,1,fifth,13,26,F,R,IMT,2021-07-11_09h46.12.250,ImageRatingTask_S2,2021.1.4,Win32,59.95203837,,,,,,,,,
,,,,,,,,,,,,0,5,5,5,1,sixth,13,26,F,R,IMT,2021-07-11_09h46.12.250,ImageRatingTask_S2,2021.1.4,Win32,59.95203837,,,,,,,,,
,,,,,,,,,,,,0,6,6,6,1,seventh,13,26,F,R,IMT,2021-07-11_09h46.12.250,ImageRatingTask_S2,2021.1.4,Win32,59.95203837,,,,,,,,,
,,,,,,,,,,,,0,7,7,7,1,last,13,26,F,R,IMT,2021-07-11_09h46.12.250,ImageRatingTask_S2,2021.1.4,Win32,59.95203837,,,,,,,,,
,,,,,,,,,,,,,,,,,,13,26,F,R,IMT,2021-07-11_09h46.12.250,ImageRatingTask_S2,2021.1.4,Win32,59.95203837,0,53,53,79,1,DreamStudyImages_rs1000x750g/Mammals/IAPS1812_elephants.jpg,,,
,,5,1.735,1,0.235,9,0.649,1,2.014,8,0.952,0,0,0,0,1,main,13,26,F,R,IMT,2021-07-11_09h46.12.250,ImageRatingTask_S2,2021.1.4,Win32,59.95203837,,,,,,,,,
,,,,,,,,,,,,0,1,1,1,1,second,13,26,F,R,IMT,2021-07-11_09h46.12.250,ImageRatingTask_S2,2021.1.4,Win32,59.95203837,,,,,,,,,
,,,,,,,,,,,,0,2,2,2,1,third,13,26,F,R,IMT,2021-07-11_09h46.12.250,ImageRatingTask_S2,2021.1.4,Win32,59.95203837,,,,,,,,,
,,,,,,,,,,,,0,3,3,3,1,fourth,13,26,F,R,IMT,2021-07-11_09h46.12.250,ImageRatingTask_S2,2021.1.4,Win32,59.95203837,,,,,,,,,
,,,,,,,,,,,,0,4,4,4,1,fifth,13,26,F,R,IMT,2021-07-11_09h46.12.250,ImageRatingTask_S2,2021.1.4,Win32,59.95203837,,,,,,,,,
,,,,,,,,,,,,0,5,5,5,1,sixth,13,26,F,R,IMT,2021-07-11_09h46.12.250,ImageRatingTask_S2,2021.1.4,Win32,59.95203837,,,,,,,,,
,,,,,,,,,,,,0,6,6,6,1,seventh,13,26,F,R,IMT,2021-07-11_09h46.12.250,ImageRatingTask_S2,2021.1.4,Win32,59.95203837,,,,,,,,,
,,,,,,,,,,,,0,7,7,7,1,last,13,26,F,R,IMT,2021-07-11_09h46.12.250,ImageRatingTask_S2,2021.1.4,Win32,59.95203837,,,,,,,,,
,,,,,,,,,,,,,,,,,,13,26,F,R,IMT,2021-07-11_09h46.12.250,ImageRatingTask_S2,2021.1.4,Win32,59.95203837,0,54,54,139,1,DreamStudyImages_rs1000x750g/Water/Landscapes_165_h.jpg,,,
,,5,2.337,1,0.254,6,1.831,1,1.136,7,0.828,0,0,0,0,1,main,13,26,F,R,IMT,2021-07-11_09h46.12.250,ImageRatingTask_S2,2021.1.4,Win32,59.95203837,,,,,,,,,
,,,,,,,,,,,,0,1,1,1,1,second,13,26,F,R,IMT,2021-07-11_09h46.12.250,ImageRatingTask_S2,2021.1.4,Win32,59.95203837,,,,,,,,,
,,,,,,,,,,,,0,2,2,2,1,third,13,26,F,R,IMT,2021-07-11_09h46.12.250,ImageRatingTask_S2,2021.1.4,Win32,59.95203837,,,,,,,,,
,,,,,,,,,,,,0,3,3,3,1,fourth,13,26,F,R,IMT,2021-07-11_09h46.12.250,ImageRatingTask_S2,2021.1.4,Win32,59.95203837,,,,,,,,,
,,,,,,,,,,,,0,4,4,4,1,fifth,13,26,F,R,IMT,2021-07-11_09h46.12.250,ImageRatingTask_S2,2021.1.4,Win32,59.95203837,,,,,,,,,
,,,,,,,,,,,,0,5,5,5,1,sixth,13,26,F,R,IMT,2021-07-11_09h46.12.250,ImageRatingTask_S2,2021.1.4,Win32,59.95203837,,,,,,,,,
,,,,,,,,,,,,0,6,6,6,1,seventh,13,26,F,R,IMT,2021-07-11_09h46.12.250,ImageRatingTask_S2,2021.1.4,Win32,59.95203837,,,,,,,,,
,,,,,,,,,,,,0,7,7,7,1,last,13,26,F,R,IMT,2021-07-11_09h46.12.250,ImageRatingTask_S2,2021.1.4,Win32,59.95203837,,,,,,,,,
,,,,,,,,,,,,,,,,,,13,26,F,R,IMT,2021-07-11_09h46.12.250,ImageRatingTask_S2,2021.1.4,Win32,59.95203837,0,55,55,12,1,DreamStudyImages_rs1000x750g/Vehicles/Car race 3.jpg,,,
,,6,2.676,1,0.253,7,2.689,1,0.663,3,1.466,0,0,0,0,1,main,13,26,F,R,IMT,2021-07-11_09h46.12.250,ImageRatingTask_S2,2021.1.4,Win32,59.95203837,,,,,,,,,
,,,,,,,,,,,,0,1,1,1,1,second,13,26,F,R,IMT,2021-07-11_09h46.12.250,ImageRatingTask_S2,2021.1.4,Win32,59.95203837,,,,,,,,,
,,,,,,,,,,,,0,2,2,2,1,third,13,26,F,R,IMT,2021-07-11_09h46.12.250,ImageRatingTask_S2,2021.1.4,Win32,59.95203837,,,,,,,,,
,,,,,,,,,,,,0,3,3,3,1,fourth,13,26,F,R,IMT,2021-07-11_09h46.12.250,ImageRatingTask_S2,2021.1.4,Win32,59.95203837,,,,,,,,,
,,,,,,,,,,,,0,4,4,4,1,fifth,13,26,F,R,IMT,2021-07-11_09h46.12.250,ImageRatingTask_S2,2021.1.4,Win32,59.95203837,,,,,,,,,
,,,,,,,,,,,,0,5,5,5,1,sixth,13,26,F,R,IMT,2021-07-11_09h46.12.250,ImageRatingTask_S2,2021.1.4,Win32,59.95203837,,,,,,,,,
,,,,,,,,,,,,0,6,6,6,1,seventh,13,26,F,R,IMT,2021-07-11_09h46.12.250,ImageRatingTask_S2,2021.1.4,Win32,59.95203837,,,,,,,,,
,,,,,,,,,,,,0,7,7,7,1,last,13,26,F,R,IMT,2021-07-11_09h46.12.250,ImageRatingTask_S2,2021.1.4,Win32,59.95203837,,,,,,,,,
,,,,,,,,,,,,,,,,,,13,26,F,R,IMT,2021-07-11_09h46.12.250,ImageRatingTask_S2,2021.1.4,Win32,59.95203837,0,56,56,104,1,DreamStudyImages_rs1000x750g/Mammals/Meerkat 1.jpg,,,
,,3,668.999,2,0.842,9,1.395,1,1.526,2,0.657,0,0,0,0,1,main,13,26,F,R,IMT,2021-07-11_09h46.12.250,ImageRatingTask_S2,2021.1.4,Win32,59.95203837,,,,,,,,,
,,,,,,,,,,,,0,1,1,1,1,second,13,26,F,R,IMT,2021-07-11_09h46.12.250,ImageRatingTask_S2,2021.1.4,Win32,59.95203837,,,,,,,,,
,,,,,,,,,,,,0,2,2,2,1,third,13,26,F,R,IMT,2021-07-11_09h46.12.250,ImageRatingTask_S2,2021.1.4,Win32,59.95203837,,,,,,,,,
,,,,,,,,,,,,0,3,3,3,1,fourth,13,26,F,R,IMT,2021-07-11_09h46.12.250,ImageRatingTask_S2,2021.1.4,Win32,59.95203837,,,,,,,,,
,,,,,,,,,,,,0,4,4,4,1,fifth,13,26,F,R,IMT,2021-07-11_09h46.12.250,ImageRatingTask_S2,2021.1.4,Win32,59.95203837,,,,,,,,,
,,,,,,,,,,,,0,5,5,5,1,sixth,13,26,F,R,IMT,2021-07-11_09h46.12.250,ImageRatingTask_S2,2021.1.4,Win32,59.95203837,,,,,,,,,
,,,,,,,,,,,,0,6,6,6,1,seventh,13,26,F,R,IMT,2021-07-11_09h46.12.250,ImageRatingTask_S2,2021.1.4,Win32,59.95203837,,,,,,,,,
,,,,,,,,,,,,0,7,7,7,1,last,13,26,F,R,IMT,2021-07-11_09h46.12.250,ImageRatingTask_S2,2021.1.4,Win32,59.95203837,,,,,,,,,
,,,,,,,,,,,,,,,,,,13,26,F,R,IMT,2021-07-11_09h46.12.250,ImageRatingTask_S2,2021.1.4,Win32,59.95203837,0,57,57,57,1,DreamStudyImages_rs1000x750g/Children/Faces_038_h.jpg,,,
,,3,2.816,6,1.246,5,2.919,1,1.035,6,2.567,0,0,0,0,1,main,13,26,F,R,IMT,2021-07-11_09h46.12.250,ImageRatingTask_S2,2021.1.4,Win32,59.95203837,,,,,,,,,
,,,,,,,,,,,,0,1,1,1,1,second,13,26,F,R,IMT,2021-07-11_09h46.12.250,ImageRatingTask_S2,2021.1.4,Win32,59.95203837,,,,,,,,,
,,,,,,,,,,,,0,2,2,2,1,third,13,26,F,R,IMT,2021-07-11_09h46.12.250,ImageRatingTask_S2,2021.1.4,Win32,59.95203837,,,,,,,,,
,,,,,,,,,,,,0,3,3,3,1,fourth,13,26,F,R,IMT,2021-07-11_09h46.12.250,ImageRatingTask_S2,2021.1.4,Win32,59.95203837,,,,,,,,,
,,,,,,,,,,,,0,4,4,4,1,fifth,13,26,F,R,IMT,2021-07-11_09h46.12.250,ImageRatingTask_S2,2021.1.4,Win32,59.95203837,,,,,,,,,
,,,,,,,,,,,,0,5,5,5,1,sixth,13,26,F,R,IMT,2021-07-11_09h46.12.250,ImageRatingTask_S2,2021.1.4,Win32,59.95203837,,,,,,,,,
,,,,,,,,,,,,0,6,6,6,1,seventh,13,26,F,R,IMT,2021-07-11_09h46.12.250,ImageRatingTask_S2,2021.1.4,Win32,59.95203837,,,,,,,,,
,,,,,,,,,,,,0,7,7,7,1,last,13,26,F,R,IMT,2021-07-11_09h46.12.250,ImageRatingTask_S2,2021.1.4,Win32,59.95203837,,,,,,,,,
,,,,,,,,,,,,,,,,,,13,26,F,R,IMT,2021-07-11_09h46.12.250,ImageRatingTask_S2,2021.1.4,Win32,59.95203837,0,58,58,32,1,DreamStudyImages_rs1000x750g/Houses/Jail 3.jpg,,,
,,5,1.717,1,1.286,8,2.514,1,0.931,1,0.161,0,0,0,0,1,main,13,26,F,R,IMT,2021-07-11_09h46.12.250,ImageRatingTask_S2,2021.1.4,Win32,59.95203837,,,,,,,,,
,,,,,,,,,,,,0,1,1,1,1,second,13,26,F,R,IMT,2021-07-11_09h46.12.250,ImageRatingTask_S2,2021.1.4,Win32,59.95203837,,,,,,,,,
,,,,,,,,,,,,0,2,2,2,1,third,13,26,F,R,IMT,2021-07-11_09h46.12.250,ImageRatingTask_S2,2021.1.4,Win32,59.95203837,,,,,,,,,
,,,,,,,,,,,,0,3,3,3,1,fourth,13,26,F,R,IMT,2021-07-11_09h46.12.250,ImageRatingTask_S2,2021.1.4,Win32,59.95203837,,,,,,,,,
,,,,,,,,,,,,0,4,4,4,1,fifth,13,26,F,R,IMT,2021-07-11_09h46.12.250,ImageRatingTask_S2,2021.1.4,Win32,59.95203837,,,,,,,,,
,,,,,,,,,,,,0,5,5,5,1,sixth,13,26,F,R,IMT,2021-07-11_09h46.12.250,ImageRatingTask_S2,2021.1.4,Win32,59.95203837,,,,,,,,,
,,,,,,,,,,,,0,6,6,6,1,seventh,13,26,F,R,IMT,2021-07-11_09h46.12.250,ImageRatingTask_S2,2021.1.4,Win32,59.95203837,,,,,,,,,
,,,,,,,,,,,,0,7,7,7,1,last,13,26,F,R,IMT,2021-07-11_09h46.12.250,ImageRatingTask_S2,2021.1.4,Win32,59.95203837,,,,,,,,,
,,,,,,,,,,,,,,,,,,13,26,F,R,IMT,2021-07-11_09h46.12.250,ImageRatingTask_S2,2021.1.4,Win32,59.95203837,0,59,59,61,1,DreamStudyImages_rs1000x750g/Children/Faces_045_h.jpg,,,
,,3,1.54,6,0.838,6,4.474,1,1.468,6,1.1,0,0,0,0,1,main,13,26,F,R,IMT,2021-07-11_09h46.12.250,ImageRatingTask_S2,2021.1.4,Win32,59.95203837,,,,,,,,,
,,,,,,,,,,,,0,1,1,1,1,second,13,26,F,R,IMT,2021-07-11_09h46.12.250,ImageRatingTask_S2,2021.1.4,Win32,59.95203837,,,,,,,,,
,,,,,,,,,,,,0,2,2,2,1,third,13,26,F,R,IMT,2021-07-11_09h46.12.250,ImageRatingTask_S2,2021.1.4,Win32,59.95203837,,,,,,,,,
,,,,,,,,,,,,0,3,3,3,1,fourth,13,26,F,R,IMT,2021-07-11_09h46.12.250,ImageRatingTask_S2,2021.1.4,Win32,59.95203837,,,,,,,,,
,,,,,,,,,,,,0,4,4,4,1,fifth,13,26,F,R,IMT,2021-07-11_09h46.12.250,ImageRatingTask_S2,2021.1.4,Win32,59.95203837,,,,,,,,,
,,,,,,,,,,,,0,5,5,5,1,sixth,13,26,F,R,IMT,2021-07-11_09h46.12.250,ImageRatingTask_S2,2021.1.4,Win32,59.95203837,,,,,,,,,
,,,,,,,,,,,,0,6,6,6,1,seventh,13,26,F,R,IMT,2021-07-11_09h46.12.250,ImageRatingTask_S2,2021.1.4,Win32,59.95203837,,,,,,,,,
,,,,,,,,,,,,0,7,7,7,1,last,13,26,F,R,IMT,2021-07-11_09h46.12.250,ImageRatingTask_S2,2021.1.4,Win32,59.95203837,,,,,,,,,
,,,,,,,,,,,,,,,,,,13,26,F,R,IMT,2021-07-11_09h46.12.250,ImageRatingTask_S2,2021.1.4,Win32,59.95203837,0,60,60,102,1,DreamStudyImages_rs1000x750g/Houses/Fire 5.jpg,,,
,,5,332.159,1,1.708,4,4.514,1,3.323,8,0.992,0,0,0,0,1,main,13,26,F,R,IMT,2021-07-11_09h46.12.250,ImageRatingTask_S2,2021.1.4,Win32,59.95203837,,,,,,,,,
,,,,,,,,,,,,0,1,1,1,1,second,13,26,F,R,IMT,2021-07-11_09h46.12.250,ImageRatingTask_S2,2021.1.4,Win32,59.95203837,,,,,,,,,
,,,,,,,,,,,,0,2,2,2,1,third,13,26,F,R,IMT,2021-07-11_09h46.12.250,ImageRatingTask_S2,2021.1.4,Win32,59.95203837,,,,,,,,,
,,,,,,,,,,,,0,3,3,3,1,fourth,13,26,F,R,IMT,2021-07-11_09h46.12.250,ImageRatingTask_S2,2021.1.4,Win32,59.95203837,,,,,,,,,
,,,,,,,,,,,,0,4,4,4,1,fifth,13,26,F,R,IMT,2021-07-11_09h46.12.250,ImageRatingTask_S2,2021.1.4,Win32,59.95203837,,,,,,,,,
,,,,,,,,,,,,0,5,5,5,1,sixth,13,26,F,R,IMT,2021-07-11_09h46.12.250,ImageRatingTask_S2,2021.1.4,Win32,59.95203837,,,,,,,,,
,,,,,,,,,,,,0,6,6,6,1,seventh,13,26,F,R,IMT,2021-07-11_09h46.12.250,ImageRatingTask_S2,2021.1.4,Win32,59.95203837,,,,,,,,,
,,,,,,,,,,,,0,7,7,7,1,last,13,26,F,R,IMT,2021-07-11_09h46.12.250,ImageRatingTask_S2,2021.1.4,Win32,59.95203837,,,,,,,,,
,,,,,,,,,,,,,,,,,,13,26,F,R,IMT,2021-07-11_09h46.12.250,ImageRatingTask_S2,2021.1.4,Win32,59.95203837,0,61,61,150,1,DreamStudyImages_rs1000x750g/Water/Beach 1.jpg,,,
,,5,1.009,1,0.66,9,1.844,1,2.131,7,0.813,0,0,0,0,1,main,13,26,F,R,IMT,2021-07-11_09h46.12.250,ImageRatingTask_S2,2021.1.4,Win32,59.95203837,,,,,,,,,
,,,,,,,,,,,,0,1,1,1,1,second,13,26,F,R,IMT,2021-07-11_09h46.12.250,ImageRatingTask_S2,2021.1.4,Win32,59.95203837,,,,,,,,,
,,,,,,,,,,,,0,2,2,2,1,third,13,26,F,R,IMT,2021-07-11_09h46.12.250,ImageRatingTask_S2,2021.1.4,Win32,59.95203837,,,,,,,,,
,,,,,,,,,,,,0,3,3,3,1,fourth,13,26,F,R,IMT,2021-07-11_09h46.12.250,ImageRatingTask_S2,2021.1.4,Win32,59.95203837,,,,,,,,,
,,,,,,,,,,,,0,4,4,4,1,fifth,13,26,F,R,IMT,2021-07-11_09h46.12.250,ImageRatingTask_S2,2021.1.4,Win32,59.95203837,,,,,,,,,
,,,,,,,,,,,,0,5,5,5,1,sixth,13,26,F,R,IMT,2021-07-11_09h46.12.250,ImageRatingTask_S2,2021.1.4,Win32,59.95203837,,,,,,,,,
,,,,,,,,,,,,0,6,6,6,1,seventh,13,26,F,R,IMT,2021-07-11_09h46.12.250,ImageRatingTask_S2,2021.1.4,Win32,59.95203837,,,,,,,,,
,,,,,,,,,,,,0,7,7,7,1,last,13,26,F,R,IMT,2021-07-11_09h46.12.250,ImageRatingTask_S2,2021.1.4,Win32,59.95203837,,,,,,,,,
,,,,,,,,,,,,,,,,,,13,26,F,R,IMT,2021-07-11_09h46.12.250,ImageRatingTask_S2,2021.1.4,Win32,59.95203837,0,62,62,113,1,DreamStudyImages_rs1000x750g/Vehicles/truck_CROPPED.jpg,,,
,,5,12.623,1,1.135,9,2.234,1,2.848,8,0.923,0,0,0,0,1,main,13,26,F,R,IMT,2021-07-11_09h46.12.250,ImageRatingTask_S2,2021.1.4,Win32,59.95203837,,,,,,,,,
,,,,,,,,,,,,0,1,1,1,1,second,13,26,F,R,IMT,2021-07-11_09h46.12.250,ImageRatingTask_S2,2021.1.4,Win32,59.95203837,,,,,,,,,
,,,,,,,,,,,,0,2,2,2,1,third,13,26,F,R,IMT,2021-07-11_09h46.12.250,ImageRatingTask_S2,2021.1.4,Win32,59.95203837,,,,,,,,,
,,,,,,,,,,,,0,3,3,3,1,fourth,13,26,F,R,IMT,2021-07-11_09h46.12.250,ImageRatingTask_S2,2021.1.4,Win32,59.95203837,,,,,,,,,
,,,,,,,,,,,,0,4,4,4,1,fifth,13,26,F,R,IMT,2021-07-11_09h46.12.250,ImageRatingTask_S2,2021.1.4,Win32,59.95203837,,,,,,,,,
,,,,,,,,,,,,0,5,5,5,1,sixth,13,26,F,R,IMT,2021-07-11_09h46.12.250,ImageRatingTask_S2,2021.1.4,Win32,59.95203837,,,,,,,,,
,,,,,,,,,,,,0,6,6,6,1,seventh,13,26,F,R,IMT,2021-07-11_09h46.12.250,ImageRatingTask_S2,2021.1.4,Win32,59.95203837,,,,,,,,,
,,,,,,,,,,,,0,7,7,7,1,last,13,26,F,R,IMT,2021-07-11_09h46.12.250,ImageRatingTask_S2,2021.1.4,Win32,59.95203837,,,,,,,,,
,,,,,,,,,,,,,,,,,,13,26,F,R,IMT,2021-07-11_09h46.12.250,ImageRatingTask_S2,2021.1.4,Win32,59.95203837,0,63,63,59,1,DreamStudyImages_rs1000x750g/Water/IAPS2446_mudpuddle.jpg,,,
,,3,10.974,3,1.767,8,16.725,1,1.248,6,1.349,0,0,0,0,1,main,13,26,F,R,IMT,2021-07-11_09h46.12.250,ImageRatingTask_S2,2021.1.4,Win32,59.95203837,,,,,,,,,
,,,,,,,,,,,,0,1,1,1,1,second,13,26,F,R,IMT,2021-07-11_09h46.12.250,ImageRatingTask_S2,2021.1.4,Win32,59.95203837,,,,,,,,,
,,,,,,,,,,,,0,2,2,2,1,third,13,26,F,R,IMT,2021-07-11_09h46.12.250,ImageRatingTask_S2,2021.1.4,Win32,59.95203837,,,,,,,,,
,,,,,,,,,,,,0,3,3,3,1,fourth,13,26,F,R,IMT,2021-07-11_09h46.12.250,ImageRatingTask_S2,2021.1.4,Win32,59.95203837,,,,,,,,,
,,,,,,,,,,,,0,4,4,4,1,fifth,13,26,F,R,IMT,2021-07-11_09h46.12.250,ImageRatingTask_S2,2021.1.4,Win32,59.95203837,,,,,,,,,
,,,,,,,,,,,,0,5,5,5,1,sixth,13,26,F,R,IMT,2021-07-11_09h46.12.250,ImageRatingTask_S2,2021.1.4,Win32,59.95203837,,,,,,,,,
,,,,,,,,,,,,0,6,6,6,1,seventh,13,26,F,R,IMT,2021-07-11_09h46.12.250,ImageRatingTask_S2,2021.1.4,Win32,59.95203837,,,,,,,,,
,,,,,,,,,,,,0,7,7,7,1,last,13,26,F,R,IMT,2021-07-11_09h46.12.250,ImageRatingTask_S2,2021.1.4,Win32,59.95203837,,,,,,,,,
,,,,,,,,,,,,,,,,,,13,26,F,R,IMT,2021-07-11_09h46.12.250,ImageRatingTask_S2,2021.1.4,Win32,59.95203837,0,64,64,138,1,DreamStudyImages_rs1000x750g/Houses/NDPS25_houses3.jpg,,,
,,5,0.953,1,0.604,8,6.622,1,1.581,6,0.924,0,0,0,0,1,main,13,26,F,R,IMT,2021-07-11_09h46.12.250,ImageRatingTask_S2,2021.1.4,Win32,59.95203837,,,,,,,,,
,,,,,,,,,,,,0,1,1,1,1,second,13,26,F,R,IMT,2021-07-11_09h46.12.250,ImageRatingTask_S2,2021.1.4,Win32,59.95203837,,,,,,,,,
,,,,,,,,,,,,0,2,2,2,1,third,13,26,F,R,IMT,2021-07-11_09h46.12.250,ImageRatingTask_S2,2021.1.4,Win32,59.95203837,,,,,,,,,
,,,,,,,,,,,,0,3,3,3,1,fourth,13,26,F,R,IMT,2021-07-11_09h46.12.250,ImageRatingTask_S2,2021.1.4,Win32,59.95203837,,,,,,,,,
,,,,,,,,,,,,0,4,4,4,1,fifth,13,26,F,R,IMT,2021-07-11_09h46.12.250,ImageRatingTask_S2,2021.1.4,Win32,59.95203837,,,,,,,,,
,,,,,,,,,,,,0,5,5,5,1,sixth,13,26,F,R,IMT,2021-07-11_09h46.12.250,ImageRatingTask_S2,2021.1.4,Win32,59.95203837,,,,,,,,,
,,,,,,,,,,,,0,6,6,6,1,seventh,13,26,F,R,IMT,2021-07-11_09h46.12.250,ImageRatingTask_S2,2021.1.4,Win32,59.95203837,,,,,,,,,
,,,,,,,,,,,,0,7,7,7,1,last,13,26,F,R,IMT,2021-07-11_09h46.12.250,ImageRatingTask_S2,2021.1.4,Win32,59.95203837,,,,,,,,,
,,,,,,,,,,,,,,,,,,13,26,F,R,IMT,2021-07-11_09h46.12.250,ImageRatingTask_S2,2021.1.4,Win32,59.95203837,0,65,65,4,1,DreamStudyImages_rs1000x750g/Houses/Bricks 1.jpg,,,
,,5,0.951,1,0.819,9,1.766,1,0.903,8,1.162,0,0,0,0,1,main,13,26,F,R,IMT,2021-07-11_09h46.12.250,ImageRatingTask_S2,2021.1.4,Win32,59.95203837,,,,,,,,,
,,,,,,,,,,,,0,1,1,1,1,second,13,26,F,R,IMT,2021-07-11_09h46.12.250,ImageRatingTask_S2,2021.1.4,Win32,59.95203837,,,,,,,,,
,,,,,,,,,,,,0,2,2,2,1,third,13,26,F,R,IMT,2021-07-11_09h46.12.250,ImageRatingTask_S2,2021.1.4,Win32,59.95203837,,,,,,,,,
,,,,,,,,,,,,0,3,3,3,1,fourth,13,26,F,R,IMT,2021-07-11_09h46.12.250,ImageRatingTask_S2,2021.1.4,Win32,59.95203837,,,,,,,,,
,,,,,,,,,,,,0,4,4,4,1,fifth,13,26,F,R,IMT,2021-07-11_09h46.12.250,ImageRatingTask_S2,2021.1.4,Win32,59.95203837,,,,,,,,,
,,,,,,,,,,,,0,5,5,5,1,sixth,13,26,F,R,IMT,2021-07-11_09h46.12.250,ImageRatingTask_S2,2021.1.4,Win32,59.95203837,,,,,,,,,
,,,,,,,,,,,,0,6,6,6,1,seventh,13,26,F,R,IMT,2021-07-11_09h46.12.250,ImageRatingTask_S2,2021.1.4,Win32,59.95203837,,,,,,,,,
,,,,,,,,,,,,0,7,7,7,1,last,13,26,F,R,IMT,2021-07-11_09h46.12.250,ImageRatingTask_S2,2021.1.4,Win32,59.95203837,,,,,,,,,
,,,,,,,,,,,,,,,,,,13,26,F,R,IMT,2021-07-11_09h46.12.250,ImageRatingTask_S2,2021.1.4,Win32,59.95203837,0,66,66,124,1,DreamStudyImages_rs1000x750g/Water/rockylake.jpg,,,
,,6,1.943,2,1.478,9,2.198,1,2.432,3,5.4,0,0,0,0,1,main,13,26,F,R,IMT,2021-07-11_09h46.12.250,ImageRatingTask_S2,2021.1.4,Win32,59.95203837,,,,,,,,,
,,,,,,,,,,,,0,1,1,1,1,second,13,26,F,R,IMT,2021-07-11_09h46.12.250,ImageRatingTask_S2,2021.1.4,Win32,59.95203837,,,,,,,,,
,,,,,,,,,,,,0,2,2,2,1,third,13,26,F,R,IMT,2021-07-11_09h46.12.250,ImageRatingTask_S2,2021.1.4,Win32,59.95203837,,,,,,,,,
,,,,,,,,,,,,0,3,3,3,1,fourth,13,26,F,R,IMT,2021-07-11_09h46.12.250,ImageRatingTask_S2,2021.1.4,Win32,59.95203837,,,,,,,,,
,,,,,,,,,,,,0,4,4,4,1,fifth,13,26,F,R,IMT,2021-07-11_09h46.12.250,ImageRatingTask_S2,2021.1.4,Win32,59.95203837,,,,,,,,,
,,,,,,,,,,,,0,5,5,5,1,sixth,13,26,F,R,IMT,2021-07-11_09h46.12.250,ImageRatingTask_S2,2021.1.4,Win32,59.95203837,,,,,,,,,
,,,,,,,,,,,,0,6,6,6,1,seventh,13,26,F,R,IMT,2021-07-11_09h46.12.250,ImageRatingTask_S2,2021.1.4,Win32,59.95203837,,,,,,,,,
,,,,,,,,,,,,0,7,7,7,1,last,13,26,F,R,IMT,2021-07-11_09h46.12.250,ImageRatingTask_S2,2021.1.4,Win32,59.95203837,,,,,,,,,
,,,,,,,,,,,,,,,,,,13,26,F,R,IMT,2021-07-11_09h46.12.250,ImageRatingTask_S2,2021.1.4,Win32,59.95203837,0,67,67,17,1,DreamStudyImages_rs1000x750g/Mammals/Ferret 1.jpg,,,
,,6,2.854,2,1.277,9,1.547,1,0.97,5,1.41,0,0,0,0,1,main,13,26,F,R,IMT,2021-07-11_09h46.12.250,ImageRatingTask_S2,2021.1.4,Win32,59.95203837,,,,,,,,,
,,,,,,,,,,,,0,1,1,1,1,second,13,26,F,R,IMT,2021-07-11_09h46.12.250,ImageRatingTask_S2,2021.1.4,Win32,59.95203837,,,,,,,,,
,,,,,,,,,,,,0,2,2,2,1,third,13,26,F,R,IMT,2021-07-11_09h46.12.250,ImageRatingTask_S2,2021.1.4,Win32,59.95203837,,,,,,,,,
,,,,,,,,,,,,0,3,3,3,1,fourth,13,26,F,R,IMT,2021-07-11_09h46.12.250,ImageRatingTask_S2,2021.1.4,Win32,59.95203837,,,,,,,,,
,,,,,,,,,,,,0,4,4,4,1,fifth,13,26,F,R,IMT,2021-07-11_09h46.12.250,ImageRatingTask_S2,2021.1.4,Win32,59.95203837,,,,,,,,,
,,,,,,,,,,,,0,5,5,5,1,sixth,13,26,F,R,IMT,2021-07-11_09h46.12.250,ImageRatingTask_S2,2021.1.4,Win32,59.95203837,,,,,,,,,
,,,,,,,,,,,,0,6,6,6,1,seventh,13,26,F,R,IMT,2021-07-11_09h46.12.250,ImageRatingTask_S2,2021.1.4,Win32,59.95203837,,,,,,,,,
,,,,,,,,,,,,0,7,7,7,1,last,13,26,F,R,IMT,2021-07-11_09h46.12.250,ImageRatingTask_S2,2021.1.4,Win32,59.95203837,,,,,,,,,
,,,,,,,,,,,,,,,,,,13,26,F,R,IMT,2021-07-11_09h46.12.250,ImageRatingTask_S2,2021.1.4,Win32,59.95203837,0,68,68,142,1,DreamStudyImages_rs1000x750g/Food/Dessert 3.jpg,,,
,,5,1.158,1,1.109,9,1.848,1,0.846,5,1,0,0,0,0,1,main,13,26,F,R,IMT,2021-07-11_09h46.12.250,ImageRatingTask_S2,2021.1.4,Win32,59.95203837,,,,,,,,,
,,,,,,,,,,,,0,1,1,1,1,second,13,26,F,R,IMT,2021-07-11_09h46.12.250,ImageRatingTask_S2,2021.1.4,Win32,59.95203837,,,,,,,,,
,,,,,,,,,,,,0,2,2,2,1,third,13,26,F,R,IMT,2021-07-11_09h46.12.250,ImageRatingTask_S2,2021.1.4,Win32,59.95203837,,,,,,,,,
,,,,,,,,,,,,0,3,3,3,1,fourth,13,26,F,R,IMT,2021-07-11_09h46.12.250,ImageRatingTask_S2,2021.1.4,Win32,59.95203837,,,,,,,,,
,,,,,,,,,,,,0,4,4,4,1,fifth,13,26,F,R,IMT,2021-07-11_09h46.12.250,ImageRatingTask_S2,2021.1.4,Win32,59.95203837,,,,,,,,,
,,,,,,,,,,,,0,5,5,5,1,sixth,13,26,F,R,IMT,2021-07-11_09h46.12.250,ImageRatingTask_S2,2021.1.4,Win32,59.95203837,,,,,,,,,
,,,,,,,,,,,,0,6,6,6,1,seventh,13,26,F,R,IMT,2021-07-11_09h46.12.250,ImageRatingTask_S2,2021.1.4,Win32,59.95203837,,,,,,,,,
,,,,,,,,,,,,0,7,7,7,1,last,13,26,F,R,IMT,2021-07-11_09h46.12.250,ImageRatingTask_S2,2021.1.4,Win32,59.95203837,,,,,,,,,
,,,,,,,,,,,,,,,,,,13,26,F,R,IMT,2021-07-11_09h46.12.250,ImageRatingTask_S2,2021.1.4,Win32,59.95203837,0,69,69,111,1,DreamStudyImages_rs1000x750g/Food/Objects_063_v.jpg,,,
,,5,0.582,1,0.486,9,1.902,1,0.734,5,0.944,0,0,0,0,1,main,13,26,F,R,IMT,2021-07-11_09h46.12.250,ImageRatingTask_S2,2021.1.4,Win32,59.95203837,,,,,,,,,
,,,,,,,,,,,,0,1,1,1,1,second,13,26,F,R,IMT,2021-07-11_09h46.12.250,ImageRatingTask_S2,2021.1.4,Win32,59.95203837,,,,,,,,,
,,,,,,,,,,,,0,2,2,2,1,third,13,26,F,R,IMT,2021-07-11_09h46.12.250,ImageRatingTask_S2,2021.1.4,Win32,59.95203837,,,,,,,,,
,,,,,,,,,,,,0,3,3,3,1,fourth,13,26,F,R,IMT,2021-07-11_09h46.12.250,ImageRatingTask_S2,2021.1.4,Win32,59.95203837,,,,,,,,,
,,,,,,,,,,,,0,4,4,4,1,fifth,13,26,F,R,IMT,2021-07-11_09h46.12.250,ImageRatingTask_S2,2021.1.4,Win32,59.95203837,,,,,,,,,
,,,,,,,,,,,,0,5,5,5,1,sixth,13,26,F,R,IMT,2021-07-11_09h46.12.250,ImageRatingTask_S2,2021.1.4,Win32,59.95203837,,,,,,,,,
,,,,,,,,,,,,0,6,6,6,1,seventh,13,26,F,R,IMT,2021-07-11_09h46.12.250,ImageRatingTask_S2,2021.1.4,Win32,59.95203837,,,,,,,,,
,,,,,,,,,,,,0,7,7,7,1,last,13,26,F,R,IMT,2021-07-11_09h46.12.250,ImageRatingTask_S2,2021.1.4,Win32,59.95203837,,,,,,,,,
,,,,,,,,,,,,,,,,,,13,26,F,R,IMT,2021-07-11_09h46.12.250,ImageRatingTask_S2,2021.1.4,Win32,59.95203837,0,70,70,122,1,DreamStudyImages_rs1000x750g/Food/Objects_089_h.jpg,,,
,,4,2.252,1,0.859,9,1.549,1,0.68,8,3.133,0,0,0,0,1,main,13,26,F,R,IMT,2021-07-11_09h46.12.250,ImageRatingTask_S2,2021.1.4,Win32,59.95203837,,,,,,,,,
,,,,,,,,,,,,0,1,1,1,1,second,13,26,F,R,IMT,2021-07-11_09h46.12.250,ImageRatingTask_S2,2021.1.4,Win32,59.95203837,,,,,,,,,
,,,,,,,,,,,,0,2,2,2,1,third,13,26,F,R,IMT,2021-07-11_09h46.12.250,ImageRatingTask_S2,2021.1.4,Win32,59.95203837,,,,,,,,,
,,,,,,,,,,,,0,3,3,3,1,fourth,13,26,F,R,IMT,2021-07-11_09h46.12.250,ImageRatingTask_S2,2021.1.4,Win32,59.95203837,,,,,,,,,
,,,,,,,,,,,,0,4,4,4,1,fifth,13,26,F,R,IMT,2021-07-11_09h46.12.250,ImageRatingTask_S2,2021.1.4,Win32,59.95203837,,,,,,,,,
,,,,,,,,,,,,0,5,5,5,1,sixth,13,26,F,R,IMT,2021-07-11_09h46.12.250,ImageRatingTask_S2,2021.1.4,Win32,59.95203837,,,,,,,,,
,,,,,,,,,,,,0,6,6,6,1,seventh,13,26,F,R,IMT,2021-07-11_09h46.12.250,ImageRatingTask_S2,2021.1.4,Win32,59.95203837,,,,,,,,,
,,,,,,,,,,,,0,7,7,7,1,last,13,26,F,R,IMT,2021-07-11_09h46.12.250,ImageRatingTask_S2,2021.1.4,Win32,59.95203837,,,,,,,,,
,,,,,,,,,,,,,,,,,,13,26,F,R,IMT,2021-07-11_09h46.12.250,ImageRatingTask_S2,2021.1.4,Win32,59.95203837,0,71,71,156,1,DreamStudyImages_rs1000x750g/Water/Objects_233_h.jpg,,,
,,5,2.403,1,0.802,7,1.519,1,0.998,5,0.827,0,0,0,0,1,main,13,26,F,R,IMT,2021-07-11_09h46.12.250,ImageRatingTask_S2,2021.1.4,Win32,59.95203837,,,,,,,,,
,,,,,,,,,,,,0,1,1,1,1,second,13,26,F,R,IMT,2021-07-11_09h46.12.250,ImageRatingTask_S2,2021.1.4,Win32,59.95203837,,,,,,,,,
,,,,,,,,,,,,0,2,2,2,1,third,13,26,F,R,IMT,2021-07-11_09h46.12.250,ImageRatingTask_S2,2021.1.4,Win32,59.95203837,,,,,,,,,
,,,,,,,,,,,,0,3,3,3,1,fourth,13,26,F,R,IMT,2021-07-11_09h46.12.250,ImageRatingTask_S2,2021.1.4,Win32,59.95203837,,,,,,,,,
,,,,,,,,,,,,0,4,4,4,1,fifth,13,26,F,R,IMT,2021-07-11_09h46.12.250,ImageRatingTask_S2,2021.1.4,Win32,59.95203837,,,,,,,,,
,,,,,,,,,,,,0,5,5,5,1,sixth,13,26,F,R,IMT,2021-07-11_09h46.12.250,ImageRatingTask_S2,2021.1.4,Win32,59.95203837,,,,,,,,,
,,,,,,,,,,,,0,6,6,6,1,seventh,13,26,F,R,IMT,2021-07-11_09h46.12.250,ImageRatingTask_S2,2021.1.4,Win32,59.95203837,,,,,,,,,
,,,,,,,,,,,,0,7,7,7,1,last,13,26,F,R,IMT,2021-07-11_09h46.12.250,ImageRatingTask_S2,2021.1.4,Win32,59.95203837,,,,,,,,,
,,,,,,,,,,,,,,,,,,13,26,F,R,IMT,2021-07-11_09h46.12.250,ImageRatingTask_S2,2021.1.4,Win32,59.95203837,0,72,72,0,1,DreamStudyImages_rs1000x750g/Food/Objects_016_h.jpg,,,
,,5,1.728,1,0.586,9,2.452,1,1.082,5,2.976,0,0,0,0,1,main,13,26,F,R,IMT,2021-07-11_09h46.12.250,ImageRatingTask_S2,2021.1.4,Win32,59.95203837,,,,,,,,,
,,,,,,,,,,,,0,1,1,1,1,second,13,26,F,R,IMT,2021-07-11_09h46.12.250,ImageRatingTask_S2,2021.1.4,Win32,59.95203837,,,,,,,,,
,,,,,,,,,,,,0,2,2,2,1,third,13,26,F,R,IMT,2021-07-11_09h46.12.250,ImageRatingTask_S2,2021.1.4,Win32,59.95203837,,,,,,,,,
,,,,,,,,,,,,0,3,3,3,1,fourth,13,26,F,R,IMT,2021-07-11_09h46.12.250,ImageRatingTask_S2,2021.1.4,Win32,59.95203837,,,,,,,,,
,,,,,,,,,,,,0,4,4,4,1,fifth,13,26,F,R,IMT,2021-07-11_09h46.12.250,ImageRatingTask_S2,2021.1.4,Win32,59.95203837,,,,,,,,,
,,,,,,,,,,,,0,5,5,5,1,sixth,13,26,F,R,IMT,2021-07-11_09h46.12.250,ImageRatingTask_S2,2021.1.4,Win32,59.95203837,,,,,,,,,
,,,,,,,,,,,,0,6,6,6,1,seventh,13,26,F,R,IMT,2021-07-11_09h46.12.250,ImageRatingTask_S2,2021.1.4,Win32,59.95203837,,,,,,,,,
,,,,,,,,,,,,0,7,7,7,1,last,13,26,F,R,IMT,2021-07-11_09h46.12.250,ImageRatingTask_S2,2021.1.4,Win32,59.95203837,,,,,,,,,
,,,,,,,,,,,,,,,,,,13,26,F,R,IMT,2021-07-11_09h46.12.250,ImageRatingTask_S2,2021.1.4,Win32,59.95203837,0,73,73,34,1,DreamStudyImages_rs1000x750g/Food/Objects_068_v.jpg,,,
,,5,1.854,1,0.611,3,1.88,1,2.152,8,1.744,0,0,0,0,1,main,13,26,F,R,IMT,2021-07-11_09h46.12.250,ImageRatingTask_S2,2021.1.4,Win32,59.95203837,,,,,,,,,
,,,,,,,,,,,,0,1,1,1,1,second,13,26,F,R,IMT,2021-07-11_09h46.12.250,ImageRatingTask_S2,2021.1.4,Win32,59.95203837,,,,,,,,,
,,,,,,,,,,,,0,2,2,2,1,third,13,26,F,R,IMT,2021-07-11_09h46.12.250,ImageRatingTask_S2,2021.1.4,Win32,59.95203837,,,,,,,,,
,,,,,,,,,,,,0,3,3,3,1,fourth,13,26,F,R,IMT,2021-07-11_09h46.12.250,ImageRatingTask_S2,2021.1.4,Win32,59.95203837,,,,,,,,,
,,,,,,,,,,,,0,4,4,4,1,fifth,13,26,F,R,IMT,2021-07-11_09h46.12.250,ImageRatingTask_S2,2021.1.4,Win32,59.95203837,,,,,,,,,
,,,,,,,,,,,,0,5,5,5,1,sixth,13,26,F,R,IMT,2021-07-11_09h46.12.250,ImageRatingTask_S2,2021.1.4,Win32,59.95203837,,,,,,,,,
,,,,,,,,,,,,0,6,6,6,1,seventh,13,26,F,R,IMT,2021-07-11_09h46.12.250,ImageRatingTask_S2,2021.1.4,Win32,59.95203837,,,,,,,,,
,,,,,,,,,,,,0,7,7,7,1,last,13,26,F,R,IMT,2021-07-11_09h46.12.250,ImageRatingTask_S2,2021.1.4,Win32,59.95203837,,,,,,,,,
,,,,,,,,,,,,,,,,,,13,26,F,R,IMT,2021-07-11_09h46.12.250,ImageRatingTask_S2,2021.1.4,Win32,59.95203837,0,74,74,92,1,DreamStudyImages_rs1000x750g/Water/Sunset 5.jpg,,,
,,5,1.307,1,0.65,5,4.811,2,1.581,6,2.385,0,0,0,0,1,main,13,26,F,R,IMT,2021-07-11_09h46.12.250,ImageRatingTask_S2,2021.1.4,Win32,59.95203837,,,,,,,,,
,,,,,,,,,,8,1.336,0,1,1,1,1,second,13,26,F,R,IMT,2021-07-11_09h46.12.250,ImageRatingTask_S2,2021.1.4,Win32,59.95203837,,,,,,,,,
,,,,,,,,,,,,0,2,2,2,1,third,13,26,F,R,IMT,2021-07-11_09h46.12.250,ImageRatingTask_S2,2021.1.4,Win32,59.95203837,,,,,,,,,
,,,,,,,,,,,,0,3,3,3,1,fourth,13,26,F,R,IMT,2021-07-11_09h46.12.250,ImageRatingTask_S2,2021.1.4,Win32,59.95203837,,,,,,,,,
,,,,,,,,,,,,0,4,4,4,1,fifth,13,26,F,R,IMT,2021-07-11_09h46.12.250,ImageRatingTask_S2,2021.1.4,Win32,59.95203837,,,,,,,,,
,,,,,,,,,,,,0,5,5,5,1,sixth,13,26,F,R,IMT,2021-07-11_09h46.12.250,ImageRatingTask_S2,2021.1.4,Win32,59.95203837,,,,,,,,,
,,,,,,,,,,,,0,6,6,6,1,seventh,13,26,F,R,IMT,2021-07-11_09h46.12.250,ImageRatingTask_S2,2021.1.4,Win32,59.95203837,,,,,,,,,
,,,,,,,,,,,,0,7,7,7,1,last,13,26,F,R,IMT,2021-07-11_09h46.12.250,ImageRatingTask_S2,2021.1.4,Win32,59.95203837,,,,,,,,,
,,,,,,,,,,,,,,,,,,13,26,F,R,IMT,2021-07-11_09h46.12.250,ImageRatingTask_S2,2021.1.4,Win32,59.95203837,0,75,75,77,1,DreamStudyImages_rs1000x750g/Water/sydneyopera.jpg,,,
,,5,0.869,2,4.652,8,3.882,1,1.381,3,0.945,0,0,0,0,1,main,13,26,F,R,IMT,2021-07-11_09h46.12.250,ImageRatingTask_S2,2021.1.4,Win32,59.95203837,,,,,,,,,
,,,,,,,,,,,,0,1,1,1,1,second,13,26,F,R,IMT,2021-07-11_09h46.12.250,ImageRatingTask_S2,2021.1.4,Win32,59.95203837,,,,,,,,,
,,,,,,,,,,,,0,2,2,2,1,third,13,26,F,R,IMT,2021-07-11_09h46.12.250,ImageRatingTask_S2,2021.1.4,Win32,59.95203837,,,,,,,,,
,,,,,,,,,,,,0,3,3,3,1,fourth,13,26,F,R,IMT,2021-07-11_09h46.12.250,ImageRatingTask_S2,2021.1.4,Win32,59.95203837,,,,,,,,,
,,,,,,,,,,,,0,4,4,4,1,fifth,13,26,F,R,IMT,2021-07-11_09h46.12.250,ImageRatingTask_S2,2021.1.4,Win32,59.95203837,,,,,,,,,
,,,,,,,,,,,,0,5,5,5,1,sixth,13,26,F,R,IMT,2021-07-11_09h46.12.250,ImageRatingTask_S2,2021.1.4,Win32,59.95203837,,,,,,,,,
,,,,,,,,,,,,0,6,6,6,1,seventh,13,26,F,R,IMT,2021-07-11_09h46.12.250,ImageRatingTask_S2,2021.1.4,Win32,59.95203837,,,,,,,,,
,,,,,,,,,,,,0,7,7,7,1,last,13,26,F,R,IMT,2021-07-11_09h46.12.250,ImageRatingTask_S2,2021.1.4,Win32,59.95203837,,,,,,,,,
,,,,,,,,,,,,,,,,,,13,26,F,R,IMT,2021-07-11_09h46.12.250,ImageRatingTask_S2,2021.1.4,Win32,59.95203837,0,76,76,9,1,DreamStudyImages_rs1000x750g/Mammals/Animals_054_h_CHECK.jpg,,,
,,5,2.657,1,0.949,9,0.884,1,1.115,8,1.229,0,0,0,0,1,main,13,26,F,R,IMT,2021-07-11_09h46.12.250,ImageRatingTask_S2,2021.1.4,Win32,59.95203837,,,,,,,,,
,,,,,,,,,,,,0,1,1,1,1,second,13,26,F,R,IMT,2021-07-11_09h46.12.250,ImageRatingTask_S2,2021.1.4,Win32,59.95203837,,,,,,,,,
,,,,,,,,,,,,0,2,2,2,1,third,13,26,F,R,IMT,2021-07-11_09h46.12.250,ImageRatingTask_S2,2021.1.4,Win32,59.95203837,,,,,,,,,
,,,,,,,,,,,,0,3,3,3,1,fourth,13,26,F,R,IMT,2021-07-11_09h46.12.250,ImageRatingTask_S2,2021.1.4,Win32,59.95203837,,,,,,,,,
,,,,,,,,,,,,0,4,4,4,1,fifth,13,26,F,R,IMT,2021-07-11_09h46.12.250,ImageRatingTask_S2,2021.1.4,Win32,59.95203837,,,,,,,,,
,,,,,,,,,,,,0,5,5,5,1,sixth,13,26,F,R,IMT,2021-07-11_09h46.12.250,ImageRatingTask_S2,2021.1.4,Win32,59.95203837,,,,,,,,,
,,,,,,,,,,,,0,6,6,6,1,seventh,13,26,F,R,IMT,2021-07-11_09h46.12.250,ImageRatingTask_S2,2021.1.4,Win32,59.95203837,,,,,,,,,
,,,,,,,,,,,,0,7,7,7,1,last,13,26,F,R,IMT,2021-07-11_09h46.12.250,ImageRatingTask_S2,2021.1.4,Win32,59.95203837,,,,,,,,,
,,,,,,,,,,,,,,,,,,13,26,F,R,IMT,2021-07-11_09h46.12.250,ImageRatingTask_S2,2021.1.4,Win32,59.95203837,0,77,77,101,1,DreamStudyImages_rs1000x750g/Water/wavybeach.jpg,,,
,,4,3.65,1,1.414,9,1.901,1,1.237,5,1.767,0,0,0,0,1,main,13,26,F,R,IMT,2021-07-11_09h46.12.250,ImageRatingTask_S2,2021.1.4,Win32,59.95203837,,,,,,,,,
,,,,,,,,,,,,0,1,1,1,1,second,13,26,F,R,IMT,2021-07-11_09h46.12.250,ImageRatingTask_S2,2021.1.4,Win32,59.95203837,,,,,,,,,
,,,,,,,,,,,,0,2,2,2,1,third,13,26,F,R,IMT,2021-07-11_09h46.12.250,ImageRatingTask_S2,2021.1.4,Win32,59.95203837,,,,,,,,,
,,,,,,,,,,,,0,3,3,3,1,fourth,13,26,F,R,IMT,2021-07-11_09h46.12.250,ImageRatingTask_S2,2021.1.4,Win32,59.95203837,,,,,,,,,
,,,,,,,,,,,,0,4,4,4,1,fifth,13,26,F,R,IMT,2021-07-11_09h46.12.250,ImageRatingTask_S2,2021.1.4,Win32,59.95203837,,,,,,,,,
,,,,,,,,,,,,0,5,5,5,1,sixth,13,26,F,R,IMT,2021-07-11_09h46.12.250,ImageRatingTask_S2,2021.1.4,Win32,59.95203837,,,,,,,,,
,,,,,,,,,,,,0,6,6,6,1,seventh,13,26,F,R,IMT,2021-07-11_09h46.12.250,ImageRatingTask_S2,2021.1.4,Win32,59.95203837,,,,,,,,,
,,,,,,,,,,,,0,7,7,7,1,last,13,26,F,R,IMT,2021-07-11_09h46.12.250,ImageRatingTask_S2,2021.1.4,Win32,59.95203837,,,,,,,,,
,,,,,,,,,,,,,,,,,,13,26,F,R,IMT,2021-07-11_09h46.12.250,ImageRatingTask_S2,2021.1.4,Win32,59.95203837,0,78,78,11,1,DreamStudyImages_rs1000x750g/Food/Objects_011_h.jpg,,,
,,5,2.127,1,0.487,8,1.473,1,1.907,7,1.342,0,0,0,0,1,main,13,26,F,R,IMT,2021-07-11_09h46.12.250,ImageRatingTask_S2,2021.1.4,Win32,59.95203837,,,,,,,,,
,,,,,,,,,,,,0,1,1,1,1,second,13,26,F,R,IMT,2021-07-11_09h46.12.250,ImageRatingTask_S2,2021.1.4,Win32,59.95203837,,,,,,,,,
,,,,,,,,,,,,0,2,2,2,1,third,13,26,F,R,IMT,2021-07-11_09h46.12.250,ImageRatingTask_S2,2021.1.4,Win32,59.95203837,,,,,,,,,
,,,,,,,,,,,,0,3,3,3,1,fourth,13,26,F,R,IMT,2021-07-11_09h46.12.250,ImageRatingTask_S2,2021.1.4,Win32,59.95203837,,,,,,,,,
,,,,,,,,,,,,0,4,4,4,1,fifth,13,26,F,R,IMT,2021-07-11_09h46.12.250,ImageRatingTask_S2,2021.1.4,Win32,59.95203837,,,,,,,,,
,,,,,,,,,,,,0,5,5,5,1,sixth,13,26,F,R,IMT,2021-07-11_09h46.12.250,ImageRatingTask_S2,2021.1.4,Win32,59.95203837,,,,,,,,,
,,,,,,,,,,,,0,6,6,6,1,seventh,13,26,F,R,IMT,2021-07-11_09h46.12.250,ImageRatingTask_S2,2021.1.4,Win32,59.95203837,,,,,,,,,
,,,,,,,,,,,,0,7,7,7,1,last,13,26,F,R,IMT,2021-07-11_09h46.12.250,ImageRatingTask_S2,2021.1.4,Win32,59.95203837,,,,,,,,,
,,,,,,,,,,,,,,,,,,13,26,F,R,IMT,2021-07-11_09h46.12.250,ImageRatingTask_S2,2021.1.4,Win32,59.95203837,0,79,79,107,1,DreamStudyImages_rs1000x750g/Vehicles/Objects_318_h.jpg,,,
,,3,1.556,3,3.974,8,1.847,1,0.729,2,1.184,0,0,0,0,1,main,13,26,F,R,IMT,2021-07-11_09h46.12.250,ImageRatingTask_S2,2021.1.4,Win32,59.95203837,,,,,,,,,
,,,,,,,,,,,,0,1,1,1,1,second,13,26,F,R,IMT,2021-07-11_09h46.12.250,ImageRatingTask_S2,2021.1.4,Win32,59.95203837,,,,,,,,,
,,,,,,,,,,,,0,2,2,2,1,third,13,26,F,R,IMT,2021-07-11_09h46.12.250,ImageRatingTask_S2,2021.1.4,Win32,59.95203837,,,,,,,,,
,,,,,,,,,,,,0,3,3,3,1,fourth,13,26,F,R,IMT,2021-07-11_09h46.12.250,ImageRatingTask_S2,2021.1.4,Win32,59.95203837,,,,,,,,,
,,,,,,,,,,,,0,4,4,4,1,fifth,13,26,F,R,IMT,2021-07-11_09h46.12.250,ImageRatingTask_S2,2021.1.4,Win32,59.95203837,,,,,,,,,
,,,,,,,,,,,,0,5,5,5,1,sixth,13,26,F,R,IMT,2021-07-11_09h46.12.250,ImageRatingTask_S2,2021.1.4,Win32,59.95203837,,,,,,,,,
,,,,,,,,,,,,0,6,6,6,1,seventh,13,26,F,R,IMT,2021-07-11_09h46.12.250,ImageRatingTask_S2,2021.1.4,Win32,59.95203837,,,,,,,,,
,,,,,,,,,,,,0,7,7,7,1,last,13,26,F,R,IMT,2021-07-11_09h46.12.250,ImageRatingTask_S2,2021.1.4,Win32,59.95203837,,,,,,,,,
,,,,,,,,,,,,,,,,,,13,26,F,R,IMT,2021-07-11_09h46.12.250,ImageRatingTask_S2,2021.1.4,Win32,59.95203837,0,80,80,151,1,DreamStudyImages_rs1000x750g/Children/Miserable face 2.jpg,,,
,,5,4.822,1,0.973,8,0.947,1,0.436,6,2.47,0,0,0,0,1,main,13,26,F,R,IMT,2021-07-11_09h46.12.250,ImageRatingTask_S2,2021.1.4,Win32,59.95203837,,,,,,,,,
,,,,,,,,,,,,0,1,1,1,1,second,13,26,F,R,IMT,2021-07-11_09h46.12.250,ImageRatingTask_S2,2021.1.4,Win32,59.95203837,,,,,,,,,
,,,,,,,,,,,,0,2,2,2,1,third,13,26,F,R,IMT,2021-07-11_09h46.12.250,ImageRatingTask_S2,2021.1.4,Win32,59.95203837,,,,,,,,,
,,,,,,,,,,,,0,3,3,3,1,fourth,13,26,F,R,IMT,2021-07-11_09h46.12.250,ImageRatingTask_S2,2021.1.4,Win32,59.95203837,,,,,,,,,
,,,,,,,,,,,,0,4,4,4,1,fifth,13,26,F,R,IMT,2021-07-11_09h46.12.250,ImageRatingTask_S2,2021.1.4,Win32,59.95203837,,,,,,,,,
,,,,,,,,,,,,0,5,5,5,1,sixth,13,26,F,R,IMT,2021-07-11_09h46.12.250,ImageRatingTask_S2,2021.1.4,Win32,59.95203837,,,,,,,,,
,,,,,,,,,,,,0,6,6,6,1,seventh,13,26,F,R,IMT,2021-07-11_09h46.12.250,ImageRatingTask_S2,2021.1.4,Win32,59.95203837,,,,,,,,,
,,,,,,,,,,,,0,7,7,7,1,last,13,26,F,R,IMT,2021-07-11_09h46.12.250,ImageRatingTask_S2,2021.1.4,Win32,59.95203837,,,,,,,,,
,,,,,,,,,,,,,,,,,,13,26,F,R,IMT,2021-07-11_09h46.12.250,ImageRatingTask_S2,2021.1.4,Win32,59.95203837,0,81,81,40,1,DreamStudyImages_rs1000x750g/Houses/Landscapes_045_h.jpg,,,
,,5,4.429,1,0.606,9,1.556,1,0.549,5,0.951,0,0,0,0,1,main,13,26,F,R,IMT,2021-07-11_09h46.12.250,ImageRatingTask_S2,2021.1.4,Win32,59.95203837,,,,,,,,,
,,,,,,,,,,,,0,1,1,1,1,second,13,26,F,R,IMT,2021-07-11_09h46.12.250,ImageRatingTask_S2,2021.1.4,Win32,59.95203837,,,,,,,,,
,,,,,,,,,,,,0,2,2,2,1,third,13,26,F,R,IMT,2021-07-11_09h46.12.250,ImageRatingTask_S2,2021.1.4,Win32,59.95203837,,,,,,,,,
,,,,,,,,,,,,0,3,3,3,1,fourth,13,26,F,R,IMT,2021-07-11_09h46.12.250,ImageRatingTask_S2,2021.1.4,Win32,59.95203837,,,,,,,,,
,,,,,,,,,,,,0,4,4,4,1,fifth,13,26,F,R,IMT,2021-07-11_09h46.12.250,ImageRatingTask_S2,2021.1.4,Win32,59.95203837,,,,,,,,,
,,,,,,,,,,,,0,5,5,5,1,sixth,13,26,F,R,IMT,2021-07-11_09h46.12.250,ImageRatingTask_S2,2021.1.4,Win32,59.95203837,,,,,,,,,
,,,,,,,,,,,,0,6,6,6,1,seventh,13,26,F,R,IMT,2021-07-11_09h46.12.250,ImageRatingTask_S2,2021.1.4,Win32,59.95203837,,,,,,,,,
,,,,,,,,,,,,0,7,7,7,1,last,13,26,F,R,IMT,2021-07-11_09h46.12.250,ImageRatingTask_S2,2021.1.4,Win32,59.95203837,,,,,,,,,
,,,,,,,,,,,,,,,,,,13,26,F,R,IMT,2021-07-11_09h46.12.250,ImageRatingTask_S2,2021.1.4,Win32,59.95203837,0,82,82,26,1,DreamStudyImages_rs1000x750g/Food/IAPS7482_diner4.jpg,,,
,,5,1.451,1,0.384,9,2.082,1,1.018,8,2.263,0,0,0,0,1,main,13,26,F,R,IMT,2021-07-11_09h46.12.250,ImageRatingTask_S2,2021.1.4,Win32,59.95203837,,,,,,,,,
,,,,,,,,,,,,0,1,1,1,1,second,13,26,F,R,IMT,2021-07-11_09h46.12.250,ImageRatingTask_S2,2021.1.4,Win32,59.95203837,,,,,,,,,
,,,,,,,,,,,,0,2,2,2,1,third,13,26,F,R,IMT,2021-07-11_09h46.12.250,ImageRatingTask_S2,2021.1.4,Win32,59.95203837,,,,,,,,,
,,,,,,,,,,,,0,3,3,3,1,fourth,13,26,F,R,IMT,2021-07-11_09h46.12.250,ImageRatingTask_S2,2021.1.4,Win32,59.95203837,,,,,,,,,
,,,,,,,,,,,,0,4,4,4,1,fifth,13,26,F,R,IMT,2021-07-11_09h46.12.250,ImageRatingTask_S2,2021.1.4,Win32,59.95203837,,,,,,,,,
,,,,,,,,,,,,0,5,5,5,1,sixth,13,26,F,R,IMT,2021-07-11_09h46.12.250,ImageRatingTask_S2,2021.1.4,Win32,59.95203837,,,,,,,,,
,,,,,,,,,,,,0,6,6,6,1,seventh,13,26,F,R,IMT,2021-07-11_09h46.12.250,ImageRatingTask_S2,2021.1.4,Win32,59.95203837,,,,,,,,,
,,,,,,,,,,,,0,7,7,7,1,last,13,26,F,R,IMT,2021-07-11_09h46.12.250,ImageRatingTask_S2,2021.1.4,Win32,59.95203837,,,,,,,,,
,,,,,,,,,,,,,,,,,,13,26,F,R,IMT,2021-07-11_09h46.12.250,ImageRatingTask_S2,2021.1.4,Win32,59.95203837,0,83,83,33,1,DreamStudyImages_rs1000x750g/Vehicles/Objects_205_h.jpg,,,
,,5,0.952,1,3.236,6,1.814,1,7.435,5,1.349,0,0,0,0,1,main,13,26,F,R,IMT,2021-07-11_09h46.12.250,ImageRatingTask_S2,2021.1.4,Win32,59.95203837,,,,,,,,,
,,,,,,,,,,,,0,1,1,1,1,second,13,26,F,R,IMT,2021-07-11_09h46.12.250,ImageRatingTask_S2,2021.1.4,Win32,59.95203837,,,,,,,,,
,,,,,,,,,,,,0,2,2,2,1,third,13,26,F,R,IMT,2021-07-11_09h46.12.250,ImageRatingTask_S2,2021.1.4,Win32,59.95203837,,,,,,,,,
,,,,,,,,,,,,0,3,3,3,1,fourth,13,26,F,R,IMT,2021-07-11_09h46.12.250,ImageRatingTask_S2,2021.1.4,Win32,59.95203837,,,,,,,,,
,,,,,,,,,,,,0,4,4,4,1,fifth,13,26,F,R,IMT,2021-07-11_09h46.12.250,ImageRatingTask_S2,2021.1.4,Win32,59.95203837,,,,,,,,,
,,,,,,,,,,,,0,5,5,5,1,sixth,13,26,F,R,IMT,2021-07-11_09h46.12.250,ImageRatingTask_S2,2021.1.4,Win32,59.95203837,,,,,,,,,
,,,,,,,,,,,,0,6,6,6,1,seventh,13,26,F,R,IMT,2021-07-11_09h46.12.250,ImageRatingTask_S2,2021.1.4,Win32,59.95203837,,,,,,,,,
,,,,,,,,,,,,0,7,7,7,1,last,13,26,F,R,IMT,2021-07-11_09h46.12.250,ImageRatingTask_S2,2021.1.4,Win32,59.95203837,,,,,,,,,
