slider_pre.response,slider_pre.rt,key_val.keys,key_val.rt,key_aro.keys,key_aro.rt,key_qual.keys,key_qual.rt,key_ncat.keys,key_ncat.rt,key_cats.keys,key_cats.rt,ncat_order.thisRepN,ncat_order.thisTrialN,ncat_order.thisN,ncat_order.thisIndex,ncat_order.ran,cond_cat,participant,age,gender,handedness (L/R),site (IMT/Donders),date,expName,psychopyVersion,OS,frameRate,img_trials.thisRepN,img_trials.thisTrialN,img_trials.thisN,img_trials.thisIndex,img_trials.ran,filename,slider_post.response,slider_post.rt,textbox_openfb.text
6,5.045,5,109.245,1,1.034,9,1.502,1,0.914,7,1.493,0,0,0,0,1,main,13,26,F,R,IMT,2021-07-13_14h44.34.097,ImageRatingTask_S4,2021.1.4,Win32,60.0240096,,,,,,,,,
,,,,,,,,,,,,0,1,1,1,1,second,13,26,F,R,IMT,2021-07-13_14h44.34.097,ImageRatingTask_S4,2021.1.4,Win32,60.0240096,,,,,,,,,
,,,,,,,,,,,,0,2,2,2,1,third,13,26,F,R,IMT,2021-07-13_14h44.34.097,ImageRatingTask_S4,2021.1.4,Win32,60.0240096,,,,,,,,,
,,,,,,,,,,,,0,3,3,3,1,fourth,13,26,F,R,IMT,2021-07-13_14h44.34.097,ImageRatingTask_S4,2021.1.4,Win32,60.0240096,,,,,,,,,
,,,,,,,,,,,,0,4,4,4,1,fifth,13,26,F,R,IMT,2021-07-13_14h44.34.097,ImageRatingTask_S4,2021.1.4,Win32,60.0240096,,,,,,,,,
,,,,,,,,,,,,0,5,5,5,1,sixth,13,26,F,R,IMT,2021-07-13_14h44.34.097,ImageRatingTask_S4,2021.1.4,Win32,60.0240096,,,,,,,,,
,,,,,,,,,,,,0,6,6,6,1,seventh,13,26,F,R,IMT,2021-07-13_14h44.34.097,ImageRatingTask_S4,2021.1.4,Win32,60.0240096,,,,,,,,,
,,,,,,,,,,,,0,7,7,7,1,last,13,26,F,R,IMT,2021-07-13_14h44.34.097,ImageRatingTask_S4,2021.1.4,Win32,60.0240096,,,,,,,,,
,,,,,,,,,,,,,,,,,,13,26,F,R,IMT,2021-07-13_14h44.34.097,ImageRatingTask_S4,2021.1.4,Win32,60.0240096,0,0,0,52,1,DreamStudyImages_rs1000x750g/Vehicles/truckfleet.jpg,,,
,,6,2.222,2,0.854,9,1.429,1,0.598,8,4.788,0,0,0,0,1,main,13,26,F,R,IMT,2021-07-13_14h44.34.097,ImageRatingTask_S4,2021.1.4,Win32,60.0240096,,,,,,,,,
,,,,,,,,,,,,0,1,1,1,1,second,13,26,F,R,IMT,2021-07-13_14h44.34.097,ImageRatingTask_S4,2021.1.4,Win32,60.0240096,,,,,,,,,
,,,,,,,,,,,,0,2,2,2,1,third,13,26,F,R,IMT,2021-07-13_14h44.34.097,ImageRatingTask_S4,2021.1.4,Win32,60.0240096,,,,,,,,,
,,,,,,,,,,,,0,3,3,3,1,fourth,13,26,F,R,IMT,2021-07-13_14h44.34.097,ImageRatingTask_S4,2021.1.4,Win32,60.0240096,,,,,,,,,
,,,,,,,,,,,,0,4,4,4,1,fifth,13,26,F,R,IMT,2021-07-13_14h44.34.097,ImageRatingTask_S4,2021.1.4,Win32,60.0240096,,,,,,,,,
,,,,,,,,,,,,0,5,5,5,1,sixth,13,26,F,R,IMT,2021-07-13_14h44.34.097,ImageRatingTask_S4,2021.1.4,Win32,60.0240096,,,,,,,,,
,,,,,,,,,,,,0,6,6,6,1,seventh,13,26,F,R,IMT,2021-07-13_14h44.34.097,ImageRatingTask_S4,2021.1.4,Win32,60.0240096,,,,,,,,,
,,,,,,,,,,,,0,7,7,7,1,last,13,26,F,R,IMT,2021-07-13_14h44.34.097,ImageRatingTask_S4,2021.1.4,Win32,60.0240096,,,,,,,,,
,,,,,,,,,,,,,,,,,,13,26,F,R,IMT,2021-07-13_14h44.34.097,ImageRatingTask_S4,2021.1.4,Win32,60.0240096,0,1,1,72,1,DreamStudyImages_rs1000x750g/Water/Lake 7.jpg,,,
,,5,2.159,1,0.892,9,1.3,1,0.972,5,0.784,0,0,0,0,1,main,13,26,F,R,IMT,2021-07-13_14h44.34.097,ImageRatingTask_S4,2021.1.4,Win32,60.0240096,,,,,,,,,
,,,,,,,,,,,,0,1,1,1,1,second,13,26,F,R,IMT,2021-07-13_14h44.34.097,ImageRatingTask_S4,2021.1.4,Win32,60.0240096,,,,,,,,,
,,,,,,,,,,,,0,2,2,2,1,third,13,26,F,R,IMT,2021-07-13_14h44.34.097,ImageRatingTask_S4,2021.1.4,Win32,60.0240096,,,,,,,,,
,,,,,,,,,,,,0,3,3,3,1,fourth,13,26,F,R,IMT,2021-07-13_14h44.34.097,ImageRatingTask_S4,2021.1.4,Win32,60.0240096,,,,,,,,,
,,,,,,,,,,,,0,4,4,4,1,fifth,13,26,F,R,IMT,2021-07-13_14h44.34.097,ImageRatingTask_S4,2021.1.4,Win32,60.0240096,,,,,,,,,
,,,,,,,,,,,,0,5,5,5,1,sixth,13,26,F,R,IMT,2021-07-13_14h44.34.097,ImageRatingTask_S4,2021.1.4,Win32,60.0240096,,,,,,,,,
,,,,,,,,,,,,0,6,6,6,1,seventh,13,26,F,R,IMT,2021-07-13_14h44.34.097,ImageRatingTask_S4,2021.1.4,Win32,60.0240096,,,,,,,,,
,,,,,,,,,,,,0,7,7,7,1,last,13,26,F,R,IMT,2021-07-13_14h44.34.097,ImageRatingTask_S4,2021.1.4,Win32,60.0240096,,,,,,,,,
,,,,,,,,,,,,,,,,,,13,26,F,R,IMT,2021-07-13_14h44.34.097,ImageRatingTask_S4,2021.1.4,Win32,60.0240096,0,2,2,100,1,DreamStudyImages_rs1000x750g/Food/Objects_040_v.jpg,,,
,,5,2.899,1,0.262,9,1.781,1,1.608,7,1.195,0,0,0,0,1,main,13,26,F,R,IMT,2021-07-13_14h44.34.097,ImageRatingTask_S4,2021.1.4,Win32,60.0240096,,,,,,,,,
,,,,,,,,,,,,0,1,1,1,1,second,13,26,F,R,IMT,2021-07-13_14h44.34.097,ImageRatingTask_S4,2021.1.4,Win32,60.0240096,,,,,,,,,
,,,,,,,,,,,,0,2,2,2,1,third,13,26,F,R,IMT,2021-07-13_14h44.34.097,ImageRatingTask_S4,2021.1.4,Win32,60.0240096,,,,,,,,,
,,,,,,,,,,,,0,3,3,3,1,fourth,13,26,F,R,IMT,2021-07-13_14h44.34.097,ImageRatingTask_S4,2021.1.4,Win32,60.0240096,,,,,,,,,
,,,,,,,,,,,,0,4,4,4,1,fifth,13,26,F,R,IMT,2021-07-13_14h44.34.097,ImageRatingTask_S4,2021.1.4,Win32,60.0240096,,,,,,,,,
,,,,,,,,,,,,0,5,5,5,1,sixth,13,26,F,R,IMT,2021-07-13_14h44.34.097,ImageRatingTask_S4,2021.1.4,Win32,60.0240096,,,,,,,,,
,,,,,,,,,,,,0,6,6,6,1,seventh,13,26,F,R,IMT,2021-07-13_14h44.34.097,ImageRatingTask_S4,2021.1.4,Win32,60.0240096,,,,,,,,,
,,,,,,,,,,,,0,7,7,7,1,last,13,26,F,R,IMT,2021-07-13_14h44.34.097,ImageRatingTask_S4,2021.1.4,Win32,60.0240096,,,,,,,,,
,,,,,,,,,,,,,,,,,,13,26,F,R,IMT,2021-07-13_14h44.34.097,ImageRatingTask_S4,2021.1.4,Win32,60.0240096,0,3,3,135,1,DreamStudyImages_rs1000x750g/Vehicles/Objects_312_h.jpg,,,
,,4,17.576,2,0.606,7,1.331,1,1.55,2,0.459,0,0,0,0,1,main,13,26,F,R,IMT,2021-07-13_14h44.34.097,ImageRatingTask_S4,2021.1.4,Win32,60.0240096,,,,,,,,,
,,,,,,,,,,,,0,1,1,1,1,second,13,26,F,R,IMT,2021-07-13_14h44.34.097,ImageRatingTask_S4,2021.1.4,Win32,60.0240096,,,,,,,,,
,,,,,,,,,,,,0,2,2,2,1,third,13,26,F,R,IMT,2021-07-13_14h44.34.097,ImageRatingTask_S4,2021.1.4,Win32,60.0240096,,,,,,,,,
,,,,,,,,,,,,0,3,3,3,1,fourth,13,26,F,R,IMT,2021-07-13_14h44.34.097,ImageRatingTask_S4,2021.1.4,Win32,60.0240096,,,,,,,,,
,,,,,,,,,,,,0,4,4,4,1,fifth,13,26,F,R,IMT,2021-07-13_14h44.34.097,ImageRatingTask_S4,2021.1.4,Win32,60.0240096,,,,,,,,,
,,,,,,,,,,,,0,5,5,5,1,sixth,13,26,F,R,IMT,2021-07-13_14h44.34.097,ImageRatingTask_S4,2021.1.4,Win32,60.0240096,,,,,,,,,
,,,,,,,,,,,,0,6,6,6,1,seventh,13,26,F,R,IMT,2021-07-13_14h44.34.097,ImageRatingTask_S4,2021.1.4,Win32,60.0240096,,,,,,,,,
,,,,,,,,,,,,0,7,7,7,1,last,13,26,F,R,IMT,2021-07-13_14h44.34.097,ImageRatingTask_S4,2021.1.4,Win32,60.0240096,,,,,,,,,
,,,,,,,,,,,,,,,,,,13,26,F,R,IMT,2021-07-13_14h44.34.097,ImageRatingTask_S4,2021.1.4,Win32,60.0240096,0,4,4,121,1,DreamStudyImages_rs1000x750g/Children/Faces_012_v.jpg,,,
,,5,1.678,1,1.006,9,1.96,1,0.904,6,1.317,0,0,0,0,1,main,13,26,F,R,IMT,2021-07-13_14h44.34.097,ImageRatingTask_S4,2021.1.4,Win32,60.0240096,,,,,,,,,
,,,,,,,,,,,,0,1,1,1,1,second,13,26,F,R,IMT,2021-07-13_14h44.34.097,ImageRatingTask_S4,2021.1.4,Win32,60.0240096,,,,,,,,,
,,,,,,,,,,,,0,2,2,2,1,third,13,26,F,R,IMT,2021-07-13_14h44.34.097,ImageRatingTask_S4,2021.1.4,Win32,60.0240096,,,,,,,,,
,,,,,,,,,,,,0,3,3,3,1,fourth,13,26,F,R,IMT,2021-07-13_14h44.34.097,ImageRatingTask_S4,2021.1.4,Win32,60.0240096,,,,,,,,,
,,,,,,,,,,,,0,4,4,4,1,fifth,13,26,F,R,IMT,2021-07-13_14h44.34.097,ImageRatingTask_S4,2021.1.4,Win32,60.0240096,,,,,,,,,
,,,,,,,,,,,,0,5,5,5,1,sixth,13,26,F,R,IMT,2021-07-13_14h44.34.097,ImageRatingTask_S4,2021.1.4,Win32,60.0240096,,,,,,,,,
,,,,,,,,,,,,0,6,6,6,1,seventh,13,26,F,R,IMT,2021-07-13_14h44.34.097,ImageRatingTask_S4,2021.1.4,Win32,60.0240096,,,,,,,,,
,,,,,,,,,,,,0,7,7,7,1,last,13,26,F,R,IMT,2021-07-13_14h44.34.097,ImageRatingTask_S4,2021.1.4,Win32,60.0240096,,,,,,,,,
,,,,,,,,,,,,,,,,,,13,26,F,R,IMT,2021-07-13_14h44.34.097,ImageRatingTask_S4,2021.1.4,Win32,60.0240096,0,5,5,65,1,DreamStudyImages_rs1000x750g/Houses/Landscapes_027_v.jpg,,,
,,5,0.753,1,0.258,9,1.845,1,0.644,5,2.171,0,0,0,0,1,main,13,26,F,R,IMT,2021-07-13_14h44.34.097,ImageRatingTask_S4,2021.1.4,Win32,60.0240096,,,,,,,,,
,,,,,,,,,,,,0,1,1,1,1,second,13,26,F,R,IMT,2021-07-13_14h44.34.097,ImageRatingTask_S4,2021.1.4,Win32,60.0240096,,,,,,,,,
,,,,,,,,,,,,0,2,2,2,1,third,13,26,F,R,IMT,2021-07-13_14h44.34.097,ImageRatingTask_S4,2021.1.4,Win32,60.0240096,,,,,,,,,
,,,,,,,,,,,,0,3,3,3,1,fourth,13,26,F,R,IMT,2021-07-13_14h44.34.097,ImageRatingTask_S4,2021.1.4,Win32,60.0240096,,,,,,,,,
,,,,,,,,,,,,0,4,4,4,1,fifth,13,26,F,R,IMT,2021-07-13_14h44.34.097,ImageRatingTask_S4,2021.1.4,Win32,60.0240096,,,,,,,,,
,,,,,,,,,,,,0,5,5,5,1,sixth,13,26,F,R,IMT,2021-07-13_14h44.34.097,ImageRatingTask_S4,2021.1.4,Win32,60.0240096,,,,,,,,,
,,,,,,,,,,,,0,6,6,6,1,seventh,13,26,F,R,IMT,2021-07-13_14h44.34.097,ImageRatingTask_S4,2021.1.4,Win32,60.0240096,,,,,,,,,
,,,,,,,,,,,,0,7,7,7,1,last,13,26,F,R,IMT,2021-07-13_14h44.34.097,ImageRatingTask_S4,2021.1.4,Win32,60.0240096,,,,,,,,,
,,,,,,,,,,,,,,,,,,13,26,F,R,IMT,2021-07-13_14h44.34.097,ImageRatingTask_S4,2021.1.4,Win32,60.0240096,0,6,6,125,1,DreamStudyImages_rs1000x750g/Food/Objects_028_v.jpg,,,
,,5,1.051,1,0.169,9,1.678,1,0.492,5,0.954,0,0,0,0,1,main,13,26,F,R,IMT,2021-07-13_14h44.34.097,ImageRatingTask_S4,2021.1.4,Win32,60.0240096,,,,,,,,,
,,,,,,,,,,,,0,1,1,1,1,second,13,26,F,R,IMT,2021-07-13_14h44.34.097,ImageRatingTask_S4,2021.1.4,Win32,60.0240096,,,,,,,,,
,,,,,,,,,,,,0,2,2,2,1,third,13,26,F,R,IMT,2021-07-13_14h44.34.097,ImageRatingTask_S4,2021.1.4,Win32,60.0240096,,,,,,,,,
,,,,,,,,,,,,0,3,3,3,1,fourth,13,26,F,R,IMT,2021-07-13_14h44.34.097,ImageRatingTask_S4,2021.1.4,Win32,60.0240096,,,,,,,,,
,,,,,,,,,,,,0,4,4,4,1,fifth,13,26,F,R,IMT,2021-07-13_14h44.34.097,ImageRatingTask_S4,2021.1.4,Win32,60.0240096,,,,,,,,,
,,,,,,,,,,,,0,5,5,5,1,sixth,13,26,F,R,IMT,2021-07-13_14h44.34.097,ImageRatingTask_S4,2021.1.4,Win32,60.0240096,,,,,,,,,
,,,,,,,,,,,,0,6,6,6,1,seventh,13,26,F,R,IMT,2021-07-13_14h44.34.097,ImageRatingTask_S4,2021.1.4,Win32,60.0240096,,,,,,,,,
,,,,,,,,,,,,0,7,7,7,1,last,13,26,F,R,IMT,2021-07-13_14h44.34.097,ImageRatingTask_S4,2021.1.4,Win32,60.0240096,,,,,,,,,
,,,,,,,,,,,,,,,,,,13,26,F,R,IMT,2021-07-13_14h44.34.097,ImageRatingTask_S4,2021.1.4,Win32,60.0240096,0,7,7,140,1,DreamStudyImages_rs1000x750g/Food/IAPS7487_pastela.jpg,,,
,,5,0.797,1,0.311,8,2.394,1,0.509,8,1.521,0,0,0,0,1,main,13,26,F,R,IMT,2021-07-13_14h44.34.097,ImageRatingTask_S4,2021.1.4,Win32,60.0240096,,,,,,,,,
,,,,,,,,,,,,0,1,1,1,1,second,13,26,F,R,IMT,2021-07-13_14h44.34.097,ImageRatingTask_S4,2021.1.4,Win32,60.0240096,,,,,,,,,
,,,,,,,,,,,,0,2,2,2,1,third,13,26,F,R,IMT,2021-07-13_14h44.34.097,ImageRatingTask_S4,2021.1.4,Win32,60.0240096,,,,,,,,,
,,,,,,,,,,,,0,3,3,3,1,fourth,13,26,F,R,IMT,2021-07-13_14h44.34.097,ImageRatingTask_S4,2021.1.4,Win32,60.0240096,,,,,,,,,
,,,,,,,,,,,,0,4,4,4,1,fifth,13,26,F,R,IMT,2021-07-13_14h44.34.097,ImageRatingTask_S4,2021.1.4,Win32,60.0240096,,,,,,,,,
,,,,,,,,,,,,0,5,5,5,1,sixth,13,26,F,R,IMT,2021-07-13_14h44.34.097,ImageRatingTask_S4,2021.1.4,Win32,60.0240096,,,,,,,,,
,,,,,,,,,,,,0,6,6,6,1,seventh,13,26,F,R,IMT,2021-07-13_14h44.34.097,ImageRatingTask_S4,2021.1.4,Win32,60.0240096,,,,,,,,,
,,,,,,,,,,,,0,7,7,7,1,last,13,26,F,R,IMT,2021-07-13_14h44.34.097,ImageRatingTask_S4,2021.1.4,Win32,60.0240096,,,,,,,,,
,,,,,,,,,,,,,,,,,,13,26,F,R,IMT,2021-07-13_14h44.34.097,ImageRatingTask_S4,2021.1.4,Win32,60.0240096,0,8,8,20,1,DreamStudyImages_rs1000x750g/Water/NDPS124_swamp.jpg,,,
,,6,1.819,1,0.104,7,3.636,1,0.507,3,0.913,0,0,0,0,1,main,13,26,F,R,IMT,2021-07-13_14h44.34.097,ImageRatingTask_S4,2021.1.4,Win32,60.0240096,,,,,,,,,
,,,,,,,,,,,,0,1,1,1,1,second,13,26,F,R,IMT,2021-07-13_14h44.34.097,ImageRatingTask_S4,2021.1.4,Win32,60.0240096,,,,,,,,,
,,,,,,,,,,,,0,2,2,2,1,third,13,26,F,R,IMT,2021-07-13_14h44.34.097,ImageRatingTask_S4,2021.1.4,Win32,60.0240096,,,,,,,,,
,,,,,,,,,,,,0,3,3,3,1,fourth,13,26,F,R,IMT,2021-07-13_14h44.34.097,ImageRatingTask_S4,2021.1.4,Win32,60.0240096,,,,,,,,,
,,,,,,,,,,,,0,4,4,4,1,fifth,13,26,F,R,IMT,2021-07-13_14h44.34.097,ImageRatingTask_S4,2021.1.4,Win32,60.0240096,,,,,,,,,
,,,,,,,,,,,,0,5,5,5,1,sixth,13,26,F,R,IMT,2021-07-13_14h44.34.097,ImageRatingTask_S4,2021.1.4,Win32,60.0240096,,,,,,,,,
,,,,,,,,,,,,0,6,6,6,1,seventh,13,26,F,R,IMT,2021-07-13_14h44.34.097,ImageRatingTask_S4,2021.1.4,Win32,60.0240096,,,,,,,,,
,,,,,,,,,,,,0,7,7,7,1,last,13,26,F,R,IMT,2021-07-13_14h44.34.097,ImageRatingTask_S4,2021.1.4,Win32,60.0240096,,,,,,,,,
,,,,,,,,,,,,,,,,,,13,26,F,R,IMT,2021-07-13_14h44.34.097,ImageRatingTask_S4,2021.1.4,Win32,60.0240096,0,9,9,64,1,DreamStudyImages_rs1000x750g/Mammals/Lamb 1.jpg,,,
,,4,17.521,2,1.017,9,1.866,1,0.789,2,16.928,0,0,0,0,1,main,13,26,F,R,IMT,2021-07-13_14h44.34.097,ImageRatingTask_S4,2021.1.4,Win32,60.0240096,,,,,,,,,
,,,,,,,,,,,,0,1,1,1,1,second,13,26,F,R,IMT,2021-07-13_14h44.34.097,ImageRatingTask_S4,2021.1.4,Win32,60.0240096,,,,,,,,,
,,,,,,,,,,,,0,2,2,2,1,third,13,26,F,R,IMT,2021-07-13_14h44.34.097,ImageRatingTask_S4,2021.1.4,Win32,60.0240096,,,,,,,,,
,,,,,,,,,,,,0,3,3,3,1,fourth,13,26,F,R,IMT,2021-07-13_14h44.34.097,ImageRatingTask_S4,2021.1.4,Win32,60.0240096,,,,,,,,,
,,,,,,,,,,,,0,4,4,4,1,fifth,13,26,F,R,IMT,2021-07-13_14h44.34.097,ImageRatingTask_S4,2021.1.4,Win32,60.0240096,,,,,,,,,
,,,,,,,,,,,,0,5,5,5,1,sixth,13,26,F,R,IMT,2021-07-13_14h44.34.097,ImageRatingTask_S4,2021.1.4,Win32,60.0240096,,,,,,,,,
,,,,,,,,,,,,0,6,6,6,1,seventh,13,26,F,R,IMT,2021-07-13_14h44.34.097,ImageRatingTask_S4,2021.1.4,Win32,60.0240096,,,,,,,,,
,,,,,,,,,,,,0,7,7,7,1,last,13,26,F,R,IMT,2021-07-13_14h44.34.097,ImageRatingTask_S4,2021.1.4,Win32,60.0240096,,,,,,,,,
,,,,,,,,,,,,,,,,,,13,26,F,R,IMT,2021-07-13_14h44.34.097,ImageRatingTask_S4,2021.1.4,Win32,60.0240096,0,10,10,77,1,DreamStudyImages_rs1000x750g/Children/Faces_030_h.jpg,,,
,,5,3.856,1,1.051,9,2.335,1,0.346,7,1.343,0,0,0,0,1,main,13,26,F,R,IMT,2021-07-13_14h44.34.097,ImageRatingTask_S4,2021.1.4,Win32,60.0240096,,,,,,,,,
,,,,,,,,,,,,0,1,1,1,1,second,13,26,F,R,IMT,2021-07-13_14h44.34.097,ImageRatingTask_S4,2021.1.4,Win32,60.0240096,,,,,,,,,
,,,,,,,,,,,,0,2,2,2,1,third,13,26,F,R,IMT,2021-07-13_14h44.34.097,ImageRatingTask_S4,2021.1.4,Win32,60.0240096,,,,,,,,,
,,,,,,,,,,,,0,3,3,3,1,fourth,13,26,F,R,IMT,2021-07-13_14h44.34.097,ImageRatingTask_S4,2021.1.4,Win32,60.0240096,,,,,,,,,
,,,,,,,,,,,,0,4,4,4,1,fifth,13,26,F,R,IMT,2021-07-13_14h44.34.097,ImageRatingTask_S4,2021.1.4,Win32,60.0240096,,,,,,,,,
,,,,,,,,,,,,0,5,5,5,1,sixth,13,26,F,R,IMT,2021-07-13_14h44.34.097,ImageRatingTask_S4,2021.1.4,Win32,60.0240096,,,,,,,,,
,,,,,,,,,,,,0,6,6,6,1,seventh,13,26,F,R,IMT,2021-07-13_14h44.34.097,ImageRatingTask_S4,2021.1.4,Win32,60.0240096,,,,,,,,,
,,,,,,,,,,,,0,7,7,7,1,last,13,26,F,R,IMT,2021-07-13_14h44.34.097,ImageRatingTask_S4,2021.1.4,Win32,60.0240096,,,,,,,,,
,,,,,,,,,,,,,,,,,,13,26,F,R,IMT,2021-07-13_14h44.34.097,ImageRatingTask_S4,2021.1.4,Win32,60.0240096,0,11,11,19,1,DreamStudyImages_rs1000x750g/Vehicles/Objects_280_v.jpg,,,
,,2,62.028,2,3.305,6,3.028,1,0.941,5,0.371,0,0,0,0,1,main,13,26,F,R,IMT,2021-07-13_14h44.34.097,ImageRatingTask_S4,2021.1.4,Win32,60.0240096,,,,,,,,,
,,,,,,,,,,,,0,1,1,1,1,second,13,26,F,R,IMT,2021-07-13_14h44.34.097,ImageRatingTask_S4,2021.1.4,Win32,60.0240096,,,,,,,,,
,,,,,,,,,,,,0,2,2,2,1,third,13,26,F,R,IMT,2021-07-13_14h44.34.097,ImageRatingTask_S4,2021.1.4,Win32,60.0240096,,,,,,,,,
,,,,,,,,,,,,0,3,3,3,1,fourth,13,26,F,R,IMT,2021-07-13_14h44.34.097,ImageRatingTask_S4,2021.1.4,Win32,60.0240096,,,,,,,,,
,,,,,,,,,,,,0,4,4,4,1,fifth,13,26,F,R,IMT,2021-07-13_14h44.34.097,ImageRatingTask_S4,2021.1.4,Win32,60.0240096,,,,,,,,,
,,,,,,,,,,,,0,5,5,5,1,sixth,13,26,F,R,IMT,2021-07-13_14h44.34.097,ImageRatingTask_S4,2021.1.4,Win32,60.0240096,,,,,,,,,
,,,,,,,,,,,,0,6,6,6,1,seventh,13,26,F,R,IMT,2021-07-13_14h44.34.097,ImageRatingTask_S4,2021.1.4,Win32,60.0240096,,,,,,,,,
,,,,,,,,,,,,0,7,7,7,1,last,13,26,F,R,IMT,2021-07-13_14h44.34.097,ImageRatingTask_S4,2021.1.4,Win32,60.0240096,,,,,,,,,
,,,,,,,,,,,,,,,,,,13,26,F,R,IMT,2021-07-13_14h44.34.097,ImageRatingTask_S4,2021.1.4,Win32,60.0240096,0,12,12,10,1,DreamStudyImages_rs1000x750g/Food/IAPS7282_pudding.jpg,,,
,,3,1.705,3,0.769,5,2.571,1,0.905,2,1.718,0,0,0,0,1,main,13,26,F,R,IMT,2021-07-13_14h44.34.097,ImageRatingTask_S4,2021.1.4,Win32,60.0240096,,,,,,,,,
,,,,,,,,,,,,0,1,1,1,1,second,13,26,F,R,IMT,2021-07-13_14h44.34.097,ImageRatingTask_S4,2021.1.4,Win32,60.0240096,,,,,,,,,
,,,,,,,,,,,,0,2,2,2,1,third,13,26,F,R,IMT,2021-07-13_14h44.34.097,ImageRatingTask_S4,2021.1.4,Win32,60.0240096,,,,,,,,,
,,,,,,,,,,,,0,3,3,3,1,fourth,13,26,F,R,IMT,2021-07-13_14h44.34.097,ImageRatingTask_S4,2021.1.4,Win32,60.0240096,,,,,,,,,
,,,,,,,,,,,,0,4,4,4,1,fifth,13,26,F,R,IMT,2021-07-13_14h44.34.097,ImageRatingTask_S4,2021.1.4,Win32,60.0240096,,,,,,,,,
,,,,,,,,,,,,0,5,5,5,1,sixth,13,26,F,R,IMT,2021-07-13_14h44.34.097,ImageRatingTask_S4,2021.1.4,Win32,60.0240096,,,,,,,,,
,,,,,,,,,,,,0,6,6,6,1,seventh,13,26,F,R,IMT,2021-07-13_14h44.34.097,ImageRatingTask_S4,2021.1.4,Win32,60.0240096,,,,,,,,,
,,,,,,,,,,,,0,7,7,7,1,last,13,26,F,R,IMT,2021-07-13_14h44.34.097,ImageRatingTask_S4,2021.1.4,Win32,60.0240096,,,,,,,,,
,,,,,,,,,,,,,,,,,,13,26,F,R,IMT,2021-07-13_14h44.34.097,ImageRatingTask_S4,2021.1.4,Win32,60.0240096,0,13,13,81,1,DreamStudyImages_rs1000x750g/Children/IAPS2703_children15.jpg,,,
,,6,3.23,2,0.674,9,1.028,1,0.794,8,1.904,0,0,0,0,1,main,13,26,F,R,IMT,2021-07-13_14h44.34.097,ImageRatingTask_S4,2021.1.4,Win32,60.0240096,,,,,,,,,
,,,,,,,,,,,,0,1,1,1,1,second,13,26,F,R,IMT,2021-07-13_14h44.34.097,ImageRatingTask_S4,2021.1.4,Win32,60.0240096,,,,,,,,,
,,,,,,,,,,,,0,2,2,2,1,third,13,26,F,R,IMT,2021-07-13_14h44.34.097,ImageRatingTask_S4,2021.1.4,Win32,60.0240096,,,,,,,,,
,,,,,,,,,,,,0,3,3,3,1,fourth,13,26,F,R,IMT,2021-07-13_14h44.34.097,ImageRatingTask_S4,2021.1.4,Win32,60.0240096,,,,,,,,,
,,,,,,,,,,,,0,4,4,4,1,fifth,13,26,F,R,IMT,2021-07-13_14h44.34.097,ImageRatingTask_S4,2021.1.4,Win32,60.0240096,,,,,,,,,
,,,,,,,,,,,,0,5,5,5,1,sixth,13,26,F,R,IMT,2021-07-13_14h44.34.097,ImageRatingTask_S4,2021.1.4,Win32,60.0240096,,,,,,,,,
,,,,,,,,,,,,0,6,6,6,1,seventh,13,26,F,R,IMT,2021-07-13_14h44.34.097,ImageRatingTask_S4,2021.1.4,Win32,60.0240096,,,,,,,,,
,,,,,,,,,,,,0,7,7,7,1,last,13,26,F,R,IMT,2021-07-13_14h44.34.097,ImageRatingTask_S4,2021.1.4,Win32,60.0240096,,,,,,,,,
,,,,,,,,,,,,,,,,,,13,26,F,R,IMT,2021-07-13_14h44.34.097,ImageRatingTask_S4,2021.1.4,Win32,60.0240096,0,14,14,144,1,DreamStudyImages_rs1000x750g/Water/lakepontoon_CROPPED.jpg,,,
,,4,1.646,2,0.495,6,2.481,1,0.565,2,1.37,0,0,0,0,1,main,13,26,F,R,IMT,2021-07-13_14h44.34.097,ImageRatingTask_S4,2021.1.4,Win32,60.0240096,,,,,,,,,
,,,,,,,,,,,,0,1,1,1,1,second,13,26,F,R,IMT,2021-07-13_14h44.34.097,ImageRatingTask_S4,2021.1.4,Win32,60.0240096,,,,,,,,,
,,,,,,,,,,,,0,2,2,2,1,third,13,26,F,R,IMT,2021-07-13_14h44.34.097,ImageRatingTask_S4,2021.1.4,Win32,60.0240096,,,,,,,,,
,,,,,,,,,,,,0,3,3,3,1,fourth,13,26,F,R,IMT,2021-07-13_14h44.34.097,ImageRatingTask_S4,2021.1.4,Win32,60.0240096,,,,,,,,,
,,,,,,,,,,,,0,4,4,4,1,fifth,13,26,F,R,IMT,2021-07-13_14h44.34.097,ImageRatingTask_S4,2021.1.4,Win32,60.0240096,,,,,,,,,
,,,,,,,,,,,,0,5,5,5,1,sixth,13,26,F,R,IMT,2021-07-13_14h44.34.097,ImageRatingTask_S4,2021.1.4,Win32,60.0240096,,,,,,,,,
,,,,,,,,,,,,0,6,6,6,1,seventh,13,26,F,R,IMT,2021-07-13_14h44.34.097,ImageRatingTask_S4,2021.1.4,Win32,60.0240096,,,,,,,,,
,,,,,,,,,,,,0,7,7,7,1,last,13,26,F,R,IMT,2021-07-13_14h44.34.097,ImageRatingTask_S4,2021.1.4,Win32,60.0240096,,,,,,,,,
,,,,,,,,,,,,,,,,,,13,26,F,R,IMT,2021-07-13_14h44.34.097,ImageRatingTask_S4,2021.1.4,Win32,60.0240096,0,15,15,88,1,DreamStudyImages_rs1000x750g/Children/IAPS2276_girl3.jpg,,,
,,6,2.961,2,0.871,6,6.313,1,1.322,6,1.737,0,0,0,0,1,main,13,26,F,R,IMT,2021-07-13_14h44.34.097,ImageRatingTask_S4,2021.1.4,Win32,60.0240096,,,,,,,,,
,,,,,,,,,,,,0,1,1,1,1,second,13,26,F,R,IMT,2021-07-13_14h44.34.097,ImageRatingTask_S4,2021.1.4,Win32,60.0240096,,,,,,,,,
,,,,,,,,,,,,0,2,2,2,1,third,13,26,F,R,IMT,2021-07-13_14h44.34.097,ImageRatingTask_S4,2021.1.4,Win32,60.0240096,,,,,,,,,
,,,,,,,,,,,,0,3,3,3,1,fourth,13,26,F,R,IMT,2021-07-13_14h44.34.097,ImageRatingTask_S4,2021.1.4,Win32,60.0240096,,,,,,,,,
,,,,,,,,,,,,0,4,4,4,1,fifth,13,26,F,R,IMT,2021-07-13_14h44.34.097,ImageRatingTask_S4,2021.1.4,Win32,60.0240096,,,,,,,,,
,,,,,,,,,,,,0,5,5,5,1,sixth,13,26,F,R,IMT,2021-07-13_14h44.34.097,ImageRatingTask_S4,2021.1.4,Win32,60.0240096,,,,,,,,,
,,,,,,,,,,,,0,6,6,6,1,seventh,13,26,F,R,IMT,2021-07-13_14h44.34.097,ImageRatingTask_S4,2021.1.4,Win32,60.0240096,,,,,,,,,
,,,,,,,,,,,,0,7,7,7,1,last,13,26,F,R,IMT,2021-07-13_14h44.34.097,ImageRatingTask_S4,2021.1.4,Win32,60.0240096,,,,,,,,,
,,,,,,,,,,,,,,,,,,13,26,F,R,IMT,2021-07-13_14h44.34.097,ImageRatingTask_S4,2021.1.4,Win32,60.0240096,0,16,16,53,1,DreamStudyImages_rs1000x750g/Houses/IAPS5731_house2.jpg,,,
,,6,55.568,4,2.004,9,2.736,1,1.035,2,0.359,0,0,0,0,1,main,13,26,F,R,IMT,2021-07-13_14h44.34.097,ImageRatingTask_S4,2021.1.4,Win32,60.0240096,,,,,,,,,
,,,,,,,,,,,,0,1,1,1,1,second,13,26,F,R,IMT,2021-07-13_14h44.34.097,ImageRatingTask_S4,2021.1.4,Win32,60.0240096,,,,,,,,,
,,,,,,,,,,,,0,2,2,2,1,third,13,26,F,R,IMT,2021-07-13_14h44.34.097,ImageRatingTask_S4,2021.1.4,Win32,60.0240096,,,,,,,,,
,,,,,,,,,,,,0,3,3,3,1,fourth,13,26,F,R,IMT,2021-07-13_14h44.34.097,ImageRatingTask_S4,2021.1.4,Win32,60.0240096,,,,,,,,,
,,,,,,,,,,,,0,4,4,4,1,fifth,13,26,F,R,IMT,2021-07-13_14h44.34.097,ImageRatingTask_S4,2021.1.4,Win32,60.0240096,,,,,,,,,
,,,,,,,,,,,,0,5,5,5,1,sixth,13,26,F,R,IMT,2021-07-13_14h44.34.097,ImageRatingTask_S4,2021.1.4,Win32,60.0240096,,,,,,,,,
,,,,,,,,,,,,0,6,6,6,1,seventh,13,26,F,R,IMT,2021-07-13_14h44.34.097,ImageRatingTask_S4,2021.1.4,Win32,60.0240096,,,,,,,,,
,,,,,,,,,,,,0,7,7,7,1,last,13,26,F,R,IMT,2021-07-13_14h44.34.097,ImageRatingTask_S4,2021.1.4,Win32,60.0240096,,,,,,,,,
,,,,,,,,,,,,,,,,,,13,26,F,R,IMT,2021-07-13_14h44.34.097,ImageRatingTask_S4,2021.1.4,Win32,60.0240096,0,17,17,61,1,DreamStudyImages_rs1000x750g/Children/IAPS2224_children5.jpg,,,
,,5,1.32,1,1.807,8,1.832,1,0.52,7,0.963,0,0,0,0,1,main,13,26,F,R,IMT,2021-07-13_14h44.34.097,ImageRatingTask_S4,2021.1.4,Win32,60.0240096,,,,,,,,,
,,,,,,,,,,,,0,1,1,1,1,second,13,26,F,R,IMT,2021-07-13_14h44.34.097,ImageRatingTask_S4,2021.1.4,Win32,60.0240096,,,,,,,,,
,,,,,,,,,,,,0,2,2,2,1,third,13,26,F,R,IMT,2021-07-13_14h44.34.097,ImageRatingTask_S4,2021.1.4,Win32,60.0240096,,,,,,,,,
,,,,,,,,,,,,0,3,3,3,1,fourth,13,26,F,R,IMT,2021-07-13_14h44.34.097,ImageRatingTask_S4,2021.1.4,Win32,60.0240096,,,,,,,,,
,,,,,,,,,,,,0,4,4,4,1,fifth,13,26,F,R,IMT,2021-07-13_14h44.34.097,ImageRatingTask_S4,2021.1.4,Win32,60.0240096,,,,,,,,,
,,,,,,,,,,,,0,5,5,5,1,sixth,13,26,F,R,IMT,2021-07-13_14h44.34.097,ImageRatingTask_S4,2021.1.4,Win32,60.0240096,,,,,,,,,
,,,,,,,,,,,,0,6,6,6,1,seventh,13,26,F,R,IMT,2021-07-13_14h44.34.097,ImageRatingTask_S4,2021.1.4,Win32,60.0240096,,,,,,,,,
,,,,,,,,,,,,0,7,7,7,1,last,13,26,F,R,IMT,2021-07-13_14h44.34.097,ImageRatingTask_S4,2021.1.4,Win32,60.0240096,,,,,,,,,
,,,,,,,,,,,,,,,,,,13,26,F,R,IMT,2021-07-13_14h44.34.097,ImageRatingTask_S4,2021.1.4,Win32,60.0240096,0,18,18,109,1,DreamStudyImages_rs1000x750g/Vehicles/Objects_290_h.jpg,,,
,,5,4.376,1,0.242,9,1.705,1,0.873,5,1.688,0,0,0,0,1,main,13,26,F,R,IMT,2021-07-13_14h44.34.097,ImageRatingTask_S4,2021.1.4,Win32,60.0240096,,,,,,,,,
,,,,,,,,,,,,0,1,1,1,1,second,13,26,F,R,IMT,2021-07-13_14h44.34.097,ImageRatingTask_S4,2021.1.4,Win32,60.0240096,,,,,,,,,
,,,,,,,,,,,,0,2,2,2,1,third,13,26,F,R,IMT,2021-07-13_14h44.34.097,ImageRatingTask_S4,2021.1.4,Win32,60.0240096,,,,,,,,,
,,,,,,,,,,,,0,3,3,3,1,fourth,13,26,F,R,IMT,2021-07-13_14h44.34.097,ImageRatingTask_S4,2021.1.4,Win32,60.0240096,,,,,,,,,
,,,,,,,,,,,,0,4,4,4,1,fifth,13,26,F,R,IMT,2021-07-13_14h44.34.097,ImageRatingTask_S4,2021.1.4,Win32,60.0240096,,,,,,,,,
,,,,,,,,,,,,0,5,5,5,1,sixth,13,26,F,R,IMT,2021-07-13_14h44.34.097,ImageRatingTask_S4,2021.1.4,Win32,60.0240096,,,,,,,,,
,,,,,,,,,,,,0,6,6,6,1,seventh,13,26,F,R,IMT,2021-07-13_14h44.34.097,ImageRatingTask_S4,2021.1.4,Win32,60.0240096,,,,,,,,,
,,,,,,,,,,,,0,7,7,7,1,last,13,26,F,R,IMT,2021-07-13_14h44.34.097,ImageRatingTask_S4,2021.1.4,Win32,60.0240096,,,,,,,,,
,,,,,,,,,,,,,,,,,,13,26,F,R,IMT,2021-07-13_14h44.34.097,ImageRatingTask_S4,2021.1.4,Win32,60.0240096,0,19,19,18,1,DreamStudyImages_rs1000x750g/Food/Objects_106_v.jpg,,,
,,5,0.769,1,0.673,9,1.755,1,1.472,8,0.563,0,0,0,0,1,main,13,26,F,R,IMT,2021-07-13_14h44.34.097,ImageRatingTask_S4,2021.1.4,Win32,60.0240096,,,,,,,,,
,,,,,,,,,,,,0,1,1,1,1,second,13,26,F,R,IMT,2021-07-13_14h44.34.097,ImageRatingTask_S4,2021.1.4,Win32,60.0240096,,,,,,,,,
,,,,,,,,,,,,0,2,2,2,1,third,13,26,F,R,IMT,2021-07-13_14h44.34.097,ImageRatingTask_S4,2021.1.4,Win32,60.0240096,,,,,,,,,
,,,,,,,,,,,,0,3,3,3,1,fourth,13,26,F,R,IMT,2021-07-13_14h44.34.097,ImageRatingTask_S4,2021.1.4,Win32,60.0240096,,,,,,,,,
,,,,,,,,,,,,0,4,4,4,1,fifth,13,26,F,R,IMT,2021-07-13_14h44.34.097,ImageRatingTask_S4,2021.1.4,Win32,60.0240096,,,,,,,,,
,,,,,,,,,,,,0,5,5,5,1,sixth,13,26,F,R,IMT,2021-07-13_14h44.34.097,ImageRatingTask_S4,2021.1.4,Win32,60.0240096,,,,,,,,,
,,,,,,,,,,,,0,6,6,6,1,seventh,13,26,F,R,IMT,2021-07-13_14h44.34.097,ImageRatingTask_S4,2021.1.4,Win32,60.0240096,,,,,,,,,
,,,,,,,,,,,,0,7,7,7,1,last,13,26,F,R,IMT,2021-07-13_14h44.34.097,ImageRatingTask_S4,2021.1.4,Win32,60.0240096,,,,,,,,,
,,,,,,,,,,,,,,,,,,13,26,F,R,IMT,2021-07-13_14h44.34.097,ImageRatingTask_S4,2021.1.4,Win32,60.0240096,0,20,20,139,1,DreamStudyImages_rs1000x750g/Water/Landscapes_154_h.jpg,,,
,,5,1.218,5,1.587,7,4.69,2,2.623,3,1.881,0,0,0,0,1,main,13,26,F,R,IMT,2021-07-13_14h44.34.097,ImageRatingTask_S4,2021.1.4,Win32,60.0240096,,,,,,,,,
,,,,,,,,,,5,0.829,0,1,1,1,1,second,13,26,F,R,IMT,2021-07-13_14h44.34.097,ImageRatingTask_S4,2021.1.4,Win32,60.0240096,,,,,,,,,
,,,,,,,,,,,,0,2,2,2,1,third,13,26,F,R,IMT,2021-07-13_14h44.34.097,ImageRatingTask_S4,2021.1.4,Win32,60.0240096,,,,,,,,,
,,,,,,,,,,,,0,3,3,3,1,fourth,13,26,F,R,IMT,2021-07-13_14h44.34.097,ImageRatingTask_S4,2021.1.4,Win32,60.0240096,,,,,,,,,
,,,,,,,,,,,,0,4,4,4,1,fifth,13,26,F,R,IMT,2021-07-13_14h44.34.097,ImageRatingTask_S4,2021.1.4,Win32,60.0240096,,,,,,,,,
,,,,,,,,,,,,0,5,5,5,1,sixth,13,26,F,R,IMT,2021-07-13_14h44.34.097,ImageRatingTask_S4,2021.1.4,Win32,60.0240096,,,,,,,,,
,,,,,,,,,,,,0,6,6,6,1,seventh,13,26,F,R,IMT,2021-07-13_14h44.34.097,ImageRatingTask_S4,2021.1.4,Win32,60.0240096,,,,,,,,,
,,,,,,,,,,,,0,7,7,7,1,last,13,26,F,R,IMT,2021-07-13_14h44.34.097,ImageRatingTask_S4,2021.1.4,Win32,60.0240096,,,,,,,,,
,,,,,,,,,,,,,,,,,,13,26,F,R,IMT,2021-07-13_14h44.34.097,ImageRatingTask_S4,2021.1.4,Win32,60.0240096,0,21,21,69,1,DreamStudyImages_rs1000x750g/Mammals/Animal carcass 6.jpg,,,
,,1,2.238,5,1.736,6,2.849,1,0.939,2,1.018,0,0,0,0,1,main,13,26,F,R,IMT,2021-07-13_14h44.34.097,ImageRatingTask_S4,2021.1.4,Win32,60.0240096,,,,,,,,,
,,,,,,,,,,,,0,1,1,1,1,second,13,26,F,R,IMT,2021-07-13_14h44.34.097,ImageRatingTask_S4,2021.1.4,Win32,60.0240096,,,,,,,,,
,,,,,,,,,,,,0,2,2,2,1,third,13,26,F,R,IMT,2021-07-13_14h44.34.097,ImageRatingTask_S4,2021.1.4,Win32,60.0240096,,,,,,,,,
,,,,,,,,,,,,0,3,3,3,1,fourth,13,26,F,R,IMT,2021-07-13_14h44.34.097,ImageRatingTask_S4,2021.1.4,Win32,60.0240096,,,,,,,,,
,,,,,,,,,,,,0,4,4,4,1,fifth,13,26,F,R,IMT,2021-07-13_14h44.34.097,ImageRatingTask_S4,2021.1.4,Win32,60.0240096,,,,,,,,,
,,,,,,,,,,,,0,5,5,5,1,sixth,13,26,F,R,IMT,2021-07-13_14h44.34.097,ImageRatingTask_S4,2021.1.4,Win32,60.0240096,,,,,,,,,
,,,,,,,,,,,,0,6,6,6,1,seventh,13,26,F,R,IMT,2021-07-13_14h44.34.097,ImageRatingTask_S4,2021.1.4,Win32,60.0240096,,,,,,,,,
,,,,,,,,,,,,0,7,7,7,1,last,13,26,F,R,IMT,2021-07-13_14h44.34.097,ImageRatingTask_S4,2021.1.4,Win32,60.0240096,,,,,,,,,
,,,,,,,,,,,,,,,,,,13,26,F,R,IMT,2021-07-13_14h44.34.097,ImageRatingTask_S4,2021.1.4,Win32,60.0240096,0,22,22,105,1,DreamStudyImages_rs1000x750g/Children/Miserable pose 3.jpg,,,
,,5,2.22,1,0.124,7,1.493,1,0.446,4,3.383,0,0,0,0,1,main,13,26,F,R,IMT,2021-07-13_14h44.34.097,ImageRatingTask_S4,2021.1.4,Win32,60.0240096,,,,,,,,,
,,,,,,,,,,,,0,1,1,1,1,second,13,26,F,R,IMT,2021-07-13_14h44.34.097,ImageRatingTask_S4,2021.1.4,Win32,60.0240096,,,,,,,,,
,,,,,,,,,,,,0,2,2,2,1,third,13,26,F,R,IMT,2021-07-13_14h44.34.097,ImageRatingTask_S4,2021.1.4,Win32,60.0240096,,,,,,,,,
,,,,,,,,,,,,0,3,3,3,1,fourth,13,26,F,R,IMT,2021-07-13_14h44.34.097,ImageRatingTask_S4,2021.1.4,Win32,60.0240096,,,,,,,,,
,,,,,,,,,,,,0,4,4,4,1,fifth,13,26,F,R,IMT,2021-07-13_14h44.34.097,ImageRatingTask_S4,2021.1.4,Win32,60.0240096,,,,,,,,,
,,,,,,,,,,,,0,5,5,5,1,sixth,13,26,F,R,IMT,2021-07-13_14h44.34.097,ImageRatingTask_S4,2021.1.4,Win32,60.0240096,,,,,,,,,
,,,,,,,,,,,,0,6,6,6,1,seventh,13,26,F,R,IMT,2021-07-13_14h44.34.097,ImageRatingTask_S4,2021.1.4,Win32,60.0240096,,,,,,,,,
,,,,,,,,,,,,0,7,7,7,1,last,13,26,F,R,IMT,2021-07-13_14h44.34.097,ImageRatingTask_S4,2021.1.4,Win32,60.0240096,,,,,,,,,
,,,,,,,,,,,,,,,,,,13,26,F,R,IMT,2021-07-13_14h44.34.097,ImageRatingTask_S4,2021.1.4,Win32,60.0240096,0,23,23,101,1,DreamStudyImages_rs1000x750g/Mammals/IAPS1617_mole.jpg,,,
,,5,1.901,1,0.151,5,1.928,1,0.594,6,4.555,0,0,0,0,1,main,13,26,F,R,IMT,2021-07-13_14h44.34.097,ImageRatingTask_S4,2021.1.4,Win32,60.0240096,,,,,,,,,
,,,,,,,,,,,,0,1,1,1,1,second,13,26,F,R,IMT,2021-07-13_14h44.34.097,ImageRatingTask_S4,2021.1.4,Win32,60.0240096,,,,,,,,,
,,,,,,,,,,,,0,2,2,2,1,third,13,26,F,R,IMT,2021-07-13_14h44.34.097,ImageRatingTask_S4,2021.1.4,Win32,60.0240096,,,,,,,,,
,,,,,,,,,,,,0,3,3,3,1,fourth,13,26,F,R,IMT,2021-07-13_14h44.34.097,ImageRatingTask_S4,2021.1.4,Win32,60.0240096,,,,,,,,,
,,,,,,,,,,,,0,4,4,4,1,fifth,13,26,F,R,IMT,2021-07-13_14h44.34.097,ImageRatingTask_S4,2021.1.4,Win32,60.0240096,,,,,,,,,
,,,,,,,,,,,,0,5,5,5,1,sixth,13,26,F,R,IMT,2021-07-13_14h44.34.097,ImageRatingTask_S4,2021.1.4,Win32,60.0240096,,,,,,,,,
,,,,,,,,,,,,0,6,6,6,1,seventh,13,26,F,R,IMT,2021-07-13_14h44.34.097,ImageRatingTask_S4,2021.1.4,Win32,60.0240096,,,,,,,,,
,,,,,,,,,,,,0,7,7,7,1,last,13,26,F,R,IMT,2021-07-13_14h44.34.097,ImageRatingTask_S4,2021.1.4,Win32,60.0240096,,,,,,,,,
,,,,,,,,,,,,,,,,,,13,26,F,R,IMT,2021-07-13_14h44.34.097,ImageRatingTask_S4,2021.1.4,Win32,60.0240096,0,24,24,58,1,DreamStudyImages_rs1000x750g/Houses/IAPS7242_building.jpg,,,
,,6,1.955,2,0.559,9,1.667,1,0.928,3,1.038,0,0,0,0,1,main,13,26,F,R,IMT,2021-07-13_14h44.34.097,ImageRatingTask_S4,2021.1.4,Win32,60.0240096,,,,,,,,,
,,,,,,,,,,,,0,1,1,1,1,second,13,26,F,R,IMT,2021-07-13_14h44.34.097,ImageRatingTask_S4,2021.1.4,Win32,60.0240096,,,,,,,,,
,,,,,,,,,,,,0,2,2,2,1,third,13,26,F,R,IMT,2021-07-13_14h44.34.097,ImageRatingTask_S4,2021.1.4,Win32,60.0240096,,,,,,,,,
,,,,,,,,,,,,0,3,3,3,1,fourth,13,26,F,R,IMT,2021-07-13_14h44.34.097,ImageRatingTask_S4,2021.1.4,Win32,60.0240096,,,,,,,,,
,,,,,,,,,,,,0,4,4,4,1,fifth,13,26,F,R,IMT,2021-07-13_14h44.34.097,ImageRatingTask_S4,2021.1.4,Win32,60.0240096,,,,,,,,,
,,,,,,,,,,,,0,5,5,5,1,sixth,13,26,F,R,IMT,2021-07-13_14h44.34.097,ImageRatingTask_S4,2021.1.4,Win32,60.0240096,,,,,,,,,
,,,,,,,,,,,,0,6,6,6,1,seventh,13,26,F,R,IMT,2021-07-13_14h44.34.097,ImageRatingTask_S4,2021.1.4,Win32,60.0240096,,,,,,,,,
,,,,,,,,,,,,0,7,7,7,1,last,13,26,F,R,IMT,2021-07-13_14h44.34.097,ImageRatingTask_S4,2021.1.4,Win32,60.0240096,,,,,,,,,
,,,,,,,,,,,,,,,,,,13,26,F,R,IMT,2021-07-13_14h44.34.097,ImageRatingTask_S4,2021.1.4,Win32,60.0240096,0,25,25,59,1,DreamStudyImages_rs1000x750g/Mammals/1440.jpg,,,
,,5,1.398,1,0.845,9,1.192,1,1.072,2,1.351,0,0,0,0,1,main,13,26,F,R,IMT,2021-07-13_14h44.34.097,ImageRatingTask_S4,2021.1.4,Win32,60.0240096,,,,,,,,,
,,,,,,,,,,,,0,1,1,1,1,second,13,26,F,R,IMT,2021-07-13_14h44.34.097,ImageRatingTask_S4,2021.1.4,Win32,60.0240096,,,,,,,,,
,,,,,,,,,,,,0,2,2,2,1,third,13,26,F,R,IMT,2021-07-13_14h44.34.097,ImageRatingTask_S4,2021.1.4,Win32,60.0240096,,,,,,,,,
,,,,,,,,,,,,0,3,3,3,1,fourth,13,26,F,R,IMT,2021-07-13_14h44.34.097,ImageRatingTask_S4,2021.1.4,Win32,60.0240096,,,,,,,,,
,,,,,,,,,,,,0,4,4,4,1,fifth,13,26,F,R,IMT,2021-07-13_14h44.34.097,ImageRatingTask_S4,2021.1.4,Win32,60.0240096,,,,,,,,,
,,,,,,,,,,,,0,5,5,5,1,sixth,13,26,F,R,IMT,2021-07-13_14h44.34.097,ImageRatingTask_S4,2021.1.4,Win32,60.0240096,,,,,,,,,
,,,,,,,,,,,,0,6,6,6,1,seventh,13,26,F,R,IMT,2021-07-13_14h44.34.097,ImageRatingTask_S4,2021.1.4,Win32,60.0240096,,,,,,,,,
,,,,,,,,,,,,0,7,7,7,1,last,13,26,F,R,IMT,2021-07-13_14h44.34.097,ImageRatingTask_S4,2021.1.4,Win32,60.0240096,,,,,,,,,
,,,,,,,,,,,,,,,,,,13,26,F,R,IMT,2021-07-13_14h44.34.097,ImageRatingTask_S4,2021.1.4,Win32,60.0240096,0,26,26,87,1,DreamStudyImages_rs1000x750g/Children/Faces_115_h.jpg,,,
,,5,0.918,1,0.725,9,3.717,1,0.652,2,0.378,0,0,0,0,1,main,13,26,F,R,IMT,2021-07-13_14h44.34.097,ImageRatingTask_S4,2021.1.4,Win32,60.0240096,,,,,,,,,
,,,,,,,,,,,,0,1,1,1,1,second,13,26,F,R,IMT,2021-07-13_14h44.34.097,ImageRatingTask_S4,2021.1.4,Win32,60.0240096,,,,,,,,,
,,,,,,,,,,,,0,2,2,2,1,third,13,26,F,R,IMT,2021-07-13_14h44.34.097,ImageRatingTask_S4,2021.1.4,Win32,60.0240096,,,,,,,,,
,,,,,,,,,,,,0,3,3,3,1,fourth,13,26,F,R,IMT,2021-07-13_14h44.34.097,ImageRatingTask_S4,2021.1.4,Win32,60.0240096,,,,,,,,,
,,,,,,,,,,,,0,4,4,4,1,fifth,13,26,F,R,IMT,2021-07-13_14h44.34.097,ImageRatingTask_S4,2021.1.4,Win32,60.0240096,,,,,,,,,
,,,,,,,,,,,,0,5,5,5,1,sixth,13,26,F,R,IMT,2021-07-13_14h44.34.097,ImageRatingTask_S4,2021.1.4,Win32,60.0240096,,,,,,,,,
,,,,,,,,,,,,0,6,6,6,1,seventh,13,26,F,R,IMT,2021-07-13_14h44.34.097,ImageRatingTask_S4,2021.1.4,Win32,60.0240096,,,,,,,,,
,,,,,,,,,,,,0,7,7,7,1,last,13,26,F,R,IMT,2021-07-13_14h44.34.097,ImageRatingTask_S4,2021.1.4,Win32,60.0240096,,,,,,,,,
,,,,,,,,,,,,,,,,,,13,26,F,R,IMT,2021-07-13_14h44.34.097,ImageRatingTask_S4,2021.1.4,Win32,60.0240096,0,27,27,70,1,DreamStudyImages_rs1000x750g/Children/Excited face 7.jpg,,,
,,5,0.937,1,0.377,5,1.908,1,4.74,8,1.073,0,0,0,0,1,main,13,26,F,R,IMT,2021-07-13_14h44.34.097,ImageRatingTask_S4,2021.1.4,Win32,60.0240096,,,,,,,,,
,,,,,,,,,,,,0,1,1,1,1,second,13,26,F,R,IMT,2021-07-13_14h44.34.097,ImageRatingTask_S4,2021.1.4,Win32,60.0240096,,,,,,,,,
,,,,,,,,,,,,0,2,2,2,1,third,13,26,F,R,IMT,2021-07-13_14h44.34.097,ImageRatingTask_S4,2021.1.4,Win32,60.0240096,,,,,,,,,
,,,,,,,,,,,,0,3,3,3,1,fourth,13,26,F,R,IMT,2021-07-13_14h44.34.097,ImageRatingTask_S4,2021.1.4,Win32,60.0240096,,,,,,,,,
,,,,,,,,,,,,0,4,4,4,1,fifth,13,26,F,R,IMT,2021-07-13_14h44.34.097,ImageRatingTask_S4,2021.1.4,Win32,60.0240096,,,,,,,,,
,,,,,,,,,,,,0,5,5,5,1,sixth,13,26,F,R,IMT,2021-07-13_14h44.34.097,ImageRatingTask_S4,2021.1.4,Win32,60.0240096,,,,,,,,,
,,,,,,,,,,,,0,6,6,6,1,seventh,13,26,F,R,IMT,2021-07-13_14h44.34.097,ImageRatingTask_S4,2021.1.4,Win32,60.0240096,,,,,,,,,
,,,,,,,,,,,,0,7,7,7,1,last,13,26,F,R,IMT,2021-07-13_14h44.34.097,ImageRatingTask_S4,2021.1.4,Win32,60.0240096,,,,,,,,,
,,,,,,,,,,,,,,,,,,13,26,F,R,IMT,2021-07-13_14h44.34.097,ImageRatingTask_S4,2021.1.4,Win32,60.0240096,0,28,28,94,1,DreamStudyImages_rs1000x750g/Water/Lake 11.jpg,,,
,,5,0.946,1,0.191,9,1.294,1,1.078,8,0.737,0,0,0,0,1,main,13,26,F,R,IMT,2021-07-13_14h44.34.097,ImageRatingTask_S4,2021.1.4,Win32,60.0240096,,,,,,,,,
,,,,,,,,,,,,0,1,1,1,1,second,13,26,F,R,IMT,2021-07-13_14h44.34.097,ImageRatingTask_S4,2021.1.4,Win32,60.0240096,,,,,,,,,
,,,,,,,,,,,,0,2,2,2,1,third,13,26,F,R,IMT,2021-07-13_14h44.34.097,ImageRatingTask_S4,2021.1.4,Win32,60.0240096,,,,,,,,,
,,,,,,,,,,,,0,3,3,3,1,fourth,13,26,F,R,IMT,2021-07-13_14h44.34.097,ImageRatingTask_S4,2021.1.4,Win32,60.0240096,,,,,,,,,
,,,,,,,,,,,,0,4,4,4,1,fifth,13,26,F,R,IMT,2021-07-13_14h44.34.097,ImageRatingTask_S4,2021.1.4,Win32,60.0240096,,,,,,,,,
,,,,,,,,,,,,0,5,5,5,1,sixth,13,26,F,R,IMT,2021-07-13_14h44.34.097,ImageRatingTask_S4,2021.1.4,Win32,60.0240096,,,,,,,,,
,,,,,,,,,,,,0,6,6,6,1,seventh,13,26,F,R,IMT,2021-07-13_14h44.34.097,ImageRatingTask_S4,2021.1.4,Win32,60.0240096,,,,,,,,,
,,,,,,,,,,,,0,7,7,7,1,last,13,26,F,R,IMT,2021-07-13_14h44.34.097,ImageRatingTask_S4,2021.1.4,Win32,60.0240096,,,,,,,,,
,,,,,,,,,,,,,,,,,,13,26,F,R,IMT,2021-07-13_14h44.34.097,ImageRatingTask_S4,2021.1.4,Win32,60.0240096,0,29,29,35,1,DreamStudyImages_rs1000x750g/Water/Landscapes_180_h.jpg,,,
,,5,0.855,1,0.136,7,1.677,1,0.645,7,1.286,0,0,0,0,1,main,13,26,F,R,IMT,2021-07-13_14h44.34.097,ImageRatingTask_S4,2021.1.4,Win32,60.0240096,,,,,,,,,
,,,,,,,,,,,,0,1,1,1,1,second,13,26,F,R,IMT,2021-07-13_14h44.34.097,ImageRatingTask_S4,2021.1.4,Win32,60.0240096,,,,,,,,,
,,,,,,,,,,,,0,2,2,2,1,third,13,26,F,R,IMT,2021-07-13_14h44.34.097,ImageRatingTask_S4,2021.1.4,Win32,60.0240096,,,,,,,,,
,,,,,,,,,,,,0,3,3,3,1,fourth,13,26,F,R,IMT,2021-07-13_14h44.34.097,ImageRatingTask_S4,2021.1.4,Win32,60.0240096,,,,,,,,,
,,,,,,,,,,,,0,4,4,4,1,fifth,13,26,F,R,IMT,2021-07-13_14h44.34.097,ImageRatingTask_S4,2021.1.4,Win32,60.0240096,,,,,,,,,
,,,,,,,,,,,,0,5,5,5,1,sixth,13,26,F,R,IMT,2021-07-13_14h44.34.097,ImageRatingTask_S4,2021.1.4,Win32,60.0240096,,,,,,,,,
,,,,,,,,,,,,0,6,6,6,1,seventh,13,26,F,R,IMT,2021-07-13_14h44.34.097,ImageRatingTask_S4,2021.1.4,Win32,60.0240096,,,,,,,,,
,,,,,,,,,,,,0,7,7,7,1,last,13,26,F,R,IMT,2021-07-13_14h44.34.097,ImageRatingTask_S4,2021.1.4,Win32,60.0240096,,,,,,,,,
,,,,,,,,,,,,,,,,,,13,26,F,R,IMT,2021-07-13_14h44.34.097,ImageRatingTask_S4,2021.1.4,Win32,60.0240096,0,30,30,123,1,DreamStudyImages_rs1000x750g/Vehicles/Car race 1.jpg,,,
,,5,1.101,1,0.09,9,1.26,1,1.128,5,1.989,0,0,0,0,1,main,13,26,F,R,IMT,2021-07-13_14h44.34.097,ImageRatingTask_S4,2021.1.4,Win32,60.0240096,,,,,,,,,
,,,,,,,,,,,,0,1,1,1,1,second,13,26,F,R,IMT,2021-07-13_14h44.34.097,ImageRatingTask_S4,2021.1.4,Win32,60.0240096,,,,,,,,,
,,,,,,,,,,,,0,2,2,2,1,third,13,26,F,R,IMT,2021-07-13_14h44.34.097,ImageRatingTask_S4,2021.1.4,Win32,60.0240096,,,,,,,,,
,,,,,,,,,,,,0,3,3,3,1,fourth,13,26,F,R,IMT,2021-07-13_14h44.34.097,ImageRatingTask_S4,2021.1.4,Win32,60.0240096,,,,,,,,,
,,,,,,,,,,,,0,4,4,4,1,fifth,13,26,F,R,IMT,2021-07-13_14h44.34.097,ImageRatingTask_S4,2021.1.4,Win32,60.0240096,,,,,,,,,
,,,,,,,,,,,,0,5,5,5,1,sixth,13,26,F,R,IMT,2021-07-13_14h44.34.097,ImageRatingTask_S4,2021.1.4,Win32,60.0240096,,,,,,,,,
,,,,,,,,,,,,0,6,6,6,1,seventh,13,26,F,R,IMT,2021-07-13_14h44.34.097,ImageRatingTask_S4,2021.1.4,Win32,60.0240096,,,,,,,,,
,,,,,,,,,,,,0,7,7,7,1,last,13,26,F,R,IMT,2021-07-13_14h44.34.097,ImageRatingTask_S4,2021.1.4,Win32,60.0240096,,,,,,,,,
,,,,,,,,,,,,,,,,,,13,26,F,R,IMT,2021-07-13_14h44.34.097,ImageRatingTask_S4,2021.1.4,Win32,60.0240096,0,31,31,114,1,DreamStudyImages_rs1000x750g/Food/Objects_087_h.jpg,,,
,,5,99.779,1,0.272,9,0.983,1,0.367,3,0.853,0,0,0,0,1,main,13,26,F,R,IMT,2021-07-13_14h44.34.097,ImageRatingTask_S4,2021.1.4,Win32,60.0240096,,,,,,,,,
,,,,,,,,,,,,0,1,1,1,1,second,13,26,F,R,IMT,2021-07-13_14h44.34.097,ImageRatingTask_S4,2021.1.4,Win32,60.0240096,,,,,,,,,
,,,,,,,,,,,,0,2,2,2,1,third,13,26,F,R,IMT,2021-07-13_14h44.34.097,ImageRatingTask_S4,2021.1.4,Win32,60.0240096,,,,,,,,,
,,,,,,,,,,,,0,3,3,3,1,fourth,13,26,F,R,IMT,2021-07-13_14h44.34.097,ImageRatingTask_S4,2021.1.4,Win32,60.0240096,,,,,,,,,
,,,,,,,,,,,,0,4,4,4,1,fifth,13,26,F,R,IMT,2021-07-13_14h44.34.097,ImageRatingTask_S4,2021.1.4,Win32,60.0240096,,,,,,,,,
,,,,,,,,,,,,0,5,5,5,1,sixth,13,26,F,R,IMT,2021-07-13_14h44.34.097,ImageRatingTask_S4,2021.1.4,Win32,60.0240096,,,,,,,,,
,,,,,,,,,,,,0,6,6,6,1,seventh,13,26,F,R,IMT,2021-07-13_14h44.34.097,ImageRatingTask_S4,2021.1.4,Win32,60.0240096,,,,,,,,,
,,,,,,,,,,,,0,7,7,7,1,last,13,26,F,R,IMT,2021-07-13_14h44.34.097,ImageRatingTask_S4,2021.1.4,Win32,60.0240096,,,,,,,,,
,,,,,,,,,,,,,,,,,,13,26,F,R,IMT,2021-07-13_14h44.34.097,ImageRatingTask_S4,2021.1.4,Win32,60.0240096,0,32,32,113,1,DreamStudyImages_rs1000x750g/Mammals/Animals_113_h.jpg,,,
,,6,3.196,2,0.524,8,1.575,1,0.599,2,0.92,0,0,0,0,1,main,13,26,F,R,IMT,2021-07-13_14h44.34.097,ImageRatingTask_S4,2021.1.4,Win32,60.0240096,,,,,,,,,
,,,,,,,,,,,,0,1,1,1,1,second,13,26,F,R,IMT,2021-07-13_14h44.34.097,ImageRatingTask_S4,2021.1.4,Win32,60.0240096,,,,,,,,,
,,,,,,,,,,,,0,2,2,2,1,third,13,26,F,R,IMT,2021-07-13_14h44.34.097,ImageRatingTask_S4,2021.1.4,Win32,60.0240096,,,,,,,,,
,,,,,,,,,,,,0,3,3,3,1,fourth,13,26,F,R,IMT,2021-07-13_14h44.34.097,ImageRatingTask_S4,2021.1.4,Win32,60.0240096,,,,,,,,,
,,,,,,,,,,,,0,4,4,4,1,fifth,13,26,F,R,IMT,2021-07-13_14h44.34.097,ImageRatingTask_S4,2021.1.4,Win32,60.0240096,,,,,,,,,
,,,,,,,,,,,,0,5,5,5,1,sixth,13,26,F,R,IMT,2021-07-13_14h44.34.097,ImageRatingTask_S4,2021.1.4,Win32,60.0240096,,,,,,,,,
,,,,,,,,,,,,0,6,6,6,1,seventh,13,26,F,R,IMT,2021-07-13_14h44.34.097,ImageRatingTask_S4,2021.1.4,Win32,60.0240096,,,,,,,,,
,,,,,,,,,,,,0,7,7,7,1,last,13,26,F,R,IMT,2021-07-13_14h44.34.097,ImageRatingTask_S4,2021.1.4,Win32,60.0240096,,,,,,,,,
,,,,,,,,,,,,,,,,,,13,26,F,R,IMT,2021-07-13_14h44.34.097,ImageRatingTask_S4,2021.1.4,Win32,60.0240096,0,33,33,115,1,DreamStudyImages_rs1000x750g/Children/Faces_129_h.jpg,,,
,,5,2.377,1,0.46,9,1.255,1,0.315,1,4.016,0,0,0,0,1,main,13,26,F,R,IMT,2021-07-13_14h44.34.097,ImageRatingTask_S4,2021.1.4,Win32,60.0240096,,,,,,,,,
,,,,,,,,,,,,0,1,1,1,1,second,13,26,F,R,IMT,2021-07-13_14h44.34.097,ImageRatingTask_S4,2021.1.4,Win32,60.0240096,,,,,,,,,
,,,,,,,,,,,,0,2,2,2,1,third,13,26,F,R,IMT,2021-07-13_14h44.34.097,ImageRatingTask_S4,2021.1.4,Win32,60.0240096,,,,,,,,,
,,,,,,,,,,,,0,3,3,3,1,fourth,13,26,F,R,IMT,2021-07-13_14h44.34.097,ImageRatingTask_S4,2021.1.4,Win32,60.0240096,,,,,,,,,
,,,,,,,,,,,,0,4,4,4,1,fifth,13,26,F,R,IMT,2021-07-13_14h44.34.097,ImageRatingTask_S4,2021.1.4,Win32,60.0240096,,,,,,,,,
,,,,,,,,,,,,0,5,5,5,1,sixth,13,26,F,R,IMT,2021-07-13_14h44.34.097,ImageRatingTask_S4,2021.1.4,Win32,60.0240096,,,,,,,,,
,,,,,,,,,,,,0,6,6,6,1,seventh,13,26,F,R,IMT,2021-07-13_14h44.34.097,ImageRatingTask_S4,2021.1.4,Win32,60.0240096,,,,,,,,,
,,,,,,,,,,,,0,7,7,7,1,last,13,26,F,R,IMT,2021-07-13_14h44.34.097,ImageRatingTask_S4,2021.1.4,Win32,60.0240096,,,,,,,,,
,,,,,,,,,,,,,,,,,,13,26,F,R,IMT,2021-07-13_14h44.34.097,ImageRatingTask_S4,2021.1.4,Win32,60.0240096,0,34,34,7,1,DreamStudyImages_rs1000x750g/Children/Faces_259_v.jpg,,,
,,5,1.513,5,2.508,9,4.691,1,0.74,2,0.307,0,0,0,0,1,main,13,26,F,R,IMT,2021-07-13_14h44.34.097,ImageRatingTask_S4,2021.1.4,Win32,60.0240096,,,,,,,,,
,,,,,,,,,,,,0,1,1,1,1,second,13,26,F,R,IMT,2021-07-13_14h44.34.097,ImageRatingTask_S4,2021.1.4,Win32,60.0240096,,,,,,,,,
,,,,,,,,,,,,0,2,2,2,1,third,13,26,F,R,IMT,2021-07-13_14h44.34.097,ImageRatingTask_S4,2021.1.4,Win32,60.0240096,,,,,,,,,
,,,,,,,,,,,,0,3,3,3,1,fourth,13,26,F,R,IMT,2021-07-13_14h44.34.097,ImageRatingTask_S4,2021.1.4,Win32,60.0240096,,,,,,,,,
,,,,,,,,,,,,0,4,4,4,1,fifth,13,26,F,R,IMT,2021-07-13_14h44.34.097,ImageRatingTask_S4,2021.1.4,Win32,60.0240096,,,,,,,,,
,,,,,,,,,,,,0,5,5,5,1,sixth,13,26,F,R,IMT,2021-07-13_14h44.34.097,ImageRatingTask_S4,2021.1.4,Win32,60.0240096,,,,,,,,,
,,,,,,,,,,,,0,6,6,6,1,seventh,13,26,F,R,IMT,2021-07-13_14h44.34.097,ImageRatingTask_S4,2021.1.4,Win32,60.0240096,,,,,,,,,
,,,,,,,,,,,,0,7,7,7,1,last,13,26,F,R,IMT,2021-07-13_14h44.34.097,ImageRatingTask_S4,2021.1.4,Win32,60.0240096,,,,,,,,,
,,,,,,,,,,,,,,,,,,13,26,F,R,IMT,2021-07-13_14h44.34.097,ImageRatingTask_S4,2021.1.4,Win32,60.0240096,0,35,35,99,1,DreamStudyImages_rs1000x750g/Children/Faces_025_h.jpg,,,
,,5,1.794,1,0.121,9,1.86,1,1.461,5,0.717,0,0,0,0,1,main,13,26,F,R,IMT,2021-07-13_14h44.34.097,ImageRatingTask_S4,2021.1.4,Win32,60.0240096,,,,,,,,,
,,,,,,,,,,,,0,1,1,1,1,second,13,26,F,R,IMT,2021-07-13_14h44.34.097,ImageRatingTask_S4,2021.1.4,Win32,60.0240096,,,,,,,,,
,,,,,,,,,,,,0,2,2,2,1,third,13,26,F,R,IMT,2021-07-13_14h44.34.097,ImageRatingTask_S4,2021.1.4,Win32,60.0240096,,,,,,,,,
,,,,,,,,,,,,0,3,3,3,1,fourth,13,26,F,R,IMT,2021-07-13_14h44.34.097,ImageRatingTask_S4,2021.1.4,Win32,60.0240096,,,,,,,,,
,,,,,,,,,,,,0,4,4,4,1,fifth,13,26,F,R,IMT,2021-07-13_14h44.34.097,ImageRatingTask_S4,2021.1.4,Win32,60.0240096,,,,,,,,,
,,,,,,,,,,,,0,5,5,5,1,sixth,13,26,F,R,IMT,2021-07-13_14h44.34.097,ImageRatingTask_S4,2021.1.4,Win32,60.0240096,,,,,,,,,
,,,,,,,,,,,,0,6,6,6,1,seventh,13,26,F,R,IMT,2021-07-13_14h44.34.097,ImageRatingTask_S4,2021.1.4,Win32,60.0240096,,,,,,,,,
,,,,,,,,,,,,0,7,7,7,1,last,13,26,F,R,IMT,2021-07-13_14h44.34.097,ImageRatingTask_S4,2021.1.4,Win32,60.0240096,,,,,,,,,
,,,,,,,,,,,,,,,,,,13,26,F,R,IMT,2021-07-13_14h44.34.097,ImageRatingTask_S4,2021.1.4,Win32,60.0240096,0,36,36,80,1,DreamStudyImages_rs1000x750g/Food/Objects_052_h.jpg,,,
,,4,3.115,1,0.126,9,2.146,1,0.443,2,0.671,0,0,0,0,1,main,13,26,F,R,IMT,2021-07-13_14h44.34.097,ImageRatingTask_S4,2021.1.4,Win32,60.0240096,,,,,,,,,
,,,,,,,,,,,,0,1,1,1,1,second,13,26,F,R,IMT,2021-07-13_14h44.34.097,ImageRatingTask_S4,2021.1.4,Win32,60.0240096,,,,,,,,,
,,,,,,,,,,,,0,2,2,2,1,third,13,26,F,R,IMT,2021-07-13_14h44.34.097,ImageRatingTask_S4,2021.1.4,Win32,60.0240096,,,,,,,,,
,,,,,,,,,,,,0,3,3,3,1,fourth,13,26,F,R,IMT,2021-07-13_14h44.34.097,ImageRatingTask_S4,2021.1.4,Win32,60.0240096,,,,,,,,,
,,,,,,,,,,,,0,4,4,4,1,fifth,13,26,F,R,IMT,2021-07-13_14h44.34.097,ImageRatingTask_S4,2021.1.4,Win32,60.0240096,,,,,,,,,
,,,,,,,,,,,,0,5,5,5,1,sixth,13,26,F,R,IMT,2021-07-13_14h44.34.097,ImageRatingTask_S4,2021.1.4,Win32,60.0240096,,,,,,,,,
,,,,,,,,,,,,0,6,6,6,1,seventh,13,26,F,R,IMT,2021-07-13_14h44.34.097,ImageRatingTask_S4,2021.1.4,Win32,60.0240096,,,,,,,,,
,,,,,,,,,,,,0,7,7,7,1,last,13,26,F,R,IMT,2021-07-13_14h44.34.097,ImageRatingTask_S4,2021.1.4,Win32,60.0240096,,,,,,,,,
,,,,,,,,,,,,,,,,,,13,26,F,R,IMT,2021-07-13_14h44.34.097,ImageRatingTask_S4,2021.1.4,Win32,60.0240096,0,37,37,116,1,DreamStudyImages_rs1000x750g/Children/Faces_077_v.jpg,,,
,,6,4.048,1,0.145,9,2.45,1,0.556,3,1.055,0,0,0,0,1,main,13,26,F,R,IMT,2021-07-13_14h44.34.097,ImageRatingTask_S4,2021.1.4,Win32,60.0240096,,,,,,,,,
,,,,,,,,,,,,0,1,1,1,1,second,13,26,F,R,IMT,2021-07-13_14h44.34.097,ImageRatingTask_S4,2021.1.4,Win32,60.0240096,,,,,,,,,
,,,,,,,,,,,,0,2,2,2,1,third,13,26,F,R,IMT,2021-07-13_14h44.34.097,ImageRatingTask_S4,2021.1.4,Win32,60.0240096,,,,,,,,,
,,,,,,,,,,,,0,3,3,3,1,fourth,13,26,F,R,IMT,2021-07-13_14h44.34.097,ImageRatingTask_S4,2021.1.4,Win32,60.0240096,,,,,,,,,
,,,,,,,,,,,,0,4,4,4,1,fifth,13,26,F,R,IMT,2021-07-13_14h44.34.097,ImageRatingTask_S4,2021.1.4,Win32,60.0240096,,,,,,,,,
,,,,,,,,,,,,0,5,5,5,1,sixth,13,26,F,R,IMT,2021-07-13_14h44.34.097,ImageRatingTask_S4,2021.1.4,Win32,60.0240096,,,,,,,,,
,,,,,,,,,,,,0,6,6,6,1,seventh,13,26,F,R,IMT,2021-07-13_14h44.34.097,ImageRatingTask_S4,2021.1.4,Win32,60.0240096,,,,,,,,,
,,,,,,,,,,,,0,7,7,7,1,last,13,26,F,R,IMT,2021-07-13_14h44.34.097,ImageRatingTask_S4,2021.1.4,Win32,60.0240096,,,,,,,,,
,,,,,,,,,,,,,,,,,,13,26,F,R,IMT,2021-07-13_14h44.34.097,ImageRatingTask_S4,2021.1.4,Win32,60.0240096,0,38,38,36,1,DreamStudyImages_rs1000x750g/Mammals/Animals_165_h.jpg,,,
,,4,3.056,2,0.593,8,8.441,1,0.51,5,1.04,0,0,0,0,1,main,13,26,F,R,IMT,2021-07-13_14h44.34.097,ImageRatingTask_S4,2021.1.4,Win32,60.0240096,,,,,,,,,
,,,,,,,,,,,,0,1,1,1,1,second,13,26,F,R,IMT,2021-07-13_14h44.34.097,ImageRatingTask_S4,2021.1.4,Win32,60.0240096,,,,,,,,,
,,,,,,,,,,,,0,2,2,2,1,third,13,26,F,R,IMT,2021-07-13_14h44.34.097,ImageRatingTask_S4,2021.1.4,Win32,60.0240096,,,,,,,,,
,,,,,,,,,,,,0,3,3,3,1,fourth,13,26,F,R,IMT,2021-07-13_14h44.34.097,ImageRatingTask_S4,2021.1.4,Win32,60.0240096,,,,,,,,,
,,,,,,,,,,,,0,4,4,4,1,fifth,13,26,F,R,IMT,2021-07-13_14h44.34.097,ImageRatingTask_S4,2021.1.4,Win32,60.0240096,,,,,,,,,
,,,,,,,,,,,,0,5,5,5,1,sixth,13,26,F,R,IMT,2021-07-13_14h44.34.097,ImageRatingTask_S4,2021.1.4,Win32,60.0240096,,,,,,,,,
,,,,,,,,,,,,0,6,6,6,1,seventh,13,26,F,R,IMT,2021-07-13_14h44.34.097,ImageRatingTask_S4,2021.1.4,Win32,60.0240096,,,,,,,,,
,,,,,,,,,,,,0,7,7,7,1,last,13,26,F,R,IMT,2021-07-13_14h44.34.097,ImageRatingTask_S4,2021.1.4,Win32,60.0240096,,,,,,,,,
,,,,,,,,,,,,,,,,,,13,26,F,R,IMT,2021-07-13_14h44.34.097,ImageRatingTask_S4,2021.1.4,Win32,60.0240096,0,39,39,132,1,DreamStudyImages_rs1000x750g/Food/Objects_019_h.jpg,,,
,,5,1.761,1,0.378,7,1.863,1,0.932,7,3.807,0,0,0,0,1,main,13,26,F,R,IMT,2021-07-13_14h44.34.097,ImageRatingTask_S4,2021.1.4,Win32,60.0240096,,,,,,,,,
,,,,,,,,,,,,0,1,1,1,1,second,13,26,F,R,IMT,2021-07-13_14h44.34.097,ImageRatingTask_S4,2021.1.4,Win32,60.0240096,,,,,,,,,
,,,,,,,,,,,,0,2,2,2,1,third,13,26,F,R,IMT,2021-07-13_14h44.34.097,ImageRatingTask_S4,2021.1.4,Win32,60.0240096,,,,,,,,,
,,,,,,,,,,,,0,3,3,3,1,fourth,13,26,F,R,IMT,2021-07-13_14h44.34.097,ImageRatingTask_S4,2021.1.4,Win32,60.0240096,,,,,,,,,
,,,,,,,,,,,,0,4,4,4,1,fifth,13,26,F,R,IMT,2021-07-13_14h44.34.097,ImageRatingTask_S4,2021.1.4,Win32,60.0240096,,,,,,,,,
,,,,,,,,,,,,0,5,5,5,1,sixth,13,26,F,R,IMT,2021-07-13_14h44.34.097,ImageRatingTask_S4,2021.1.4,Win32,60.0240096,,,,,,,,,
,,,,,,,,,,,,0,6,6,6,1,seventh,13,26,F,R,IMT,2021-07-13_14h44.34.097,ImageRatingTask_S4,2021.1.4,Win32,60.0240096,,,,,,,,,
,,,,,,,,,,,,0,7,7,7,1,last,13,26,F,R,IMT,2021-07-13_14h44.34.097,ImageRatingTask_S4,2021.1.4,Win32,60.0240096,,,,,,,,,
,,,,,,,,,,,,,,,,,,13,26,F,R,IMT,2021-07-13_14h44.34.097,ImageRatingTask_S4,2021.1.4,Win32,60.0240096,0,40,40,91,1,DreamStudyImages_rs1000x750g/Vehicles/Objects_293_h.jpg,,,
,,5,4.303,1,0.28,9,3.216,1,0.705,6,2.489,0,0,0,0,1,main,13,26,F,R,IMT,2021-07-13_14h44.34.097,ImageRatingTask_S4,2021.1.4,Win32,60.0240096,,,,,,,,,
,,,,,,,,,,,,0,1,1,1,1,second,13,26,F,R,IMT,2021-07-13_14h44.34.097,ImageRatingTask_S4,2021.1.4,Win32,60.0240096,,,,,,,,,
,,,,,,,,,,,,0,2,2,2,1,third,13,26,F,R,IMT,2021-07-13_14h44.34.097,ImageRatingTask_S4,2021.1.4,Win32,60.0240096,,,,,,,,,
,,,,,,,,,,,,0,3,3,3,1,fourth,13,26,F,R,IMT,2021-07-13_14h44.34.097,ImageRatingTask_S4,2021.1.4,Win32,60.0240096,,,,,,,,,
,,,,,,,,,,,,0,4,4,4,1,fifth,13,26,F,R,IMT,2021-07-13_14h44.34.097,ImageRatingTask_S4,2021.1.4,Win32,60.0240096,,,,,,,,,
,,,,,,,,,,,,0,5,5,5,1,sixth,13,26,F,R,IMT,2021-07-13_14h44.34.097,ImageRatingTask_S4,2021.1.4,Win32,60.0240096,,,,,,,,,
,,,,,,,,,,,,0,6,6,6,1,seventh,13,26,F,R,IMT,2021-07-13_14h44.34.097,ImageRatingTask_S4,2021.1.4,Win32,60.0240096,,,,,,,,,
,,,,,,,,,,,,0,7,7,7,1,last,13,26,F,R,IMT,2021-07-13_14h44.34.097,ImageRatingTask_S4,2021.1.4,Win32,60.0240096,,,,,,,,,
,,,,,,,,,,,,,,,,,,13,26,F,R,IMT,2021-07-13_14h44.34.097,ImageRatingTask_S4,2021.1.4,Win32,60.0240096,0,41,41,127,1,DreamStudyImages_rs1000x750g/Houses/Landscapes_056_h.jpg,,,
,,5,1.773,1,0.116,9,5.18,1,0.653,8,1.658,0,0,0,0,1,main,13,26,F,R,IMT,2021-07-13_14h44.34.097,ImageRatingTask_S4,2021.1.4,Win32,60.0240096,,,,,,,,,
,,,,,,,,,,,,0,1,1,1,1,second,13,26,F,R,IMT,2021-07-13_14h44.34.097,ImageRatingTask_S4,2021.1.4,Win32,60.0240096,,,,,,,,,
,,,,,,,,,,,,0,2,2,2,1,third,13,26,F,R,IMT,2021-07-13_14h44.34.097,ImageRatingTask_S4,2021.1.4,Win32,60.0240096,,,,,,,,,
,,,,,,,,,,,,0,3,3,3,1,fourth,13,26,F,R,IMT,2021-07-13_14h44.34.097,ImageRatingTask_S4,2021.1.4,Win32,60.0240096,,,,,,,,,
,,,,,,,,,,,,0,4,4,4,1,fifth,13,26,F,R,IMT,2021-07-13_14h44.34.097,ImageRatingTask_S4,2021.1.4,Win32,60.0240096,,,,,,,,,
,,,,,,,,,,,,0,5,5,5,1,sixth,13,26,F,R,IMT,2021-07-13_14h44.34.097,ImageRatingTask_S4,2021.1.4,Win32,60.0240096,,,,,,,,,
,,,,,,,,,,,,0,6,6,6,1,seventh,13,26,F,R,IMT,2021-07-13_14h44.34.097,ImageRatingTask_S4,2021.1.4,Win32,60.0240096,,,,,,,,,
,,,,,,,,,,,,0,7,7,7,1,last,13,26,F,R,IMT,2021-07-13_14h44.34.097,ImageRatingTask_S4,2021.1.4,Win32,60.0240096,,,,,,,,,
,,,,,,,,,,,,,,,,,,13,26,F,R,IMT,2021-07-13_14h44.34.097,ImageRatingTask_S4,2021.1.4,Win32,60.0240096,0,42,42,85,1,DreamStudyImages_rs1000x750g/Water/lake_CROPPED.jpg,,,
,,6,2.082,2,0.429,9,1.394,1,0.535,8,1.766,0,0,0,0,1,main,13,26,F,R,IMT,2021-07-13_14h44.34.097,ImageRatingTask_S4,2021.1.4,Win32,60.0240096,,,,,,,,,
,,,,,,,,,,,,0,1,1,1,1,second,13,26,F,R,IMT,2021-07-13_14h44.34.097,ImageRatingTask_S4,2021.1.4,Win32,60.0240096,,,,,,,,,
,,,,,,,,,,,,0,2,2,2,1,third,13,26,F,R,IMT,2021-07-13_14h44.34.097,ImageRatingTask_S4,2021.1.4,Win32,60.0240096,,,,,,,,,
,,,,,,,,,,,,0,3,3,3,1,fourth,13,26,F,R,IMT,2021-07-13_14h44.34.097,ImageRatingTask_S4,2021.1.4,Win32,60.0240096,,,,,,,,,
,,,,,,,,,,,,0,4,4,4,1,fifth,13,26,F,R,IMT,2021-07-13_14h44.34.097,ImageRatingTask_S4,2021.1.4,Win32,60.0240096,,,,,,,,,
,,,,,,,,,,,,0,5,5,5,1,sixth,13,26,F,R,IMT,2021-07-13_14h44.34.097,ImageRatingTask_S4,2021.1.4,Win32,60.0240096,,,,,,,,,
,,,,,,,,,,,,0,6,6,6,1,seventh,13,26,F,R,IMT,2021-07-13_14h44.34.097,ImageRatingTask_S4,2021.1.4,Win32,60.0240096,,,,,,,,,
,,,,,,,,,,,,0,7,7,7,1,last,13,26,F,R,IMT,2021-07-13_14h44.34.097,ImageRatingTask_S4,2021.1.4,Win32,60.0240096,,,,,,,,,
,,,,,,,,,,,,,,,,,,13,26,F,R,IMT,2021-07-13_14h44.34.097,ImageRatingTask_S4,2021.1.4,Win32,60.0240096,0,43,43,4,1,DreamStudyImages_rs1000x750g/Water/Landscapes_121_h.jpg,,,
,,6,1.804,3,0.638,7,2.205,1,0.244,3,1.261,0,0,0,0,1,main,13,26,F,R,IMT,2021-07-13_14h44.34.097,ImageRatingTask_S4,2021.1.4,Win32,60.0240096,,,,,,,,,
,,,,,,,,,,,,0,1,1,1,1,second,13,26,F,R,IMT,2021-07-13_14h44.34.097,ImageRatingTask_S4,2021.1.4,Win32,60.0240096,,,,,,,,,
,,,,,,,,,,,,0,2,2,2,1,third,13,26,F,R,IMT,2021-07-13_14h44.34.097,ImageRatingTask_S4,2021.1.4,Win32,60.0240096,,,,,,,,,
,,,,,,,,,,,,0,3,3,3,1,fourth,13,26,F,R,IMT,2021-07-13_14h44.34.097,ImageRatingTask_S4,2021.1.4,Win32,60.0240096,,,,,,,,,
,,,,,,,,,,,,0,4,4,4,1,fifth,13,26,F,R,IMT,2021-07-13_14h44.34.097,ImageRatingTask_S4,2021.1.4,Win32,60.0240096,,,,,,,,,
,,,,,,,,,,,,0,5,5,5,1,sixth,13,26,F,R,IMT,2021-07-13_14h44.34.097,ImageRatingTask_S4,2021.1.4,Win32,60.0240096,,,,,,,,,
,,,,,,,,,,,,0,6,6,6,1,seventh,13,26,F,R,IMT,2021-07-13_14h44.34.097,ImageRatingTask_S4,2021.1.4,Win32,60.0240096,,,,,,,,,
,,,,,,,,,,,,0,7,7,7,1,last,13,26,F,R,IMT,2021-07-13_14h44.34.097,ImageRatingTask_S4,2021.1.4,Win32,60.0240096,,,,,,,,,
,,,,,,,,,,,,,,,,,,13,26,F,R,IMT,2021-07-13_14h44.34.097,ImageRatingTask_S4,2021.1.4,Win32,60.0240096,0,44,44,57,1,DreamStudyImages_rs1000x750g/Mammals/Horse 1.jpg,,,
,,4,1.71,1,0.434,7,4.918,1,0.591,5,1.602,0,0,0,0,1,main,13,26,F,R,IMT,2021-07-13_14h44.34.097,ImageRatingTask_S4,2021.1.4,Win32,60.0240096,,,,,,,,,
,,,,,,,,,,,,0,1,1,1,1,second,13,26,F,R,IMT,2021-07-13_14h44.34.097,ImageRatingTask_S4,2021.1.4,Win32,60.0240096,,,,,,,,,
,,,,,,,,,,,,0,2,2,2,1,third,13,26,F,R,IMT,2021-07-13_14h44.34.097,ImageRatingTask_S4,2021.1.4,Win32,60.0240096,,,,,,,,,
,,,,,,,,,,,,0,3,3,3,1,fourth,13,26,F,R,IMT,2021-07-13_14h44.34.097,ImageRatingTask_S4,2021.1.4,Win32,60.0240096,,,,,,,,,
,,,,,,,,,,,,0,4,4,4,1,fifth,13,26,F,R,IMT,2021-07-13_14h44.34.097,ImageRatingTask_S4,2021.1.4,Win32,60.0240096,,,,,,,,,
,,,,,,,,,,,,0,5,5,5,1,sixth,13,26,F,R,IMT,2021-07-13_14h44.34.097,ImageRatingTask_S4,2021.1.4,Win32,60.0240096,,,,,,,,,
,,,,,,,,,,,,0,6,6,6,1,seventh,13,26,F,R,IMT,2021-07-13_14h44.34.097,ImageRatingTask_S4,2021.1.4,Win32,60.0240096,,,,,,,,,
,,,,,,,,,,,,0,7,7,7,1,last,13,26,F,R,IMT,2021-07-13_14h44.34.097,ImageRatingTask_S4,2021.1.4,Win32,60.0240096,,,,,,,,,
,,,,,,,,,,,,,,,,,,13,26,F,R,IMT,2021-07-13_14h44.34.097,ImageRatingTask_S4,2021.1.4,Win32,60.0240096,0,45,45,50,1,DreamStudyImages_rs1000x750g/Food/Objects_018_h.jpg,,,
,,5,16.698,3,2.006,8,2.609,1,0.299,3,0.97,0,0,0,0,1,main,13,26,F,R,IMT,2021-07-13_14h44.34.097,ImageRatingTask_S4,2021.1.4,Win32,60.0240096,,,,,,,,,
,,,,,,,,,,,,0,1,1,1,1,second,13,26,F,R,IMT,2021-07-13_14h44.34.097,ImageRatingTask_S4,2021.1.4,Win32,60.0240096,,,,,,,,,
,,,,,,,,,,,,0,2,2,2,1,third,13,26,F,R,IMT,2021-07-13_14h44.34.097,ImageRatingTask_S4,2021.1.4,Win32,60.0240096,,,,,,,,,
,,,,,,,,,,,,0,3,3,3,1,fourth,13,26,F,R,IMT,2021-07-13_14h44.34.097,ImageRatingTask_S4,2021.1.4,Win32,60.0240096,,,,,,,,,
,,,,,,,,,,,,0,4,4,4,1,fifth,13,26,F,R,IMT,2021-07-13_14h44.34.097,ImageRatingTask_S4,2021.1.4,Win32,60.0240096,,,,,,,,,
,,,,,,,,,,,,0,5,5,5,1,sixth,13,26,F,R,IMT,2021-07-13_14h44.34.097,ImageRatingTask_S4,2021.1.4,Win32,60.0240096,,,,,,,,,
,,,,,,,,,,,,0,6,6,6,1,seventh,13,26,F,R,IMT,2021-07-13_14h44.34.097,ImageRatingTask_S4,2021.1.4,Win32,60.0240096,,,,,,,,,
,,,,,,,,,,,,0,7,7,7,1,last,13,26,F,R,IMT,2021-07-13_14h44.34.097,ImageRatingTask_S4,2021.1.4,Win32,60.0240096,,,,,,,,,
,,,,,,,,,,,,,,,,,,13,26,F,R,IMT,2021-07-13_14h44.34.097,ImageRatingTask_S4,2021.1.4,Win32,60.0240096,0,46,46,92,1,DreamStudyImages_rs1000x750g/Mammals/Animals_205_h.jpg,,,
,,5,0.909,1,0.125,9,1.339,1,0.443,6,2.202,0,0,0,0,1,main,13,26,F,R,IMT,2021-07-13_14h44.34.097,ImageRatingTask_S4,2021.1.4,Win32,60.0240096,,,,,,,,,
,,,,,,,,,,,,0,1,1,1,1,second,13,26,F,R,IMT,2021-07-13_14h44.34.097,ImageRatingTask_S4,2021.1.4,Win32,60.0240096,,,,,,,,,
,,,,,,,,,,,,0,2,2,2,1,third,13,26,F,R,IMT,2021-07-13_14h44.34.097,ImageRatingTask_S4,2021.1.4,Win32,60.0240096,,,,,,,,,
,,,,,,,,,,,,0,3,3,3,1,fourth,13,26,F,R,IMT,2021-07-13_14h44.34.097,ImageRatingTask_S4,2021.1.4,Win32,60.0240096,,,,,,,,,
,,,,,,,,,,,,0,4,4,4,1,fifth,13,26,F,R,IMT,2021-07-13_14h44.34.097,ImageRatingTask_S4,2021.1.4,Win32,60.0240096,,,,,,,,,
,,,,,,,,,,,,0,5,5,5,1,sixth,13,26,F,R,IMT,2021-07-13_14h44.34.097,ImageRatingTask_S4,2021.1.4,Win32,60.0240096,,,,,,,,,
,,,,,,,,,,,,0,6,6,6,1,seventh,13,26,F,R,IMT,2021-07-13_14h44.34.097,ImageRatingTask_S4,2021.1.4,Win32,60.0240096,,,,,,,,,
,,,,,,,,,,,,0,7,7,7,1,last,13,26,F,R,IMT,2021-07-13_14h44.34.097,ImageRatingTask_S4,2021.1.4,Win32,60.0240096,,,,,,,,,
,,,,,,,,,,,,,,,,,,13,26,F,R,IMT,2021-07-13_14h44.34.097,ImageRatingTask_S4,2021.1.4,Win32,60.0240096,0,47,47,63,1,DreamStudyImages_rs1000x750g/Houses/Landscapes_050_h.jpg,,,
,,5,2.046,1,0.424,9,0.697,1,0.903,5,0.673,0,0,0,0,1,main,13,26,F,R,IMT,2021-07-13_14h44.34.097,ImageRatingTask_S4,2021.1.4,Win32,60.0240096,,,,,,,,,
,,,,,,,,,,,,0,1,1,1,1,second,13,26,F,R,IMT,2021-07-13_14h44.34.097,ImageRatingTask_S4,2021.1.4,Win32,60.0240096,,,,,,,,,
,,,,,,,,,,,,0,2,2,2,1,third,13,26,F,R,IMT,2021-07-13_14h44.34.097,ImageRatingTask_S4,2021.1.4,Win32,60.0240096,,,,,,,,,
,,,,,,,,,,,,0,3,3,3,1,fourth,13,26,F,R,IMT,2021-07-13_14h44.34.097,ImageRatingTask_S4,2021.1.4,Win32,60.0240096,,,,,,,,,
,,,,,,,,,,,,0,4,4,4,1,fifth,13,26,F,R,IMT,2021-07-13_14h44.34.097,ImageRatingTask_S4,2021.1.4,Win32,60.0240096,,,,,,,,,
,,,,,,,,,,,,0,5,5,5,1,sixth,13,26,F,R,IMT,2021-07-13_14h44.34.097,ImageRatingTask_S4,2021.1.4,Win32,60.0240096,,,,,,,,,
,,,,,,,,,,,,0,6,6,6,1,seventh,13,26,F,R,IMT,2021-07-13_14h44.34.097,ImageRatingTask_S4,2021.1.4,Win32,60.0240096,,,,,,,,,
,,,,,,,,,,,,0,7,7,7,1,last,13,26,F,R,IMT,2021-07-13_14h44.34.097,ImageRatingTask_S4,2021.1.4,Win32,60.0240096,,,,,,,,,
,,,,,,,,,,,,,,,,,,13,26,F,R,IMT,2021-07-13_14h44.34.097,ImageRatingTask_S4,2021.1.4,Win32,60.0240096,0,48,48,98,1,DreamStudyImages_rs1000x750g/Food/food_neg.jpg,,,
,,5,1.543,1,0.919,8,1.35,1,0.432,7,2.784,0,0,0,0,1,main,13,26,F,R,IMT,2021-07-13_14h44.34.097,ImageRatingTask_S4,2021.1.4,Win32,60.0240096,,,,,,,,,
,,,,,,,,,,,,0,1,1,1,1,second,13,26,F,R,IMT,2021-07-13_14h44.34.097,ImageRatingTask_S4,2021.1.4,Win32,60.0240096,,,,,,,,,
,,,,,,,,,,,,0,2,2,2,1,third,13,26,F,R,IMT,2021-07-13_14h44.34.097,ImageRatingTask_S4,2021.1.4,Win32,60.0240096,,,,,,,,,
,,,,,,,,,,,,0,3,3,3,1,fourth,13,26,F,R,IMT,2021-07-13_14h44.34.097,ImageRatingTask_S4,2021.1.4,Win32,60.0240096,,,,,,,,,
,,,,,,,,,,,,0,4,4,4,1,fifth,13,26,F,R,IMT,2021-07-13_14h44.34.097,ImageRatingTask_S4,2021.1.4,Win32,60.0240096,,,,,,,,,
,,,,,,,,,,,,0,5,5,5,1,sixth,13,26,F,R,IMT,2021-07-13_14h44.34.097,ImageRatingTask_S4,2021.1.4,Win32,60.0240096,,,,,,,,,
,,,,,,,,,,,,0,6,6,6,1,seventh,13,26,F,R,IMT,2021-07-13_14h44.34.097,ImageRatingTask_S4,2021.1.4,Win32,60.0240096,,,,,,,,,
,,,,,,,,,,,,0,7,7,7,1,last,13,26,F,R,IMT,2021-07-13_14h44.34.097,ImageRatingTask_S4,2021.1.4,Win32,60.0240096,,,,,,,,,
,,,,,,,,,,,,,,,,,,13,26,F,R,IMT,2021-07-13_14h44.34.097,ImageRatingTask_S4,2021.1.4,Win32,60.0240096,0,49,49,89,1,DreamStudyImages_rs1000x750g/Vehicles/Objects_309_h.jpg,,,
,,5,58.298,1,0.156,9,1.25,1,0.734,5,0.79,0,0,0,0,1,main,13,26,F,R,IMT,2021-07-13_14h44.34.097,ImageRatingTask_S4,2021.1.4,Win32,60.0240096,,,,,,,,,
,,,,,,,,,,,,0,1,1,1,1,second,13,26,F,R,IMT,2021-07-13_14h44.34.097,ImageRatingTask_S4,2021.1.4,Win32,60.0240096,,,,,,,,,
,,,,,,,,,,,,0,2,2,2,1,third,13,26,F,R,IMT,2021-07-13_14h44.34.097,ImageRatingTask_S4,2021.1.4,Win32,60.0240096,,,,,,,,,
,,,,,,,,,,,,0,3,3,3,1,fourth,13,26,F,R,IMT,2021-07-13_14h44.34.097,ImageRatingTask_S4,2021.1.4,Win32,60.0240096,,,,,,,,,
,,,,,,,,,,,,0,4,4,4,1,fifth,13,26,F,R,IMT,2021-07-13_14h44.34.097,ImageRatingTask_S4,2021.1.4,Win32,60.0240096,,,,,,,,,
,,,,,,,,,,,,0,5,5,5,1,sixth,13,26,F,R,IMT,2021-07-13_14h44.34.097,ImageRatingTask_S4,2021.1.4,Win32,60.0240096,,,,,,,,,
,,,,,,,,,,,,0,6,6,6,1,seventh,13,26,F,R,IMT,2021-07-13_14h44.34.097,ImageRatingTask_S4,2021.1.4,Win32,60.0240096,,,,,,,,,
,,,,,,,,,,,,0,7,7,7,1,last,13,26,F,R,IMT,2021-07-13_14h44.34.097,ImageRatingTask_S4,2021.1.4,Win32,60.0240096,,,,,,,,,
,,,,,,,,,,,,,,,,,,13,26,F,R,IMT,2021-07-13_14h44.34.097,ImageRatingTask_S4,2021.1.4,Win32,60.0240096,0,50,50,149,1,DreamStudyImages_rs1000x750g/Food/Food 1.jpg,,,
,,5,0.743,1,0.282,9,2.455,1,0.706,5,0.509,0,0,0,0,1,main,13,26,F,R,IMT,2021-07-13_14h44.34.097,ImageRatingTask_S4,2021.1.4,Win32,60.0240096,,,,,,,,,
,,,,,,,,,,,,0,1,1,1,1,second,13,26,F,R,IMT,2021-07-13_14h44.34.097,ImageRatingTask_S4,2021.1.4,Win32,60.0240096,,,,,,,,,
,,,,,,,,,,,,0,2,2,2,1,third,13,26,F,R,IMT,2021-07-13_14h44.34.097,ImageRatingTask_S4,2021.1.4,Win32,60.0240096,,,,,,,,,
,,,,,,,,,,,,0,3,3,3,1,fourth,13,26,F,R,IMT,2021-07-13_14h44.34.097,ImageRatingTask_S4,2021.1.4,Win32,60.0240096,,,,,,,,,
,,,,,,,,,,,,0,4,4,4,1,fifth,13,26,F,R,IMT,2021-07-13_14h44.34.097,ImageRatingTask_S4,2021.1.4,Win32,60.0240096,,,,,,,,,
,,,,,,,,,,,,0,5,5,5,1,sixth,13,26,F,R,IMT,2021-07-13_14h44.34.097,ImageRatingTask_S4,2021.1.4,Win32,60.0240096,,,,,,,,,
,,,,,,,,,,,,0,6,6,6,1,seventh,13,26,F,R,IMT,2021-07-13_14h44.34.097,ImageRatingTask_S4,2021.1.4,Win32,60.0240096,,,,,,,,,
,,,,,,,,,,,,0,7,7,7,1,last,13,26,F,R,IMT,2021-07-13_14h44.34.097,ImageRatingTask_S4,2021.1.4,Win32,60.0240096,,,,,,,,,
,,,,,,,,,,,,,,,,,,13,26,F,R,IMT,2021-07-13_14h44.34.097,ImageRatingTask_S4,2021.1.4,Win32,60.0240096,0,51,51,60,1,DreamStudyImages_rs1000x750g/Food/Objects_093_h.jpg,,,
,,6,1.893,4,1.166,8,1.673,1,0.372,3,1.004,0,0,0,0,1,main,13,26,F,R,IMT,2021-07-13_14h44.34.097,ImageRatingTask_S4,2021.1.4,Win32,60.0240096,,,,,,,,,
,,,,,,,,,,,,0,1,1,1,1,second,13,26,F,R,IMT,2021-07-13_14h44.34.097,ImageRatingTask_S4,2021.1.4,Win32,60.0240096,,,,,,,,,
,,,,,,,,,,,,0,2,2,2,1,third,13,26,F,R,IMT,2021-07-13_14h44.34.097,ImageRatingTask_S4,2021.1.4,Win32,60.0240096,,,,,,,,,
,,,,,,,,,,,,0,3,3,3,1,fourth,13,26,F,R,IMT,2021-07-13_14h44.34.097,ImageRatingTask_S4,2021.1.4,Win32,60.0240096,,,,,,,,,
,,,,,,,,,,,,0,4,4,4,1,fifth,13,26,F,R,IMT,2021-07-13_14h44.34.097,ImageRatingTask_S4,2021.1.4,Win32,60.0240096,,,,,,,,,
,,,,,,,,,,,,0,5,5,5,1,sixth,13,26,F,R,IMT,2021-07-13_14h44.34.097,ImageRatingTask_S4,2021.1.4,Win32,60.0240096,,,,,,,,,
,,,,,,,,,,,,0,6,6,6,1,seventh,13,26,F,R,IMT,2021-07-13_14h44.34.097,ImageRatingTask_S4,2021.1.4,Win32,60.0240096,,,,,,,,,
,,,,,,,,,,,,0,7,7,7,1,last,13,26,F,R,IMT,2021-07-13_14h44.34.097,ImageRatingTask_S4,2021.1.4,Win32,60.0240096,,,,,,,,,
,,,,,,,,,,,,,,,,,,13,26,F,R,IMT,2021-07-13_14h44.34.097,ImageRatingTask_S4,2021.1.4,Win32,60.0240096,0,52,52,5,1,DreamStudyImages_rs1000x750g/Mammals/Animals_158_h.jpg,,,
,,3,2.68,5,0.86,8,2.331,1,0.546,6,1.386,0,0,0,0,1,main,13,26,F,R,IMT,2021-07-13_14h44.34.097,ImageRatingTask_S4,2021.1.4,Win32,60.0240096,,,,,,,,,
,,,,,,,,,,,,0,1,1,1,1,second,13,26,F,R,IMT,2021-07-13_14h44.34.097,ImageRatingTask_S4,2021.1.4,Win32,60.0240096,,,,,,,,,
,,,,,,,,,,,,0,2,2,2,1,third,13,26,F,R,IMT,2021-07-13_14h44.34.097,ImageRatingTask_S4,2021.1.4,Win32,60.0240096,,,,,,,,,
,,,,,,,,,,,,0,3,3,3,1,fourth,13,26,F,R,IMT,2021-07-13_14h44.34.097,ImageRatingTask_S4,2021.1.4,Win32,60.0240096,,,,,,,,,
,,,,,,,,,,,,0,4,4,4,1,fifth,13,26,F,R,IMT,2021-07-13_14h44.34.097,ImageRatingTask_S4,2021.1.4,Win32,60.0240096,,,,,,,,,
,,,,,,,,,,,,0,5,5,5,1,sixth,13,26,F,R,IMT,2021-07-13_14h44.34.097,ImageRatingTask_S4,2021.1.4,Win32,60.0240096,,,,,,,,,
,,,,,,,,,,,,0,6,6,6,1,seventh,13,26,F,R,IMT,2021-07-13_14h44.34.097,ImageRatingTask_S4,2021.1.4,Win32,60.0240096,,,,,,,,,
,,,,,,,,,,,,0,7,7,7,1,last,13,26,F,R,IMT,2021-07-13_14h44.34.097,ImageRatingTask_S4,2021.1.4,Win32,60.0240096,,,,,,,,,
,,,,,,,,,,,,,,,,,,13,26,F,R,IMT,2021-07-13_14h44.34.097,ImageRatingTask_S4,2021.1.4,Win32,60.0240096,0,53,53,142,1,DreamStudyImages_rs1000x750g/Houses/Landscapes_011_h.jpg,,,
,,4,57.358,5,0.485,6,1.954,1,0.895,2,0.737,0,0,0,0,1,main,13,26,F,R,IMT,2021-07-13_14h44.34.097,ImageRatingTask_S4,2021.1.4,Win32,60.0240096,,,,,,,,,
,,,,,,,,,,,,0,1,1,1,1,second,13,26,F,R,IMT,2021-07-13_14h44.34.097,ImageRatingTask_S4,2021.1.4,Win32,60.0240096,,,,,,,,,
,,,,,,,,,,,,0,2,2,2,1,third,13,26,F,R,IMT,2021-07-13_14h44.34.097,ImageRatingTask_S4,2021.1.4,Win32,60.0240096,,,,,,,,,
,,,,,,,,,,,,0,3,3,3,1,fourth,13,26,F,R,IMT,2021-07-13_14h44.34.097,ImageRatingTask_S4,2021.1.4,Win32,60.0240096,,,,,,,,,
,,,,,,,,,,,,0,4,4,4,1,fifth,13,26,F,R,IMT,2021-07-13_14h44.34.097,ImageRatingTask_S4,2021.1.4,Win32,60.0240096,,,,,,,,,
,,,,,,,,,,,,0,5,5,5,1,sixth,13,26,F,R,IMT,2021-07-13_14h44.34.097,ImageRatingTask_S4,2021.1.4,Win32,60.0240096,,,,,,,,,
,,,,,,,,,,,,0,6,6,6,1,seventh,13,26,F,R,IMT,2021-07-13_14h44.34.097,ImageRatingTask_S4,2021.1.4,Win32,60.0240096,,,,,,,,,
,,,,,,,,,,,,0,7,7,7,1,last,13,26,F,R,IMT,2021-07-13_14h44.34.097,ImageRatingTask_S4,2021.1.4,Win32,60.0240096,,,,,,,,,
,,,,,,,,,,,,,,,,,,13,26,F,R,IMT,2021-07-13_14h44.34.097,ImageRatingTask_S4,2021.1.4,Win32,60.0240096,0,54,54,108,1,DreamStudyImages_rs1000x750g/Children/IAPS2810_boy11.jpg,,,
,,5,2.872,1,0.154,8,1.191,1,0.539,8,2.637,0,0,0,0,1,main,13,26,F,R,IMT,2021-07-13_14h44.34.097,ImageRatingTask_S4,2021.1.4,Win32,60.0240096,,,,,,,,,
,,,,,,,,,,,,0,1,1,1,1,second,13,26,F,R,IMT,2021-07-13_14h44.34.097,ImageRatingTask_S4,2021.1.4,Win32,60.0240096,,,,,,,,,
,,,,,,,,,,,,0,2,2,2,1,third,13,26,F,R,IMT,2021-07-13_14h44.34.097,ImageRatingTask_S4,2021.1.4,Win32,60.0240096,,,,,,,,,
,,,,,,,,,,,,0,3,3,3,1,fourth,13,26,F,R,IMT,2021-07-13_14h44.34.097,ImageRatingTask_S4,2021.1.4,Win32,60.0240096,,,,,,,,,
,,,,,,,,,,,,0,4,4,4,1,fifth,13,26,F,R,IMT,2021-07-13_14h44.34.097,ImageRatingTask_S4,2021.1.4,Win32,60.0240096,,,,,,,,,
,,,,,,,,,,,,0,5,5,5,1,sixth,13,26,F,R,IMT,2021-07-13_14h44.34.097,ImageRatingTask_S4,2021.1.4,Win32,60.0240096,,,,,,,,,
,,,,,,,,,,,,0,6,6,6,1,seventh,13,26,F,R,IMT,2021-07-13_14h44.34.097,ImageRatingTask_S4,2021.1.4,Win32,60.0240096,,,,,,,,,
,,,,,,,,,,,,0,7,7,7,1,last,13,26,F,R,IMT,2021-07-13_14h44.34.097,ImageRatingTask_S4,2021.1.4,Win32,60.0240096,,,,,,,,,
,,,,,,,,,,,,,,,,,,13,26,F,R,IMT,2021-07-13_14h44.34.097,ImageRatingTask_S4,2021.1.4,Win32,60.0240096,0,55,55,46,1,DreamStudyImages_rs1000x750g/Water/Landscapes_111_h.jpg,,,
,,3,1.498,4,1.098,9,3.739,1,0.443,3,1.127,0,0,0,0,1,main,13,26,F,R,IMT,2021-07-13_14h44.34.097,ImageRatingTask_S4,2021.1.4,Win32,60.0240096,,,,,,,,,
,,,,,,,,,,,,0,1,1,1,1,second,13,26,F,R,IMT,2021-07-13_14h44.34.097,ImageRatingTask_S4,2021.1.4,Win32,60.0240096,,,,,,,,,
,,,,,,,,,,,,0,2,2,2,1,third,13,26,F,R,IMT,2021-07-13_14h44.34.097,ImageRatingTask_S4,2021.1.4,Win32,60.0240096,,,,,,,,,
,,,,,,,,,,,,0,3,3,3,1,fourth,13,26,F,R,IMT,2021-07-13_14h44.34.097,ImageRatingTask_S4,2021.1.4,Win32,60.0240096,,,,,,,,,
,,,,,,,,,,,,0,4,4,4,1,fifth,13,26,F,R,IMT,2021-07-13_14h44.34.097,ImageRatingTask_S4,2021.1.4,Win32,60.0240096,,,,,,,,,
,,,,,,,,,,,,0,5,5,5,1,sixth,13,26,F,R,IMT,2021-07-13_14h44.34.097,ImageRatingTask_S4,2021.1.4,Win32,60.0240096,,,,,,,,,
,,,,,,,,,,,,0,6,6,6,1,seventh,13,26,F,R,IMT,2021-07-13_14h44.34.097,ImageRatingTask_S4,2021.1.4,Win32,60.0240096,,,,,,,,,
,,,,,,,,,,,,0,7,7,7,1,last,13,26,F,R,IMT,2021-07-13_14h44.34.097,ImageRatingTask_S4,2021.1.4,Win32,60.0240096,,,,,,,,,
,,,,,,,,,,,,,,,,,,13,26,F,R,IMT,2021-07-13_14h44.34.097,ImageRatingTask_S4,2021.1.4,Win32,60.0240096,0,56,56,74,1,DreamStudyImages_rs1000x750g/Mammals/Animals_061_h.jpg,,,
,,6,195.996,2,0.801,9,1.103,1,0.452,2,0.693,0,0,0,0,1,main,13,26,F,R,IMT,2021-07-13_14h44.34.097,ImageRatingTask_S4,2021.1.4,Win32,60.0240096,,,,,,,,,
,,,,,,,,,,,,0,1,1,1,1,second,13,26,F,R,IMT,2021-07-13_14h44.34.097,ImageRatingTask_S4,2021.1.4,Win32,60.0240096,,,,,,,,,
,,,,,,,,,,,,0,2,2,2,1,third,13,26,F,R,IMT,2021-07-13_14h44.34.097,ImageRatingTask_S4,2021.1.4,Win32,60.0240096,,,,,,,,,
,,,,,,,,,,,,0,3,3,3,1,fourth,13,26,F,R,IMT,2021-07-13_14h44.34.097,ImageRatingTask_S4,2021.1.4,Win32,60.0240096,,,,,,,,,
,,,,,,,,,,,,0,4,4,4,1,fifth,13,26,F,R,IMT,2021-07-13_14h44.34.097,ImageRatingTask_S4,2021.1.4,Win32,60.0240096,,,,,,,,,
,,,,,,,,,,,,0,5,5,5,1,sixth,13,26,F,R,IMT,2021-07-13_14h44.34.097,ImageRatingTask_S4,2021.1.4,Win32,60.0240096,,,,,,,,,
,,,,,,,,,,,,0,6,6,6,1,seventh,13,26,F,R,IMT,2021-07-13_14h44.34.097,ImageRatingTask_S4,2021.1.4,Win32,60.0240096,,,,,,,,,
,,,,,,,,,,,,0,7,7,7,1,last,13,26,F,R,IMT,2021-07-13_14h44.34.097,ImageRatingTask_S4,2021.1.4,Win32,60.0240096,,,,,,,,,
,,,,,,,,,,,,,,,,,,13,26,F,R,IMT,2021-07-13_14h44.34.097,ImageRatingTask_S4,2021.1.4,Win32,60.0240096,0,57,57,112,1,DreamStudyImages_rs1000x750g/Children/Tickling 1.jpg,,,
,,5,1.328,1,0.336,9,1.65,1,0.644,2,0.304,0,0,0,0,1,main,13,26,F,R,IMT,2021-07-13_14h44.34.097,ImageRatingTask_S4,2021.1.4,Win32,60.0240096,,,,,,,,,
,,,,,,,,,,,,0,1,1,1,1,second,13,26,F,R,IMT,2021-07-13_14h44.34.097,ImageRatingTask_S4,2021.1.4,Win32,60.0240096,,,,,,,,,
,,,,,,,,,,,,0,2,2,2,1,third,13,26,F,R,IMT,2021-07-13_14h44.34.097,ImageRatingTask_S4,2021.1.4,Win32,60.0240096,,,,,,,,,
,,,,,,,,,,,,0,3,3,3,1,fourth,13,26,F,R,IMT,2021-07-13_14h44.34.097,ImageRatingTask_S4,2021.1.4,Win32,60.0240096,,,,,,,,,
,,,,,,,,,,,,0,4,4,4,1,fifth,13,26,F,R,IMT,2021-07-13_14h44.34.097,ImageRatingTask_S4,2021.1.4,Win32,60.0240096,,,,,,,,,
,,,,,,,,,,,,0,5,5,5,1,sixth,13,26,F,R,IMT,2021-07-13_14h44.34.097,ImageRatingTask_S4,2021.1.4,Win32,60.0240096,,,,,,,,,
,,,,,,,,,,,,0,6,6,6,1,seventh,13,26,F,R,IMT,2021-07-13_14h44.34.097,ImageRatingTask_S4,2021.1.4,Win32,60.0240096,,,,,,,,,
,,,,,,,,,,,,0,7,7,7,1,last,13,26,F,R,IMT,2021-07-13_14h44.34.097,ImageRatingTask_S4,2021.1.4,Win32,60.0240096,,,,,,,,,
,,,,,,,,,,,,,,,,,,13,26,F,R,IMT,2021-07-13_14h44.34.097,ImageRatingTask_S4,2021.1.4,Win32,60.0240096,0,58,58,111,1,DreamStudyImages_rs1000x750g/Children/Sad face 5.jpg,,,
,,2,1.61,8,0.646,9,1.812,1,0.247,7,2.271,0,0,0,0,1,main,13,26,F,R,IMT,2021-07-13_14h44.34.097,ImageRatingTask_S4,2021.1.4,Win32,60.0240096,,,,,,,,,
,,,,,,,,,,,,0,1,1,1,1,second,13,26,F,R,IMT,2021-07-13_14h44.34.097,ImageRatingTask_S4,2021.1.4,Win32,60.0240096,,,,,,,,,
,,,,,,,,,,,,0,2,2,2,1,third,13,26,F,R,IMT,2021-07-13_14h44.34.097,ImageRatingTask_S4,2021.1.4,Win32,60.0240096,,,,,,,,,
,,,,,,,,,,,,0,3,3,3,1,fourth,13,26,F,R,IMT,2021-07-13_14h44.34.097,ImageRatingTask_S4,2021.1.4,Win32,60.0240096,,,,,,,,,
,,,,,,,,,,,,0,4,4,4,1,fifth,13,26,F,R,IMT,2021-07-13_14h44.34.097,ImageRatingTask_S4,2021.1.4,Win32,60.0240096,,,,,,,,,
,,,,,,,,,,,,0,5,5,5,1,sixth,13,26,F,R,IMT,2021-07-13_14h44.34.097,ImageRatingTask_S4,2021.1.4,Win32,60.0240096,,,,,,,,,
,,,,,,,,,,,,0,6,6,6,1,seventh,13,26,F,R,IMT,2021-07-13_14h44.34.097,ImageRatingTask_S4,2021.1.4,Win32,60.0240096,,,,,,,,,
,,,,,,,,,,,,0,7,7,7,1,last,13,26,F,R,IMT,2021-07-13_14h44.34.097,ImageRatingTask_S4,2021.1.4,Win32,60.0240096,,,,,,,,,
,,,,,,,,,,,,,,,,,,13,26,F,R,IMT,2021-07-13_14h44.34.097,ImageRatingTask_S4,2021.1.4,Win32,60.0240096,0,59,59,14,1,DreamStudyImages_rs1000x750g/Vehicles/Objects_003_h.jpg,,,
,,5,2.248,1,0.428,7,2.062,1,0.853,7,0.885,0,0,0,0,1,main,13,26,F,R,IMT,2021-07-13_14h44.34.097,ImageRatingTask_S4,2021.1.4,Win32,60.0240096,,,,,,,,,
,,,,,,,,,,,,0,1,1,1,1,second,13,26,F,R,IMT,2021-07-13_14h44.34.097,ImageRatingTask_S4,2021.1.4,Win32,60.0240096,,,,,,,,,
,,,,,,,,,,,,0,2,2,2,1,third,13,26,F,R,IMT,2021-07-13_14h44.34.097,ImageRatingTask_S4,2021.1.4,Win32,60.0240096,,,,,,,,,
,,,,,,,,,,,,0,3,3,3,1,fourth,13,26,F,R,IMT,2021-07-13_14h44.34.097,ImageRatingTask_S4,2021.1.4,Win32,60.0240096,,,,,,,,,
,,,,,,,,,,,,0,4,4,4,1,fifth,13,26,F,R,IMT,2021-07-13_14h44.34.097,ImageRatingTask_S4,2021.1.4,Win32,60.0240096,,,,,,,,,
,,,,,,,,,,,,0,5,5,5,1,sixth,13,26,F,R,IMT,2021-07-13_14h44.34.097,ImageRatingTask_S4,2021.1.4,Win32,60.0240096,,,,,,,,,
,,,,,,,,,,,,0,6,6,6,1,seventh,13,26,F,R,IMT,2021-07-13_14h44.34.097,ImageRatingTask_S4,2021.1.4,Win32,60.0240096,,,,,,,,,
,,,,,,,,,,,,0,7,7,7,1,last,13,26,F,R,IMT,2021-07-13_14h44.34.097,ImageRatingTask_S4,2021.1.4,Win32,60.0240096,,,,,,,,,
,,,,,,,,,,,,,,,,,,13,26,F,R,IMT,2021-07-13_14h44.34.097,ImageRatingTask_S4,2021.1.4,Win32,60.0240096,0,60,60,31,1,DreamStudyImages_rs1000x750g/Vehicles/Car 2.jpg,,,
,,6,2.109,2,0.399,8,3.076,1,0.357,3,0.78,0,0,0,0,1,main,13,26,F,R,IMT,2021-07-13_14h44.34.097,ImageRatingTask_S4,2021.1.4,Win32,60.0240096,,,,,,,,,
,,,,,,,,,,,,0,1,1,1,1,second,13,26,F,R,IMT,2021-07-13_14h44.34.097,ImageRatingTask_S4,2021.1.4,Win32,60.0240096,,,,,,,,,
,,,,,,,,,,,,0,2,2,2,1,third,13,26,F,R,IMT,2021-07-13_14h44.34.097,ImageRatingTask_S4,2021.1.4,Win32,60.0240096,,,,,,,,,
,,,,,,,,,,,,0,3,3,3,1,fourth,13,26,F,R,IMT,2021-07-13_14h44.34.097,ImageRatingTask_S4,2021.1.4,Win32,60.0240096,,,,,,,,,
,,,,,,,,,,,,0,4,4,4,1,fifth,13,26,F,R,IMT,2021-07-13_14h44.34.097,ImageRatingTask_S4,2021.1.4,Win32,60.0240096,,,,,,,,,
,,,,,,,,,,,,0,5,5,5,1,sixth,13,26,F,R,IMT,2021-07-13_14h44.34.097,ImageRatingTask_S4,2021.1.4,Win32,60.0240096,,,,,,,,,
,,,,,,,,,,,,0,6,6,6,1,seventh,13,26,F,R,IMT,2021-07-13_14h44.34.097,ImageRatingTask_S4,2021.1.4,Win32,60.0240096,,,,,,,,,
,,,,,,,,,,,,0,7,7,7,1,last,13,26,F,R,IMT,2021-07-13_14h44.34.097,ImageRatingTask_S4,2021.1.4,Win32,60.0240096,,,,,,,,,
,,,,,,,,,,,,,,,,,,13,26,F,R,IMT,2021-07-13_14h44.34.097,ImageRatingTask_S4,2021.1.4,Win32,60.0240096,0,61,61,66,1,DreamStudyImages_rs1000x750g/Mammals/Pig 1.jpg,,,
,,3,2.05,7,2.512,9,3.626,1,0.314,8,2.377,0,0,0,0,1,main,13,26,F,R,IMT,2021-07-13_14h44.34.097,ImageRatingTask_S4,2021.1.4,Win32,60.0240096,,,,,,,,,
,,,,,,,,,,,,0,1,1,1,1,second,13,26,F,R,IMT,2021-07-13_14h44.34.097,ImageRatingTask_S4,2021.1.4,Win32,60.0240096,,,,,,,,,
,,,,,,,,,,,,0,2,2,2,1,third,13,26,F,R,IMT,2021-07-13_14h44.34.097,ImageRatingTask_S4,2021.1.4,Win32,60.0240096,,,,,,,,,
,,,,,,,,,,,,0,3,3,3,1,fourth,13,26,F,R,IMT,2021-07-13_14h44.34.097,ImageRatingTask_S4,2021.1.4,Win32,60.0240096,,,,,,,,,
,,,,,,,,,,,,0,4,4,4,1,fifth,13,26,F,R,IMT,2021-07-13_14h44.34.097,ImageRatingTask_S4,2021.1.4,Win32,60.0240096,,,,,,,,,
,,,,,,,,,,,,0,5,5,5,1,sixth,13,26,F,R,IMT,2021-07-13_14h44.34.097,ImageRatingTask_S4,2021.1.4,Win32,60.0240096,,,,,,,,,
,,,,,,,,,,,,0,6,6,6,1,seventh,13,26,F,R,IMT,2021-07-13_14h44.34.097,ImageRatingTask_S4,2021.1.4,Win32,60.0240096,,,,,,,,,
,,,,,,,,,,,,0,7,7,7,1,last,13,26,F,R,IMT,2021-07-13_14h44.34.097,ImageRatingTask_S4,2021.1.4,Win32,60.0240096,,,,,,,,,
,,,,,,,,,,,,,,,,,,13,26,F,R,IMT,2021-07-13_14h44.34.097,ImageRatingTask_S4,2021.1.4,Win32,60.0240096,0,62,62,13,1,DreamStudyImages_rs1000x750g/Water/89.jpg,,,
,,4,4.017,3,0.814,9,5.269,1,0.545,7,0.992,0,0,0,0,1,main,13,26,F,R,IMT,2021-07-13_14h44.34.097,ImageRatingTask_S4,2021.1.4,Win32,60.0240096,,,,,,,,,
,,,,,,,,,,,,0,1,1,1,1,second,13,26,F,R,IMT,2021-07-13_14h44.34.097,ImageRatingTask_S4,2021.1.4,Win32,60.0240096,,,,,,,,,
,,,,,,,,,,,,0,2,2,2,1,third,13,26,F,R,IMT,2021-07-13_14h44.34.097,ImageRatingTask_S4,2021.1.4,Win32,60.0240096,,,,,,,,,
,,,,,,,,,,,,0,3,3,3,1,fourth,13,26,F,R,IMT,2021-07-13_14h44.34.097,ImageRatingTask_S4,2021.1.4,Win32,60.0240096,,,,,,,,,
,,,,,,,,,,,,0,4,4,4,1,fifth,13,26,F,R,IMT,2021-07-13_14h44.34.097,ImageRatingTask_S4,2021.1.4,Win32,60.0240096,,,,,,,,,
,,,,,,,,,,,,0,5,5,5,1,sixth,13,26,F,R,IMT,2021-07-13_14h44.34.097,ImageRatingTask_S4,2021.1.4,Win32,60.0240096,,,,,,,,,
,,,,,,,,,,,,0,6,6,6,1,seventh,13,26,F,R,IMT,2021-07-13_14h44.34.097,ImageRatingTask_S4,2021.1.4,Win32,60.0240096,,,,,,,,,
,,,,,,,,,,,,0,7,7,7,1,last,13,26,F,R,IMT,2021-07-13_14h44.34.097,ImageRatingTask_S4,2021.1.4,Win32,60.0240096,,,,,,,,,
,,,,,,,,,,,,,,,,,,13,26,F,R,IMT,2021-07-13_14h44.34.097,ImageRatingTask_S4,2021.1.4,Win32,60.0240096,0,63,63,79,1,DreamStudyImages_rs1000x750g/Vehicles/Objects_286_h.jpg,,,
,,5,3.221,1,0.252,9,3.86,1,0.489,7,3.848,0,0,0,0,1,main,13,26,F,R,IMT,2021-07-13_14h44.34.097,ImageRatingTask_S4,2021.1.4,Win32,60.0240096,,,,,,,,,
,,,,,,,,,,,,0,1,1,1,1,second,13,26,F,R,IMT,2021-07-13_14h44.34.097,ImageRatingTask_S4,2021.1.4,Win32,60.0240096,,,,,,,,,
,,,,,,,,,,,,0,2,2,2,1,third,13,26,F,R,IMT,2021-07-13_14h44.34.097,ImageRatingTask_S4,2021.1.4,Win32,60.0240096,,,,,,,,,
,,,,,,,,,,,,0,3,3,3,1,fourth,13,26,F,R,IMT,2021-07-13_14h44.34.097,ImageRatingTask_S4,2021.1.4,Win32,60.0240096,,,,,,,,,
,,,,,,,,,,,,0,4,4,4,1,fifth,13,26,F,R,IMT,2021-07-13_14h44.34.097,ImageRatingTask_S4,2021.1.4,Win32,60.0240096,,,,,,,,,
,,,,,,,,,,,,0,5,5,5,1,sixth,13,26,F,R,IMT,2021-07-13_14h44.34.097,ImageRatingTask_S4,2021.1.4,Win32,60.0240096,,,,,,,,,
,,,,,,,,,,,,0,6,6,6,1,seventh,13,26,F,R,IMT,2021-07-13_14h44.34.097,ImageRatingTask_S4,2021.1.4,Win32,60.0240096,,,,,,,,,
,,,,,,,,,,,,0,7,7,7,1,last,13,26,F,R,IMT,2021-07-13_14h44.34.097,ImageRatingTask_S4,2021.1.4,Win32,60.0240096,,,,,,,,,
,,,,,,,,,,,,,,,,,,13,26,F,R,IMT,2021-07-13_14h44.34.097,ImageRatingTask_S4,2021.1.4,Win32,60.0240096,0,64,64,152,1,DreamStudyImages_rs1000x750g/Vehicles/Objects_291_h.jpg,,,
,,5,8.846,1,0.694,9,1.184,1,0.384,5,1.499,0,0,0,0,1,main,13,26,F,R,IMT,2021-07-13_14h44.34.097,ImageRatingTask_S4,2021.1.4,Win32,60.0240096,,,,,,,,,
,,,,,,,,,,,,0,1,1,1,1,second,13,26,F,R,IMT,2021-07-13_14h44.34.097,ImageRatingTask_S4,2021.1.4,Win32,60.0240096,,,,,,,,,
,,,,,,,,,,,,0,2,2,2,1,third,13,26,F,R,IMT,2021-07-13_14h44.34.097,ImageRatingTask_S4,2021.1.4,Win32,60.0240096,,,,,,,,,
,,,,,,,,,,,,0,3,3,3,1,fourth,13,26,F,R,IMT,2021-07-13_14h44.34.097,ImageRatingTask_S4,2021.1.4,Win32,60.0240096,,,,,,,,,
,,,,,,,,,,,,0,4,4,4,1,fifth,13,26,F,R,IMT,2021-07-13_14h44.34.097,ImageRatingTask_S4,2021.1.4,Win32,60.0240096,,,,,,,,,
,,,,,,,,,,,,0,5,5,5,1,sixth,13,26,F,R,IMT,2021-07-13_14h44.34.097,ImageRatingTask_S4,2021.1.4,Win32,60.0240096,,,,,,,,,
,,,,,,,,,,,,0,6,6,6,1,seventh,13,26,F,R,IMT,2021-07-13_14h44.34.097,ImageRatingTask_S4,2021.1.4,Win32,60.0240096,,,,,,,,,
,,,,,,,,,,,,0,7,7,7,1,last,13,26,F,R,IMT,2021-07-13_14h44.34.097,ImageRatingTask_S4,2021.1.4,Win32,60.0240096,,,,,,,,,
,,,,,,,,,,,,,,,,,,13,26,F,R,IMT,2021-07-13_14h44.34.097,ImageRatingTask_S4,2021.1.4,Win32,60.0240096,0,65,65,95,1,DreamStudyImages_rs1000x750g/Food/Objects_061_h.jpg,,,
,,2,85.197,6,0.866,9,1.649,1,1.036,7,2.323,0,0,0,0,1,main,13,26,F,R,IMT,2021-07-13_14h44.34.097,ImageRatingTask_S4,2021.1.4,Win32,60.0240096,,,,,,,,,
,,,,,,,,,,,,0,1,1,1,1,second,13,26,F,R,IMT,2021-07-13_14h44.34.097,ImageRatingTask_S4,2021.1.4,Win32,60.0240096,,,,,,,,,
,,,,,,,,,,,,0,2,2,2,1,third,13,26,F,R,IMT,2021-07-13_14h44.34.097,ImageRatingTask_S4,2021.1.4,Win32,60.0240096,,,,,,,,,
,,,,,,,,,,,,0,3,3,3,1,fourth,13,26,F,R,IMT,2021-07-13_14h44.34.097,ImageRatingTask_S4,2021.1.4,Win32,60.0240096,,,,,,,,,
,,,,,,,,,,,,0,4,4,4,1,fifth,13,26,F,R,IMT,2021-07-13_14h44.34.097,ImageRatingTask_S4,2021.1.4,Win32,60.0240096,,,,,,,,,
,,,,,,,,,,,,0,5,5,5,1,sixth,13,26,F,R,IMT,2021-07-13_14h44.34.097,ImageRatingTask_S4,2021.1.4,Win32,60.0240096,,,,,,,,,
,,,,,,,,,,,,0,6,6,6,1,seventh,13,26,F,R,IMT,2021-07-13_14h44.34.097,ImageRatingTask_S4,2021.1.4,Win32,60.0240096,,,,,,,,,
,,,,,,,,,,,,0,7,7,7,1,last,13,26,F,R,IMT,2021-07-13_14h44.34.097,ImageRatingTask_S4,2021.1.4,Win32,60.0240096,,,,,,,,,
,,,,,,,,,,,,,,,,,,13,26,F,R,IMT,2021-07-13_14h44.34.097,ImageRatingTask_S4,2021.1.4,Win32,60.0240096,0,66,66,28,1,DreamStudyImages_rs1000x750g/Vehicles/Objects_004_h.jpg,,,
,,6,2.617,3,0.896,7,1.814,1,0.397,8,1.339,0,0,0,0,1,main,13,26,F,R,IMT,2021-07-13_14h44.34.097,ImageRatingTask_S4,2021.1.4,Win32,60.0240096,,,,,,,,,
,,,,,,,,,,,,0,1,1,1,1,second,13,26,F,R,IMT,2021-07-13_14h44.34.097,ImageRatingTask_S4,2021.1.4,Win32,60.0240096,,,,,,,,,
,,,,,,,,,,,,0,2,2,2,1,third,13,26,F,R,IMT,2021-07-13_14h44.34.097,ImageRatingTask_S4,2021.1.4,Win32,60.0240096,,,,,,,,,
,,,,,,,,,,,,0,3,3,3,1,fourth,13,26,F,R,IMT,2021-07-13_14h44.34.097,ImageRatingTask_S4,2021.1.4,Win32,60.0240096,,,,,,,,,
,,,,,,,,,,,,0,4,4,4,1,fifth,13,26,F,R,IMT,2021-07-13_14h44.34.097,ImageRatingTask_S4,2021.1.4,Win32,60.0240096,,,,,,,,,
,,,,,,,,,,,,0,5,5,5,1,sixth,13,26,F,R,IMT,2021-07-13_14h44.34.097,ImageRatingTask_S4,2021.1.4,Win32,60.0240096,,,,,,,,,
,,,,,,,,,,,,0,6,6,6,1,seventh,13,26,F,R,IMT,2021-07-13_14h44.34.097,ImageRatingTask_S4,2021.1.4,Win32,60.0240096,,,,,,,,,
,,,,,,,,,,,,0,7,7,7,1,last,13,26,F,R,IMT,2021-07-13_14h44.34.097,ImageRatingTask_S4,2021.1.4,Win32,60.0240096,,,,,,,,,
,,,,,,,,,,,,,,,,,,13,26,F,R,IMT,2021-07-13_14h44.34.097,ImageRatingTask_S4,2021.1.4,Win32,60.0240096,0,67,67,82,1,DreamStudyImages_rs1000x750g/Water/Lake 12.jpg,,,
,,2,1.751,7,1.797,9,1.193,1,1.145,7,8.421,0,0,0,0,1,main,13,26,F,R,IMT,2021-07-13_14h44.34.097,ImageRatingTask_S4,2021.1.4,Win32,60.0240096,,,,,,,,,
,,,,,,,,,,,,0,1,1,1,1,second,13,26,F,R,IMT,2021-07-13_14h44.34.097,ImageRatingTask_S4,2021.1.4,Win32,60.0240096,,,,,,,,,
,,,,,,,,,,,,0,2,2,2,1,third,13,26,F,R,IMT,2021-07-13_14h44.34.097,ImageRatingTask_S4,2021.1.4,Win32,60.0240096,,,,,,,,,
,,,,,,,,,,,,0,3,3,3,1,fourth,13,26,F,R,IMT,2021-07-13_14h44.34.097,ImageRatingTask_S4,2021.1.4,Win32,60.0240096,,,,,,,,,
,,,,,,,,,,,,0,4,4,4,1,fifth,13,26,F,R,IMT,2021-07-13_14h44.34.097,ImageRatingTask_S4,2021.1.4,Win32,60.0240096,,,,,,,,,
,,,,,,,,,,,,0,5,5,5,1,sixth,13,26,F,R,IMT,2021-07-13_14h44.34.097,ImageRatingTask_S4,2021.1.4,Win32,60.0240096,,,,,,,,,
,,,,,,,,,,,,0,6,6,6,1,seventh,13,26,F,R,IMT,2021-07-13_14h44.34.097,ImageRatingTask_S4,2021.1.4,Win32,60.0240096,,,,,,,,,
,,,,,,,,,,,,0,7,7,7,1,last,13,26,F,R,IMT,2021-07-13_14h44.34.097,ImageRatingTask_S4,2021.1.4,Win32,60.0240096,,,,,,,,,
,,,,,,,,,,,,,,,,,,13,26,F,R,IMT,2021-07-13_14h44.34.097,ImageRatingTask_S4,2021.1.4,Win32,60.0240096,0,68,68,27,1,DreamStudyImages_rs1000x750g/Vehicles/NDPS87_backtruck.jpg,,,
,,5,2.36,1,0.342,2,1.093,1,1.236,6,3.264,0,0,0,0,1,main,13,26,F,R,IMT,2021-07-13_14h44.34.097,ImageRatingTask_S4,2021.1.4,Win32,60.0240096,,,,,,,,,
,,,,,,,,,,,,0,1,1,1,1,second,13,26,F,R,IMT,2021-07-13_14h44.34.097,ImageRatingTask_S4,2021.1.4,Win32,60.0240096,,,,,,,,,
,,,,,,,,,,,,0,2,2,2,1,third,13,26,F,R,IMT,2021-07-13_14h44.34.097,ImageRatingTask_S4,2021.1.4,Win32,60.0240096,,,,,,,,,
,,,,,,,,,,,,0,3,3,3,1,fourth,13,26,F,R,IMT,2021-07-13_14h44.34.097,ImageRatingTask_S4,2021.1.4,Win32,60.0240096,,,,,,,,,
,,,,,,,,,,,,0,4,4,4,1,fifth,13,26,F,R,IMT,2021-07-13_14h44.34.097,ImageRatingTask_S4,2021.1.4,Win32,60.0240096,,,,,,,,,
,,,,,,,,,,,,0,5,5,5,1,sixth,13,26,F,R,IMT,2021-07-13_14h44.34.097,ImageRatingTask_S4,2021.1.4,Win32,60.0240096,,,,,,,,,
,,,,,,,,,,,,0,6,6,6,1,seventh,13,26,F,R,IMT,2021-07-13_14h44.34.097,ImageRatingTask_S4,2021.1.4,Win32,60.0240096,,,,,,,,,
,,,,,,,,,,,,0,7,7,7,1,last,13,26,F,R,IMT,2021-07-13_14h44.34.097,ImageRatingTask_S4,2021.1.4,Win32,60.0240096,,,,,,,,,
,,,,,,,,,,,,,,,,,,13,26,F,R,IMT,2021-07-13_14h44.34.097,ImageRatingTask_S4,2021.1.4,Win32,60.0240096,0,69,69,44,1,DreamStudyImages_rs1000x750g/Houses/IAPS5994_hotels_CROPPED.jpg,,,
,,2,2.312,8,1.651,9,2.113,1,0.904,3,0.603,0,0,0,0,1,main,13,26,F,R,IMT,2021-07-13_14h44.34.097,ImageRatingTask_S4,2021.1.4,Win32,60.0240096,,,,,,,,,
,,,,,,,,,,,,0,1,1,1,1,second,13,26,F,R,IMT,2021-07-13_14h44.34.097,ImageRatingTask_S4,2021.1.4,Win32,60.0240096,,,,,,,,,
,,,,,,,,,,,,0,2,2,2,1,third,13,26,F,R,IMT,2021-07-13_14h44.34.097,ImageRatingTask_S4,2021.1.4,Win32,60.0240096,,,,,,,,,
,,,,,,,,,,,,0,3,3,3,1,fourth,13,26,F,R,IMT,2021-07-13_14h44.34.097,ImageRatingTask_S4,2021.1.4,Win32,60.0240096,,,,,,,,,
,,,,,,,,,,,,0,4,4,4,1,fifth,13,26,F,R,IMT,2021-07-13_14h44.34.097,ImageRatingTask_S4,2021.1.4,Win32,60.0240096,,,,,,,,,
,,,,,,,,,,,,0,5,5,5,1,sixth,13,26,F,R,IMT,2021-07-13_14h44.34.097,ImageRatingTask_S4,2021.1.4,Win32,60.0240096,,,,,,,,,
,,,,,,,,,,,,0,6,6,6,1,seventh,13,26,F,R,IMT,2021-07-13_14h44.34.097,ImageRatingTask_S4,2021.1.4,Win32,60.0240096,,,,,,,,,
,,,,,,,,,,,,0,7,7,7,1,last,13,26,F,R,IMT,2021-07-13_14h44.34.097,ImageRatingTask_S4,2021.1.4,Win32,60.0240096,,,,,,,,,
,,,,,,,,,,,,,,,,,,13,26,F,R,IMT,2021-07-13_14h44.34.097,ImageRatingTask_S4,2021.1.4,Win32,60.0240096,0,70,70,3,1,DreamStudyImages_rs1000x750g/Mammals/Animals_016_h.jpg,,,
,,5,208.633,1,0.84,8,2.702,1,0.995,7,1.194,0,0,0,0,1,main,13,26,F,R,IMT,2021-07-13_14h44.34.097,ImageRatingTask_S4,2021.1.4,Win32,60.0240096,,,,,,,,,
,,,,,,,,,,,,0,1,1,1,1,second,13,26,F,R,IMT,2021-07-13_14h44.34.097,ImageRatingTask_S4,2021.1.4,Win32,60.0240096,,,,,,,,,
,,,,,,,,,,,,0,2,2,2,1,third,13,26,F,R,IMT,2021-07-13_14h44.34.097,ImageRatingTask_S4,2021.1.4,Win32,60.0240096,,,,,,,,,
,,,,,,,,,,,,0,3,3,3,1,fourth,13,26,F,R,IMT,2021-07-13_14h44.34.097,ImageRatingTask_S4,2021.1.4,Win32,60.0240096,,,,,,,,,
,,,,,,,,,,,,0,4,4,4,1,fifth,13,26,F,R,IMT,2021-07-13_14h44.34.097,ImageRatingTask_S4,2021.1.4,Win32,60.0240096,,,,,,,,,
,,,,,,,,,,,,0,5,5,5,1,sixth,13,26,F,R,IMT,2021-07-13_14h44.34.097,ImageRatingTask_S4,2021.1.4,Win32,60.0240096,,,,,,,,,
,,,,,,,,,,,,0,6,6,6,1,seventh,13,26,F,R,IMT,2021-07-13_14h44.34.097,ImageRatingTask_S4,2021.1.4,Win32,60.0240096,,,,,,,,,
,,,,,,,,,,,,0,7,7,7,1,last,13,26,F,R,IMT,2021-07-13_14h44.34.097,ImageRatingTask_S4,2021.1.4,Win32,60.0240096,,,,,,,,,
,,,,,,,,,,,,,,,,,,13,26,F,R,IMT,2021-07-13_14h44.34.097,ImageRatingTask_S4,2021.1.4,Win32,60.0240096,0,71,71,145,1,DreamStudyImages_rs1000x750g/Vehicles/Objects_302_h.jpg,,,
,,4,1.671,1,0.306,9,1.313,1,0.493,3,1.003,0,0,0,0,1,main,13,26,F,R,IMT,2021-07-13_14h44.34.097,ImageRatingTask_S4,2021.1.4,Win32,60.0240096,,,,,,,,,
,,,,,,,,,,,,0,1,1,1,1,second,13,26,F,R,IMT,2021-07-13_14h44.34.097,ImageRatingTask_S4,2021.1.4,Win32,60.0240096,,,,,,,,,
,,,,,,,,,,,,0,2,2,2,1,third,13,26,F,R,IMT,2021-07-13_14h44.34.097,ImageRatingTask_S4,2021.1.4,Win32,60.0240096,,,,,,,,,
,,,,,,,,,,,,0,3,3,3,1,fourth,13,26,F,R,IMT,2021-07-13_14h44.34.097,ImageRatingTask_S4,2021.1.4,Win32,60.0240096,,,,,,,,,
,,,,,,,,,,,,0,4,4,4,1,fifth,13,26,F,R,IMT,2021-07-13_14h44.34.097,ImageRatingTask_S4,2021.1.4,Win32,60.0240096,,,,,,,,,
,,,,,,,,,,,,0,5,5,5,1,sixth,13,26,F,R,IMT,2021-07-13_14h44.34.097,ImageRatingTask_S4,2021.1.4,Win32,60.0240096,,,,,,,,,
,,,,,,,,,,,,0,6,6,6,1,seventh,13,26,F,R,IMT,2021-07-13_14h44.34.097,ImageRatingTask_S4,2021.1.4,Win32,60.0240096,,,,,,,,,
,,,,,,,,,,,,0,7,7,7,1,last,13,26,F,R,IMT,2021-07-13_14h44.34.097,ImageRatingTask_S4,2021.1.4,Win32,60.0240096,,,,,,,,,
,,,,,,,,,,,,,,,,,,13,26,F,R,IMT,2021-07-13_14h44.34.097,ImageRatingTask_S4,2021.1.4,Win32,60.0240096,0,72,72,143,1,DreamStudyImages_rs1000x750g/Mammals/Animals_209_h.jpg,,,
,,5,1.688,1,0.448,6,1.568,1,0.733,7,1.497,0,0,0,0,1,main,13,26,F,R,IMT,2021-07-13_14h44.34.097,ImageRatingTask_S4,2021.1.4,Win32,60.0240096,,,,,,,,,
,,,,,,,,,,,,0,1,1,1,1,second,13,26,F,R,IMT,2021-07-13_14h44.34.097,ImageRatingTask_S4,2021.1.4,Win32,60.0240096,,,,,,,,,
,,,,,,,,,,,,0,2,2,2,1,third,13,26,F,R,IMT,2021-07-13_14h44.34.097,ImageRatingTask_S4,2021.1.4,Win32,60.0240096,,,,,,,,,
,,,,,,,,,,,,0,3,3,3,1,fourth,13,26,F,R,IMT,2021-07-13_14h44.34.097,ImageRatingTask_S4,2021.1.4,Win32,60.0240096,,,,,,,,,
,,,,,,,,,,,,0,4,4,4,1,fifth,13,26,F,R,IMT,2021-07-13_14h44.34.097,ImageRatingTask_S4,2021.1.4,Win32,60.0240096,,,,,,,,,
,,,,,,,,,,,,0,5,5,5,1,sixth,13,26,F,R,IMT,2021-07-13_14h44.34.097,ImageRatingTask_S4,2021.1.4,Win32,60.0240096,,,,,,,,,
,,,,,,,,,,,,0,6,6,6,1,seventh,13,26,F,R,IMT,2021-07-13_14h44.34.097,ImageRatingTask_S4,2021.1.4,Win32,60.0240096,,,,,,,,,
,,,,,,,,,,,,0,7,7,7,1,last,13,26,F,R,IMT,2021-07-13_14h44.34.097,ImageRatingTask_S4,2021.1.4,Win32,60.0240096,,,,,,,,,
,,,,,,,,,,,,,,,,,,13,26,F,R,IMT,2021-07-13_14h44.34.097,ImageRatingTask_S4,2021.1.4,Win32,60.0240096,0,73,73,26,1,DreamStudyImages_rs1000x750g/Vehicles/IAPS7037_train2.jpg,,,
,,3,37.207,7,0.745,9,2.047,1,0.731,3,0.628,0,0,0,0,1,main,13,26,F,R,IMT,2021-07-13_14h44.34.097,ImageRatingTask_S4,2021.1.4,Win32,60.0240096,,,,,,,,,
,,,,,,,,,,,,0,1,1,1,1,second,13,26,F,R,IMT,2021-07-13_14h44.34.097,ImageRatingTask_S4,2021.1.4,Win32,60.0240096,,,,,,,,,
,,,,,,,,,,,,0,2,2,2,1,third,13,26,F,R,IMT,2021-07-13_14h44.34.097,ImageRatingTask_S4,2021.1.4,Win32,60.0240096,,,,,,,,,
,,,,,,,,,,,,0,3,3,3,1,fourth,13,26,F,R,IMT,2021-07-13_14h44.34.097,ImageRatingTask_S4,2021.1.4,Win32,60.0240096,,,,,,,,,
,,,,,,,,,,,,0,4,4,4,1,fifth,13,26,F,R,IMT,2021-07-13_14h44.34.097,ImageRatingTask_S4,2021.1.4,Win32,60.0240096,,,,,,,,,
,,,,,,,,,,,,0,5,5,5,1,sixth,13,26,F,R,IMT,2021-07-13_14h44.34.097,ImageRatingTask_S4,2021.1.4,Win32,60.0240096,,,,,,,,,
,,,,,,,,,,,,0,6,6,6,1,seventh,13,26,F,R,IMT,2021-07-13_14h44.34.097,ImageRatingTask_S4,2021.1.4,Win32,60.0240096,,,,,,,,,
,,,,,,,,,,,,0,7,7,7,1,last,13,26,F,R,IMT,2021-07-13_14h44.34.097,ImageRatingTask_S4,2021.1.4,Win32,60.0240096,,,,,,,,,
,,,,,,,,,,,,,,,,,,13,26,F,R,IMT,2021-07-13_14h44.34.097,ImageRatingTask_S4,2021.1.4,Win32,60.0240096,0,74,74,48,1,DreamStudyImages_rs1000x750g/Mammals/Animals_110_h.jpg,,,
,,3,2.335,7,1.094,9,1.626,1,0.633,3,0.777,0,0,0,0,1,main,13,26,F,R,IMT,2021-07-13_14h44.34.097,ImageRatingTask_S4,2021.1.4,Win32,60.0240096,,,,,,,,,
,,,,,,,,,,,,0,1,1,1,1,second,13,26,F,R,IMT,2021-07-13_14h44.34.097,ImageRatingTask_S4,2021.1.4,Win32,60.0240096,,,,,,,,,
,,,,,,,,,,,,0,2,2,2,1,third,13,26,F,R,IMT,2021-07-13_14h44.34.097,ImageRatingTask_S4,2021.1.4,Win32,60.0240096,,,,,,,,,
,,,,,,,,,,,,0,3,3,3,1,fourth,13,26,F,R,IMT,2021-07-13_14h44.34.097,ImageRatingTask_S4,2021.1.4,Win32,60.0240096,,,,,,,,,
,,,,,,,,,,,,0,4,4,4,1,fifth,13,26,F,R,IMT,2021-07-13_14h44.34.097,ImageRatingTask_S4,2021.1.4,Win32,60.0240096,,,,,,,,,
,,,,,,,,,,,,0,5,5,5,1,sixth,13,26,F,R,IMT,2021-07-13_14h44.34.097,ImageRatingTask_S4,2021.1.4,Win32,60.0240096,,,,,,,,,
,,,,,,,,,,,,0,6,6,6,1,seventh,13,26,F,R,IMT,2021-07-13_14h44.34.097,ImageRatingTask_S4,2021.1.4,Win32,60.0240096,,,,,,,,,
,,,,,,,,,,,,0,7,7,7,1,last,13,26,F,R,IMT,2021-07-13_14h44.34.097,ImageRatingTask_S4,2021.1.4,Win32,60.0240096,,,,,,,,,
,,,,,,,,,,,,,,,,,,13,26,F,R,IMT,2021-07-13_14h44.34.097,ImageRatingTask_S4,2021.1.4,Win32,60.0240096,0,75,75,133,1,DreamStudyImages_rs1000x750g/Mammals/Animals_068_h.jpg,,,
,,5,517.198,1,0.212,9,1.304,1,0.764,6,1.596,0,0,0,0,1,main,13,26,F,R,IMT,2021-07-13_14h44.34.097,ImageRatingTask_S4,2021.1.4,Win32,60.0240096,,,,,,,,,
,,,,,,,,,,,,0,1,1,1,1,second,13,26,F,R,IMT,2021-07-13_14h44.34.097,ImageRatingTask_S4,2021.1.4,Win32,60.0240096,,,,,,,,,
,,,,,,,,,,,,0,2,2,2,1,third,13,26,F,R,IMT,2021-07-13_14h44.34.097,ImageRatingTask_S4,2021.1.4,Win32,60.0240096,,,,,,,,,
,,,,,,,,,,,,0,3,3,3,1,fourth,13,26,F,R,IMT,2021-07-13_14h44.34.097,ImageRatingTask_S4,2021.1.4,Win32,60.0240096,,,,,,,,,
,,,,,,,,,,,,0,4,4,4,1,fifth,13,26,F,R,IMT,2021-07-13_14h44.34.097,ImageRatingTask_S4,2021.1.4,Win32,60.0240096,,,,,,,,,
,,,,,,,,,,,,0,5,5,5,1,sixth,13,26,F,R,IMT,2021-07-13_14h44.34.097,ImageRatingTask_S4,2021.1.4,Win32,60.0240096,,,,,,,,,
,,,,,,,,,,,,0,6,6,6,1,seventh,13,26,F,R,IMT,2021-07-13_14h44.34.097,ImageRatingTask_S4,2021.1.4,Win32,60.0240096,,,,,,,,,
,,,,,,,,,,,,0,7,7,7,1,last,13,26,F,R,IMT,2021-07-13_14h44.34.097,ImageRatingTask_S4,2021.1.4,Win32,60.0240096,,,,,,,,,
,,,,,,,,,,,,,,,,,,13,26,F,R,IMT,2021-07-13_14h44.34.097,ImageRatingTask_S4,2021.1.4,Win32,60.0240096,0,76,76,41,1,DreamStudyImages_rs1000x750g/Houses/Objects_214_h.jpg,,,
,,5,1.997,1,0.174,6,0.585,1,0.639,3,0.601,0,0,0,0,1,main,13,26,F,R,IMT,2021-07-13_14h44.34.097,ImageRatingTask_S4,2021.1.4,Win32,60.0240096,,,,,,,,,
,,,,,,,,,,,,0,1,1,1,1,second,13,26,F,R,IMT,2021-07-13_14h44.34.097,ImageRatingTask_S4,2021.1.4,Win32,60.0240096,,,,,,,,,
,,,,,,,,,,,,0,2,2,2,1,third,13,26,F,R,IMT,2021-07-13_14h44.34.097,ImageRatingTask_S4,2021.1.4,Win32,60.0240096,,,,,,,,,
,,,,,,,,,,,,0,3,3,3,1,fourth,13,26,F,R,IMT,2021-07-13_14h44.34.097,ImageRatingTask_S4,2021.1.4,Win32,60.0240096,,,,,,,,,
,,,,,,,,,,,,0,4,4,4,1,fifth,13,26,F,R,IMT,2021-07-13_14h44.34.097,ImageRatingTask_S4,2021.1.4,Win32,60.0240096,,,,,,,,,
,,,,,,,,,,,,0,5,5,5,1,sixth,13,26,F,R,IMT,2021-07-13_14h44.34.097,ImageRatingTask_S4,2021.1.4,Win32,60.0240096,,,,,,,,,
,,,,,,,,,,,,0,6,6,6,1,seventh,13,26,F,R,IMT,2021-07-13_14h44.34.097,ImageRatingTask_S4,2021.1.4,Win32,60.0240096,,,,,,,,,
,,,,,,,,,,,,0,7,7,7,1,last,13,26,F,R,IMT,2021-07-13_14h44.34.097,ImageRatingTask_S4,2021.1.4,Win32,60.0240096,,,,,,,,,
,,,,,,,,,,,,,,,,,,13,26,F,R,IMT,2021-07-13_14h44.34.097,ImageRatingTask_S4,2021.1.4,Win32,60.0240096,0,77,77,40,1,DreamStudyImages_rs1000x750g/Mammals/Animals_171_h.jpg,,,
,,6,1.548,2,0.738,8,1.036,1,0.447,2,0.468,0,0,0,0,1,main,13,26,F,R,IMT,2021-07-13_14h44.34.097,ImageRatingTask_S4,2021.1.4,Win32,60.0240096,,,,,,,,,
,,,,,,,,,,,,0,1,1,1,1,second,13,26,F,R,IMT,2021-07-13_14h44.34.097,ImageRatingTask_S4,2021.1.4,Win32,60.0240096,,,,,,,,,
,,,,,,,,,,,,0,2,2,2,1,third,13,26,F,R,IMT,2021-07-13_14h44.34.097,ImageRatingTask_S4,2021.1.4,Win32,60.0240096,,,,,,,,,
,,,,,,,,,,,,0,3,3,3,1,fourth,13,26,F,R,IMT,2021-07-13_14h44.34.097,ImageRatingTask_S4,2021.1.4,Win32,60.0240096,,,,,,,,,
,,,,,,,,,,,,0,4,4,4,1,fifth,13,26,F,R,IMT,2021-07-13_14h44.34.097,ImageRatingTask_S4,2021.1.4,Win32,60.0240096,,,,,,,,,
,,,,,,,,,,,,0,5,5,5,1,sixth,13,26,F,R,IMT,2021-07-13_14h44.34.097,ImageRatingTask_S4,2021.1.4,Win32,60.0240096,,,,,,,,,
,,,,,,,,,,,,0,6,6,6,1,seventh,13,26,F,R,IMT,2021-07-13_14h44.34.097,ImageRatingTask_S4,2021.1.4,Win32,60.0240096,,,,,,,,,
,,,,,,,,,,,,0,7,7,7,1,last,13,26,F,R,IMT,2021-07-13_14h44.34.097,ImageRatingTask_S4,2021.1.4,Win32,60.0240096,,,,,,,,,
,,,,,,,,,,,,,,,,,,13,26,F,R,IMT,2021-07-13_14h44.34.097,ImageRatingTask_S4,2021.1.4,Win32,60.0240096,0,78,78,122,1,DreamStudyImages_rs1000x750g/Children/People_049_h.jpg,,,
,,4,1.891,4,0.998,6,4.175,1,0.455,3,0.63,0,0,0,0,1,main,13,26,F,R,IMT,2021-07-13_14h44.34.097,ImageRatingTask_S4,2021.1.4,Win32,60.0240096,,,,,,,,,
,,,,,,,,,,,,0,1,1,1,1,second,13,26,F,R,IMT,2021-07-13_14h44.34.097,ImageRatingTask_S4,2021.1.4,Win32,60.0240096,,,,,,,,,
,,,,,,,,,,,,0,2,2,2,1,third,13,26,F,R,IMT,2021-07-13_14h44.34.097,ImageRatingTask_S4,2021.1.4,Win32,60.0240096,,,,,,,,,
,,,,,,,,,,,,0,3,3,3,1,fourth,13,26,F,R,IMT,2021-07-13_14h44.34.097,ImageRatingTask_S4,2021.1.4,Win32,60.0240096,,,,,,,,,
,,,,,,,,,,,,0,4,4,4,1,fifth,13,26,F,R,IMT,2021-07-13_14h44.34.097,ImageRatingTask_S4,2021.1.4,Win32,60.0240096,,,,,,,,,
,,,,,,,,,,,,0,5,5,5,1,sixth,13,26,F,R,IMT,2021-07-13_14h44.34.097,ImageRatingTask_S4,2021.1.4,Win32,60.0240096,,,,,,,,,
,,,,,,,,,,,,0,6,6,6,1,seventh,13,26,F,R,IMT,2021-07-13_14h44.34.097,ImageRatingTask_S4,2021.1.4,Win32,60.0240096,,,,,,,,,
,,,,,,,,,,,,0,7,7,7,1,last,13,26,F,R,IMT,2021-07-13_14h44.34.097,ImageRatingTask_S4,2021.1.4,Win32,60.0240096,,,,,,,,,
,,,,,,,,,,,,,,,,,,13,26,F,R,IMT,2021-07-13_14h44.34.097,ImageRatingTask_S4,2021.1.4,Win32,60.0240096,0,79,79,43,1,DreamStudyImages_rs1000x750g/Mammals/IAPS1722_leopardcubs.jpg,,,
,,5,0.942,1,0.544,8,2.538,1,0.412,5,0.928,0,0,0,0,1,main,13,26,F,R,IMT,2021-07-13_14h44.34.097,ImageRatingTask_S4,2021.1.4,Win32,60.0240096,,,,,,,,,
,,,,,,,,,,,,0,1,1,1,1,second,13,26,F,R,IMT,2021-07-13_14h44.34.097,ImageRatingTask_S4,2021.1.4,Win32,60.0240096,,,,,,,,,
,,,,,,,,,,,,0,2,2,2,1,third,13,26,F,R,IMT,2021-07-13_14h44.34.097,ImageRatingTask_S4,2021.1.4,Win32,60.0240096,,,,,,,,,
,,,,,,,,,,,,0,3,3,3,1,fourth,13,26,F,R,IMT,2021-07-13_14h44.34.097,ImageRatingTask_S4,2021.1.4,Win32,60.0240096,,,,,,,,,
,,,,,,,,,,,,0,4,4,4,1,fifth,13,26,F,R,IMT,2021-07-13_14h44.34.097,ImageRatingTask_S4,2021.1.4,Win32,60.0240096,,,,,,,,,
,,,,,,,,,,,,0,5,5,5,1,sixth,13,26,F,R,IMT,2021-07-13_14h44.34.097,ImageRatingTask_S4,2021.1.4,Win32,60.0240096,,,,,,,,,
,,,,,,,,,,,,0,6,6,6,1,seventh,13,26,F,R,IMT,2021-07-13_14h44.34.097,ImageRatingTask_S4,2021.1.4,Win32,60.0240096,,,,,,,,,
,,,,,,,,,,,,0,7,7,7,1,last,13,26,F,R,IMT,2021-07-13_14h44.34.097,ImageRatingTask_S4,2021.1.4,Win32,60.0240096,,,,,,,,,
,,,,,,,,,,,,,,,,,,13,26,F,R,IMT,2021-07-13_14h44.34.097,ImageRatingTask_S4,2021.1.4,Win32,60.0240096,0,80,80,103,1,DreamStudyImages_rs1000x750g/Food/Objects_090_h.jpg,,,
,,5,2.774,1,0.258,9,1.185,1,0.39,3,1.464,0,0,0,0,1,main,13,26,F,R,IMT,2021-07-13_14h44.34.097,ImageRatingTask_S4,2021.1.4,Win32,60.0240096,,,,,,,,,
,,,,,,,,,,,,0,1,1,1,1,second,13,26,F,R,IMT,2021-07-13_14h44.34.097,ImageRatingTask_S4,2021.1.4,Win32,60.0240096,,,,,,,,,
,,,,,,,,,,,,0,2,2,2,1,third,13,26,F,R,IMT,2021-07-13_14h44.34.097,ImageRatingTask_S4,2021.1.4,Win32,60.0240096,,,,,,,,,
,,,,,,,,,,,,0,3,3,3,1,fourth,13,26,F,R,IMT,2021-07-13_14h44.34.097,ImageRatingTask_S4,2021.1.4,Win32,60.0240096,,,,,,,,,
,,,,,,,,,,,,0,4,4,4,1,fifth,13,26,F,R,IMT,2021-07-13_14h44.34.097,ImageRatingTask_S4,2021.1.4,Win32,60.0240096,,,,,,,,,
,,,,,,,,,,,,0,5,5,5,1,sixth,13,26,F,R,IMT,2021-07-13_14h44.34.097,ImageRatingTask_S4,2021.1.4,Win32,60.0240096,,,,,,,,,
,,,,,,,,,,,,0,6,6,6,1,seventh,13,26,F,R,IMT,2021-07-13_14h44.34.097,ImageRatingTask_S4,2021.1.4,Win32,60.0240096,,,,,,,,,
,,,,,,,,,,,,0,7,7,7,1,last,13,26,F,R,IMT,2021-07-13_14h44.34.097,ImageRatingTask_S4,2021.1.4,Win32,60.0240096,,,,,,,,,
,,,,,,,,,,,,,,,,,,13,26,F,R,IMT,2021-07-13_14h44.34.097,ImageRatingTask_S4,2021.1.4,Win32,60.0240096,0,81,81,93,1,DreamStudyImages_rs1000x750g/Mammals/Animals_177_h.jpg,,,
,,3,2.099,2,0.471,6,1.597,1,0.411,8,1.804,0,0,0,0,1,main,13,26,F,R,IMT,2021-07-13_14h44.34.097,ImageRatingTask_S4,2021.1.4,Win32,60.0240096,,,,,,,,,
,,,,,,,,,,,,0,1,1,1,1,second,13,26,F,R,IMT,2021-07-13_14h44.34.097,ImageRatingTask_S4,2021.1.4,Win32,60.0240096,,,,,,,,,
,,,,,,,,,,,,0,2,2,2,1,third,13,26,F,R,IMT,2021-07-13_14h44.34.097,ImageRatingTask_S4,2021.1.4,Win32,60.0240096,,,,,,,,,
,,,,,,,,,,,,0,3,3,3,1,fourth,13,26,F,R,IMT,2021-07-13_14h44.34.097,ImageRatingTask_S4,2021.1.4,Win32,60.0240096,,,,,,,,,
,,,,,,,,,,,,0,4,4,4,1,fifth,13,26,F,R,IMT,2021-07-13_14h44.34.097,ImageRatingTask_S4,2021.1.4,Win32,60.0240096,,,,,,,,,
,,,,,,,,,,,,0,5,5,5,1,sixth,13,26,F,R,IMT,2021-07-13_14h44.34.097,ImageRatingTask_S4,2021.1.4,Win32,60.0240096,,,,,,,,,
,,,,,,,,,,,,0,6,6,6,1,seventh,13,26,F,R,IMT,2021-07-13_14h44.34.097,ImageRatingTask_S4,2021.1.4,Win32,60.0240096,,,,,,,,,
,,,,,,,,,,,,0,7,7,7,1,last,13,26,F,R,IMT,2021-07-13_14h44.34.097,ImageRatingTask_S4,2021.1.4,Win32,60.0240096,,,,,,,,,
,,,,,,,,,,,,,,,,,,13,26,F,R,IMT,2021-07-13_14h44.34.097,ImageRatingTask_S4,2021.1.4,Win32,60.0240096,0,82,82,22,1,DreamStudyImages_rs1000x750g/Water/Garbage dump 2.jpg,,,
,,3,1.641,7,1.42,6,2.914,1,0.363,2,0.96,0,0,0,0,1,main,13,26,F,R,IMT,2021-07-13_14h44.34.097,ImageRatingTask_S4,2021.1.4,Win32,60.0240096,,,,,,,,,
,,,,,,,,,,,,0,1,1,1,1,second,13,26,F,R,IMT,2021-07-13_14h44.34.097,ImageRatingTask_S4,2021.1.4,Win32,60.0240096,,,,,,,,,
,,,,,,,,,,,,0,2,2,2,1,third,13,26,F,R,IMT,2021-07-13_14h44.34.097,ImageRatingTask_S4,2021.1.4,Win32,60.0240096,,,,,,,,,
,,,,,,,,,,,,0,3,3,3,1,fourth,13,26,F,R,IMT,2021-07-13_14h44.34.097,ImageRatingTask_S4,2021.1.4,Win32,60.0240096,,,,,,,,,
,,,,,,,,,,,,0,4,4,4,1,fifth,13,26,F,R,IMT,2021-07-13_14h44.34.097,ImageRatingTask_S4,2021.1.4,Win32,60.0240096,,,,,,,,,
,,,,,,,,,,,,0,5,5,5,1,sixth,13,26,F,R,IMT,2021-07-13_14h44.34.097,ImageRatingTask_S4,2021.1.4,Win32,60.0240096,,,,,,,,,
,,,,,,,,,,,,0,6,6,6,1,seventh,13,26,F,R,IMT,2021-07-13_14h44.34.097,ImageRatingTask_S4,2021.1.4,Win32,60.0240096,,,,,,,,,
,,,,,,,,,,,,0,7,7,7,1,last,13,26,F,R,IMT,2021-07-13_14h44.34.097,ImageRatingTask_S4,2021.1.4,Win32,60.0240096,,,,,,,,,
,,,,,,,,,,,,,,,,,,13,26,F,R,IMT,2021-07-13_14h44.34.097,ImageRatingTask_S4,2021.1.4,Win32,60.0240096,0,83,83,153,1,DreamStudyImages_rs1000x750g/Children/Faces_363_v.jpg,,,
,,5,9.68,1,0.962,7,3.603,1,0.32,5,1.381,0,0,0,0,1,main,13,26,F,R,IMT,2021-07-13_14h44.34.097,ImageRatingTask_S4,2021.1.4,Win32,60.0240096,,,,,,,,,
,,,,,,,,,,,,0,1,1,1,1,second,13,26,F,R,IMT,2021-07-13_14h44.34.097,ImageRatingTask_S4,2021.1.4,Win32,60.0240096,,,,,,,,,
,,,,,,,,,,,,0,2,2,2,1,third,13,26,F,R,IMT,2021-07-13_14h44.34.097,ImageRatingTask_S4,2021.1.4,Win32,60.0240096,,,,,,,,,
,,,,,,,,,,,,0,3,3,3,1,fourth,13,26,F,R,IMT,2021-07-13_14h44.34.097,ImageRatingTask_S4,2021.1.4,Win32,60.0240096,,,,,,,,,
,,,,,,,,,,,,0,4,4,4,1,fifth,13,26,F,R,IMT,2021-07-13_14h44.34.097,ImageRatingTask_S4,2021.1.4,Win32,60.0240096,,,,,,,,,
,,,,,,,,,,,,0,5,5,5,1,sixth,13,26,F,R,IMT,2021-07-13_14h44.34.097,ImageRatingTask_S4,2021.1.4,Win32,60.0240096,,,,,,,,,
,,,,,,,,,,,,0,6,6,6,1,seventh,13,26,F,R,IMT,2021-07-13_14h44.34.097,ImageRatingTask_S4,2021.1.4,Win32,60.0240096,,,,,,,,,
,,,,,,,,,,,,0,7,7,7,1,last,13,26,F,R,IMT,2021-07-13_14h44.34.097,ImageRatingTask_S4,2021.1.4,Win32,60.0240096,,,,,,,,,
