slider_pre.response,slider_pre.rt,key_val.keys,key_val.rt,key_aro.keys,key_aro.rt,key_qual.keys,key_qual.rt,key_ncat.keys,key_ncat.rt,key_cats.keys,key_cats.rt,ncat_order.thisRepN,ncat_order.thisTrialN,ncat_order.thisN,ncat_order.thisIndex,ncat_order.ran,cond_cat,participant,age,gender,handedness (L/R),site (IMT/Donders),date,expName,psychopyVersion,OS,frameRate,img_trials.thisRepN,img_trials.thisTrialN,img_trials.thisN,img_trials.thisIndex,img_trials.ran,filename,slider_post.response,slider_post.rt,textbox_openfb.text
6,6.793,5,4.109,1,0.552,9,2.227,1,0.792,5,2.093,0,0,0,0,1,main,13,26,F,R,IMT,2021-07-11_16h09.55.365,ImageRatingTask_S3,2021.1.4,Win32,60.0240096,,,,,,,,,
,,,,,,,,,,,,0,1,1,1,1,second,13,26,F,R,IMT,2021-07-11_16h09.55.365,ImageRatingTask_S3,2021.1.4,Win32,60.0240096,,,,,,,,,
,,,,,,,,,,,,0,2,2,2,1,third,13,26,F,R,IMT,2021-07-11_16h09.55.365,ImageRatingTask_S3,2021.1.4,Win32,60.0240096,,,,,,,,,
,,,,,,,,,,,,0,3,3,3,1,fourth,13,26,F,R,IMT,2021-07-11_16h09.55.365,ImageRatingTask_S3,2021.1.4,Win32,60.0240096,,,,,,,,,
,,,,,,,,,,,,0,4,4,4,1,fifth,13,26,F,R,IMT,2021-07-11_16h09.55.365,ImageRatingTask_S3,2021.1.4,Win32,60.0240096,,,,,,,,,
,,,,,,,,,,,,0,5,5,5,1,sixth,13,26,F,R,IMT,2021-07-11_16h09.55.365,ImageRatingTask_S3,2021.1.4,Win32,60.0240096,,,,,,,,,
,,,,,,,,,,,,0,6,6,6,1,seventh,13,26,F,R,IMT,2021-07-11_16h09.55.365,ImageRatingTask_S3,2021.1.4,Win32,60.0240096,,,,,,,,,
,,,,,,,,,,,,0,7,7,7,1,last,13,26,F,R,IMT,2021-07-11_16h09.55.365,ImageRatingTask_S3,2021.1.4,Win32,60.0240096,,,,,,,,,
,,,,,,,,,,,,,,,,,,13,26,F,R,IMT,2021-07-11_16h09.55.365,ImageRatingTask_S3,2021.1.4,Win32,60.0240096,0,0,0,146,1,DreamStudyImages_rs1000x750g/Food/Objects_092_v.jpg,,,
,,5,0.959,1,0.347,5,1.93,1,5.451,6,1.754,0,0,0,0,1,main,13,26,F,R,IMT,2021-07-11_16h09.55.365,ImageRatingTask_S3,2021.1.4,Win32,60.0240096,,,,,,,,,
,,,,,,,,,,,,0,1,1,1,1,second,13,26,F,R,IMT,2021-07-11_16h09.55.365,ImageRatingTask_S3,2021.1.4,Win32,60.0240096,,,,,,,,,
,,,,,,,,,,,,0,2,2,2,1,third,13,26,F,R,IMT,2021-07-11_16h09.55.365,ImageRatingTask_S3,2021.1.4,Win32,60.0240096,,,,,,,,,
,,,,,,,,,,,,0,3,3,3,1,fourth,13,26,F,R,IMT,2021-07-11_16h09.55.365,ImageRatingTask_S3,2021.1.4,Win32,60.0240096,,,,,,,,,
,,,,,,,,,,,,0,4,4,4,1,fifth,13,26,F,R,IMT,2021-07-11_16h09.55.365,ImageRatingTask_S3,2021.1.4,Win32,60.0240096,,,,,,,,,
,,,,,,,,,,,,0,5,5,5,1,sixth,13,26,F,R,IMT,2021-07-11_16h09.55.365,ImageRatingTask_S3,2021.1.4,Win32,60.0240096,,,,,,,,,
,,,,,,,,,,,,0,6,6,6,1,seventh,13,26,F,R,IMT,2021-07-11_16h09.55.365,ImageRatingTask_S3,2021.1.4,Win32,60.0240096,,,,,,,,,
,,,,,,,,,,,,0,7,7,7,1,last,13,26,F,R,IMT,2021-07-11_16h09.55.365,ImageRatingTask_S3,2021.1.4,Win32,60.0240096,,,,,,,,,
,,,,,,,,,,,,,,,,,,13,26,F,R,IMT,2021-07-11_16h09.55.365,ImageRatingTask_S3,2021.1.4,Win32,60.0240096,0,1,1,123,1,DreamStudyImages_rs1000x750g/Houses/Skyscraper 2_CROPPED.jpg,,,
,,5,6.252,1,0.353,8,2.598,1,1.613,5,0.813,0,0,0,0,1,main,13,26,F,R,IMT,2021-07-11_16h09.55.365,ImageRatingTask_S3,2021.1.4,Win32,60.0240096,,,,,,,,,
,,,,,,,,,,,,0,1,1,1,1,second,13,26,F,R,IMT,2021-07-11_16h09.55.365,ImageRatingTask_S3,2021.1.4,Win32,60.0240096,,,,,,,,,
,,,,,,,,,,,,0,2,2,2,1,third,13,26,F,R,IMT,2021-07-11_16h09.55.365,ImageRatingTask_S3,2021.1.4,Win32,60.0240096,,,,,,,,,
,,,,,,,,,,,,0,3,3,3,1,fourth,13,26,F,R,IMT,2021-07-11_16h09.55.365,ImageRatingTask_S3,2021.1.4,Win32,60.0240096,,,,,,,,,
,,,,,,,,,,,,0,4,4,4,1,fifth,13,26,F,R,IMT,2021-07-11_16h09.55.365,ImageRatingTask_S3,2021.1.4,Win32,60.0240096,,,,,,,,,
,,,,,,,,,,,,0,5,5,5,1,sixth,13,26,F,R,IMT,2021-07-11_16h09.55.365,ImageRatingTask_S3,2021.1.4,Win32,60.0240096,,,,,,,,,
,,,,,,,,,,,,0,6,6,6,1,seventh,13,26,F,R,IMT,2021-07-11_16h09.55.365,ImageRatingTask_S3,2021.1.4,Win32,60.0240096,,,,,,,,,
,,,,,,,,,,,,0,7,7,7,1,last,13,26,F,R,IMT,2021-07-11_16h09.55.365,ImageRatingTask_S3,2021.1.4,Win32,60.0240096,,,,,,,,,
,,,,,,,,,,,,,,,,,,13,26,F,R,IMT,2021-07-11_16h09.55.365,ImageRatingTask_S3,2021.1.4,Win32,60.0240096,0,2,2,21,1,DreamStudyImages_rs1000x750g/Food/IAPS7470_pancakes.jpg,,,
,,4,6.237,1,1.424,7,5.671,1,0.949,3,1.667,0,0,0,0,1,main,13,26,F,R,IMT,2021-07-11_16h09.55.365,ImageRatingTask_S3,2021.1.4,Win32,60.0240096,,,,,,,,,
,,,,,,,,,,,,0,1,1,1,1,second,13,26,F,R,IMT,2021-07-11_16h09.55.365,ImageRatingTask_S3,2021.1.4,Win32,60.0240096,,,,,,,,,
,,,,,,,,,,,,0,2,2,2,1,third,13,26,F,R,IMT,2021-07-11_16h09.55.365,ImageRatingTask_S3,2021.1.4,Win32,60.0240096,,,,,,,,,
,,,,,,,,,,,,0,3,3,3,1,fourth,13,26,F,R,IMT,2021-07-11_16h09.55.365,ImageRatingTask_S3,2021.1.4,Win32,60.0240096,,,,,,,,,
,,,,,,,,,,,,0,4,4,4,1,fifth,13,26,F,R,IMT,2021-07-11_16h09.55.365,ImageRatingTask_S3,2021.1.4,Win32,60.0240096,,,,,,,,,
,,,,,,,,,,,,0,5,5,5,1,sixth,13,26,F,R,IMT,2021-07-11_16h09.55.365,ImageRatingTask_S3,2021.1.4,Win32,60.0240096,,,,,,,,,
,,,,,,,,,,,,0,6,6,6,1,seventh,13,26,F,R,IMT,2021-07-11_16h09.55.365,ImageRatingTask_S3,2021.1.4,Win32,60.0240096,,,,,,,,,
,,,,,,,,,,,,0,7,7,7,1,last,13,26,F,R,IMT,2021-07-11_16h09.55.365,ImageRatingTask_S3,2021.1.4,Win32,60.0240096,,,,,,,,,
,,,,,,,,,,,,,,,,,,13,26,F,R,IMT,2021-07-11_16h09.55.365,ImageRatingTask_S3,2021.1.4,Win32,60.0240096,0,3,3,40,1,DreamStudyImages_rs1000x750g/Mammals/IAPS1310_bigcat.jpg,,,
,,5,2.284,1,1.834,8,3.116,2,8.237,5,2.062,0,0,0,0,1,main,13,26,F,R,IMT,2021-07-11_16h09.55.365,ImageRatingTask_S3,2021.1.4,Win32,60.0240096,,,,,,,,,
,,,,,,,,,,8,0.956,0,1,1,1,1,second,13,26,F,R,IMT,2021-07-11_16h09.55.365,ImageRatingTask_S3,2021.1.4,Win32,60.0240096,,,,,,,,,
,,,,,,,,,,,,0,2,2,2,1,third,13,26,F,R,IMT,2021-07-11_16h09.55.365,ImageRatingTask_S3,2021.1.4,Win32,60.0240096,,,,,,,,,
,,,,,,,,,,,,0,3,3,3,1,fourth,13,26,F,R,IMT,2021-07-11_16h09.55.365,ImageRatingTask_S3,2021.1.4,Win32,60.0240096,,,,,,,,,
,,,,,,,,,,,,0,4,4,4,1,fifth,13,26,F,R,IMT,2021-07-11_16h09.55.365,ImageRatingTask_S3,2021.1.4,Win32,60.0240096,,,,,,,,,
,,,,,,,,,,,,0,5,5,5,1,sixth,13,26,F,R,IMT,2021-07-11_16h09.55.365,ImageRatingTask_S3,2021.1.4,Win32,60.0240096,,,,,,,,,
,,,,,,,,,,,,0,6,6,6,1,seventh,13,26,F,R,IMT,2021-07-11_16h09.55.365,ImageRatingTask_S3,2021.1.4,Win32,60.0240096,,,,,,,,,
,,,,,,,,,,,,0,7,7,7,1,last,13,26,F,R,IMT,2021-07-11_16h09.55.365,ImageRatingTask_S3,2021.1.4,Win32,60.0240096,,,,,,,,,
,,,,,,,,,,,,,,,,,,13,26,F,R,IMT,2021-07-11_16h09.55.365,ImageRatingTask_S3,2021.1.4,Win32,60.0240096,0,4,4,70,1,DreamStudyImages_rs1000x750g/Food/Objects_133_h.jpg,,,
,,4,4.452,3,1.118,9,5.903,1,0.985,6,2.508,0,0,0,0,1,main,13,26,F,R,IMT,2021-07-11_16h09.55.365,ImageRatingTask_S3,2021.1.4,Win32,60.0240096,,,,,,,,,
,,,,,,,,,,,,0,1,1,1,1,second,13,26,F,R,IMT,2021-07-11_16h09.55.365,ImageRatingTask_S3,2021.1.4,Win32,60.0240096,,,,,,,,,
,,,,,,,,,,,,0,2,2,2,1,third,13,26,F,R,IMT,2021-07-11_16h09.55.365,ImageRatingTask_S3,2021.1.4,Win32,60.0240096,,,,,,,,,
,,,,,,,,,,,,0,3,3,3,1,fourth,13,26,F,R,IMT,2021-07-11_16h09.55.365,ImageRatingTask_S3,2021.1.4,Win32,60.0240096,,,,,,,,,
,,,,,,,,,,,,0,4,4,4,1,fifth,13,26,F,R,IMT,2021-07-11_16h09.55.365,ImageRatingTask_S3,2021.1.4,Win32,60.0240096,,,,,,,,,
,,,,,,,,,,,,0,5,5,5,1,sixth,13,26,F,R,IMT,2021-07-11_16h09.55.365,ImageRatingTask_S3,2021.1.4,Win32,60.0240096,,,,,,,,,
,,,,,,,,,,,,0,6,6,6,1,seventh,13,26,F,R,IMT,2021-07-11_16h09.55.365,ImageRatingTask_S3,2021.1.4,Win32,60.0240096,,,,,,,,,
,,,,,,,,,,,,0,7,7,7,1,last,13,26,F,R,IMT,2021-07-11_16h09.55.365,ImageRatingTask_S3,2021.1.4,Win32,60.0240096,,,,,,,,,
,,,,,,,,,,,,,,,,,,13,26,F,R,IMT,2021-07-11_16h09.55.365,ImageRatingTask_S3,2021.1.4,Win32,60.0240096,0,5,5,105,1,DreamStudyImages_rs1000x750g/Houses/NDPS114_houses10.jpg,,,
,,5,3.029,1,3.918,9,1.468,0,1.364,,,0,0,0,0,1,main,13,26,F,R,IMT,2021-07-11_16h09.55.365,ImageRatingTask_S3,2021.1.4,Win32,60.0240096,,,,,,,,,
,,,,,,,,,,,,0,1,1,1,1,second,13,26,F,R,IMT,2021-07-11_16h09.55.365,ImageRatingTask_S3,2021.1.4,Win32,60.0240096,,,,,,,,,
,,,,,,,,,,,,0,2,2,2,1,third,13,26,F,R,IMT,2021-07-11_16h09.55.365,ImageRatingTask_S3,2021.1.4,Win32,60.0240096,,,,,,,,,
,,,,,,,,,,,,0,3,3,3,1,fourth,13,26,F,R,IMT,2021-07-11_16h09.55.365,ImageRatingTask_S3,2021.1.4,Win32,60.0240096,,,,,,,,,
,,,,,,,,,,,,0,4,4,4,1,fifth,13,26,F,R,IMT,2021-07-11_16h09.55.365,ImageRatingTask_S3,2021.1.4,Win32,60.0240096,,,,,,,,,
,,,,,,,,,,,,0,5,5,5,1,sixth,13,26,F,R,IMT,2021-07-11_16h09.55.365,ImageRatingTask_S3,2021.1.4,Win32,60.0240096,,,,,,,,,
,,,,,,,,,,,,0,6,6,6,1,seventh,13,26,F,R,IMT,2021-07-11_16h09.55.365,ImageRatingTask_S3,2021.1.4,Win32,60.0240096,,,,,,,,,
,,,,,,,,,,,,0,7,7,7,1,last,13,26,F,R,IMT,2021-07-11_16h09.55.365,ImageRatingTask_S3,2021.1.4,Win32,60.0240096,,,,,,,,,
,,,,,,,,,,,,,,,,,,13,26,F,R,IMT,2021-07-11_16h09.55.365,ImageRatingTask_S3,2021.1.4,Win32,60.0240096,0,6,6,56,1,DreamStudyImages_rs1000x750g/Houses/Landscapes_093_h.jpg,,,
,,5,1.705,1,1.102,7,2.956,1,1.532,8,0.914,0,0,0,0,1,main,13,26,F,R,IMT,2021-07-11_16h09.55.365,ImageRatingTask_S3,2021.1.4,Win32,60.0240096,,,,,,,,,
,,,,,,,,,,,,0,1,1,1,1,second,13,26,F,R,IMT,2021-07-11_16h09.55.365,ImageRatingTask_S3,2021.1.4,Win32,60.0240096,,,,,,,,,
,,,,,,,,,,,,0,2,2,2,1,third,13,26,F,R,IMT,2021-07-11_16h09.55.365,ImageRatingTask_S3,2021.1.4,Win32,60.0240096,,,,,,,,,
,,,,,,,,,,,,0,3,3,3,1,fourth,13,26,F,R,IMT,2021-07-11_16h09.55.365,ImageRatingTask_S3,2021.1.4,Win32,60.0240096,,,,,,,,,
,,,,,,,,,,,,0,4,4,4,1,fifth,13,26,F,R,IMT,2021-07-11_16h09.55.365,ImageRatingTask_S3,2021.1.4,Win32,60.0240096,,,,,,,,,
,,,,,,,,,,,,0,5,5,5,1,sixth,13,26,F,R,IMT,2021-07-11_16h09.55.365,ImageRatingTask_S3,2021.1.4,Win32,60.0240096,,,,,,,,,
,,,,,,,,,,,,0,6,6,6,1,seventh,13,26,F,R,IMT,2021-07-11_16h09.55.365,ImageRatingTask_S3,2021.1.4,Win32,60.0240096,,,,,,,,,
,,,,,,,,,,,,0,7,7,7,1,last,13,26,F,R,IMT,2021-07-11_16h09.55.365,ImageRatingTask_S3,2021.1.4,Win32,60.0240096,,,,,,,,,
,,,,,,,,,,,,,,,,,,13,26,F,R,IMT,2021-07-11_16h09.55.365,ImageRatingTask_S3,2021.1.4,Win32,60.0240096,0,7,7,26,1,DreamStudyImages_rs1000x750g/Water/97.jpg,,,
,,6,2.192,1,0.219,6,2.966,1,0.631,3,3.082,0,0,0,0,1,main,13,26,F,R,IMT,2021-07-11_16h09.55.365,ImageRatingTask_S3,2021.1.4,Win32,60.0240096,,,,,,,,,
,,,,,,,,,,,,0,1,1,1,1,second,13,26,F,R,IMT,2021-07-11_16h09.55.365,ImageRatingTask_S3,2021.1.4,Win32,60.0240096,,,,,,,,,
,,,,,,,,,,,,0,2,2,2,1,third,13,26,F,R,IMT,2021-07-11_16h09.55.365,ImageRatingTask_S3,2021.1.4,Win32,60.0240096,,,,,,,,,
,,,,,,,,,,,,0,3,3,3,1,fourth,13,26,F,R,IMT,2021-07-11_16h09.55.365,ImageRatingTask_S3,2021.1.4,Win32,60.0240096,,,,,,,,,
,,,,,,,,,,,,0,4,4,4,1,fifth,13,26,F,R,IMT,2021-07-11_16h09.55.365,ImageRatingTask_S3,2021.1.4,Win32,60.0240096,,,,,,,,,
,,,,,,,,,,,,0,5,5,5,1,sixth,13,26,F,R,IMT,2021-07-11_16h09.55.365,ImageRatingTask_S3,2021.1.4,Win32,60.0240096,,,,,,,,,
,,,,,,,,,,,,0,6,6,6,1,seventh,13,26,F,R,IMT,2021-07-11_16h09.55.365,ImageRatingTask_S3,2021.1.4,Win32,60.0240096,,,,,,,,,
,,,,,,,,,,,,0,7,7,7,1,last,13,26,F,R,IMT,2021-07-11_16h09.55.365,ImageRatingTask_S3,2021.1.4,Win32,60.0240096,,,,,,,,,
,,,,,,,,,,,,,,,,,,13,26,F,R,IMT,2021-07-11_16h09.55.365,ImageRatingTask_S3,2021.1.4,Win32,60.0240096,0,8,8,89,1,DreamStudyImages_rs1000x750g/Mammals/Gorrila 1.jpg,,,
,,5,0.833,1,0.644,9,1.971,1,0.932,5,0.711,0,0,0,0,1,main,13,26,F,R,IMT,2021-07-11_16h09.55.365,ImageRatingTask_S3,2021.1.4,Win32,60.0240096,,,,,,,,,
,,,,,,,,,,,,0,1,1,1,1,second,13,26,F,R,IMT,2021-07-11_16h09.55.365,ImageRatingTask_S3,2021.1.4,Win32,60.0240096,,,,,,,,,
,,,,,,,,,,,,0,2,2,2,1,third,13,26,F,R,IMT,2021-07-11_16h09.55.365,ImageRatingTask_S3,2021.1.4,Win32,60.0240096,,,,,,,,,
,,,,,,,,,,,,0,3,3,3,1,fourth,13,26,F,R,IMT,2021-07-11_16h09.55.365,ImageRatingTask_S3,2021.1.4,Win32,60.0240096,,,,,,,,,
,,,,,,,,,,,,0,4,4,4,1,fifth,13,26,F,R,IMT,2021-07-11_16h09.55.365,ImageRatingTask_S3,2021.1.4,Win32,60.0240096,,,,,,,,,
,,,,,,,,,,,,0,5,5,5,1,sixth,13,26,F,R,IMT,2021-07-11_16h09.55.365,ImageRatingTask_S3,2021.1.4,Win32,60.0240096,,,,,,,,,
,,,,,,,,,,,,0,6,6,6,1,seventh,13,26,F,R,IMT,2021-07-11_16h09.55.365,ImageRatingTask_S3,2021.1.4,Win32,60.0240096,,,,,,,,,
,,,,,,,,,,,,0,7,7,7,1,last,13,26,F,R,IMT,2021-07-11_16h09.55.365,ImageRatingTask_S3,2021.1.4,Win32,60.0240096,,,,,,,,,
,,,,,,,,,,,,,,,,,,13,26,F,R,IMT,2021-07-11_16h09.55.365,ImageRatingTask_S3,2021.1.4,Win32,60.0240096,0,9,9,82,1,DreamStudyImages_rs1000x750g/Food/Objects_066_v.jpg,,,
,,5,2.839,2,1.086,8,2.7,1,0.348,3,1.528,0,0,0,0,1,main,13,26,F,R,IMT,2021-07-11_16h09.55.365,ImageRatingTask_S3,2021.1.4,Win32,60.0240096,,,,,,,,,
,,,,,,,,,,,,0,1,1,1,1,second,13,26,F,R,IMT,2021-07-11_16h09.55.365,ImageRatingTask_S3,2021.1.4,Win32,60.0240096,,,,,,,,,
,,,,,,,,,,,,0,2,2,2,1,third,13,26,F,R,IMT,2021-07-11_16h09.55.365,ImageRatingTask_S3,2021.1.4,Win32,60.0240096,,,,,,,,,
,,,,,,,,,,,,0,3,3,3,1,fourth,13,26,F,R,IMT,2021-07-11_16h09.55.365,ImageRatingTask_S3,2021.1.4,Win32,60.0240096,,,,,,,,,
,,,,,,,,,,,,0,4,4,4,1,fifth,13,26,F,R,IMT,2021-07-11_16h09.55.365,ImageRatingTask_S3,2021.1.4,Win32,60.0240096,,,,,,,,,
,,,,,,,,,,,,0,5,5,5,1,sixth,13,26,F,R,IMT,2021-07-11_16h09.55.365,ImageRatingTask_S3,2021.1.4,Win32,60.0240096,,,,,,,,,
,,,,,,,,,,,,0,6,6,6,1,seventh,13,26,F,R,IMT,2021-07-11_16h09.55.365,ImageRatingTask_S3,2021.1.4,Win32,60.0240096,,,,,,,,,
,,,,,,,,,,,,0,7,7,7,1,last,13,26,F,R,IMT,2021-07-11_16h09.55.365,ImageRatingTask_S3,2021.1.4,Win32,60.0240096,,,,,,,,,
,,,,,,,,,,,,,,,,,,13,26,F,R,IMT,2021-07-11_16h09.55.365,ImageRatingTask_S3,2021.1.4,Win32,60.0240096,0,10,10,155,1,DreamStudyImages_rs1000x750g/Mammals/IAPS1595_horse2.jpg,,,
,,5,1.021,5,5.171,9,2.103,1,1.232,6,1.43,0,0,0,0,1,main,13,26,F,R,IMT,2021-07-11_16h09.55.365,ImageRatingTask_S3,2021.1.4,Win32,60.0240096,,,,,,,,,
,,,,,,,,,,,,0,1,1,1,1,second,13,26,F,R,IMT,2021-07-11_16h09.55.365,ImageRatingTask_S3,2021.1.4,Win32,60.0240096,,,,,,,,,
,,,,,,,,,,,,0,2,2,2,1,third,13,26,F,R,IMT,2021-07-11_16h09.55.365,ImageRatingTask_S3,2021.1.4,Win32,60.0240096,,,,,,,,,
,,,,,,,,,,,,0,3,3,3,1,fourth,13,26,F,R,IMT,2021-07-11_16h09.55.365,ImageRatingTask_S3,2021.1.4,Win32,60.0240096,,,,,,,,,
,,,,,,,,,,,,0,4,4,4,1,fifth,13,26,F,R,IMT,2021-07-11_16h09.55.365,ImageRatingTask_S3,2021.1.4,Win32,60.0240096,,,,,,,,,
,,,,,,,,,,,,0,5,5,5,1,sixth,13,26,F,R,IMT,2021-07-11_16h09.55.365,ImageRatingTask_S3,2021.1.4,Win32,60.0240096,,,,,,,,,
,,,,,,,,,,,,0,6,6,6,1,seventh,13,26,F,R,IMT,2021-07-11_16h09.55.365,ImageRatingTask_S3,2021.1.4,Win32,60.0240096,,,,,,,,,
,,,,,,,,,,,,0,7,7,7,1,last,13,26,F,R,IMT,2021-07-11_16h09.55.365,ImageRatingTask_S3,2021.1.4,Win32,60.0240096,,,,,,,,,
,,,,,,,,,,,,,,,,,,13,26,F,R,IMT,2021-07-11_16h09.55.365,ImageRatingTask_S3,2021.1.4,Win32,60.0240096,0,11,11,131,1,DreamStudyImages_rs1000x750g/Houses/NDPS92_destroyedhouse.jpg,,,
,,5,1.243,1,0.653,7,1.833,1,0.782,6,0.862,0,0,0,0,1,main,13,26,F,R,IMT,2021-07-11_16h09.55.365,ImageRatingTask_S3,2021.1.4,Win32,60.0240096,,,,,,,,,
,,,,,,,,,,,,0,1,1,1,1,second,13,26,F,R,IMT,2021-07-11_16h09.55.365,ImageRatingTask_S3,2021.1.4,Win32,60.0240096,,,,,,,,,
,,,,,,,,,,,,0,2,2,2,1,third,13,26,F,R,IMT,2021-07-11_16h09.55.365,ImageRatingTask_S3,2021.1.4,Win32,60.0240096,,,,,,,,,
,,,,,,,,,,,,0,3,3,3,1,fourth,13,26,F,R,IMT,2021-07-11_16h09.55.365,ImageRatingTask_S3,2021.1.4,Win32,60.0240096,,,,,,,,,
,,,,,,,,,,,,0,4,4,4,1,fifth,13,26,F,R,IMT,2021-07-11_16h09.55.365,ImageRatingTask_S3,2021.1.4,Win32,60.0240096,,,,,,,,,
,,,,,,,,,,,,0,5,5,5,1,sixth,13,26,F,R,IMT,2021-07-11_16h09.55.365,ImageRatingTask_S3,2021.1.4,Win32,60.0240096,,,,,,,,,
,,,,,,,,,,,,0,6,6,6,1,seventh,13,26,F,R,IMT,2021-07-11_16h09.55.365,ImageRatingTask_S3,2021.1.4,Win32,60.0240096,,,,,,,,,
,,,,,,,,,,,,0,7,7,7,1,last,13,26,F,R,IMT,2021-07-11_16h09.55.365,ImageRatingTask_S3,2021.1.4,Win32,60.0240096,,,,,,,,,
,,,,,,,,,,,,,,,,,,13,26,F,R,IMT,2021-07-11_16h09.55.365,ImageRatingTask_S3,2021.1.4,Win32,60.0240096,0,12,12,129,1,DreamStudyImages_rs1000x750g/Houses/IAPS7490_window.jpg,,,
,,3,2.562,9,1.101,5,1.786,1,2.416,7,10.751,0,0,0,0,1,main,13,26,F,R,IMT,2021-07-11_16h09.55.365,ImageRatingTask_S3,2021.1.4,Win32,60.0240096,,,,,,,,,
,,,,,,,,,,,,0,1,1,1,1,second,13,26,F,R,IMT,2021-07-11_16h09.55.365,ImageRatingTask_S3,2021.1.4,Win32,60.0240096,,,,,,,,,
,,,,,,,,,,,,0,2,2,2,1,third,13,26,F,R,IMT,2021-07-11_16h09.55.365,ImageRatingTask_S3,2021.1.4,Win32,60.0240096,,,,,,,,,
,,,,,,,,,,,,0,3,3,3,1,fourth,13,26,F,R,IMT,2021-07-11_16h09.55.365,ImageRatingTask_S3,2021.1.4,Win32,60.0240096,,,,,,,,,
,,,,,,,,,,,,0,4,4,4,1,fifth,13,26,F,R,IMT,2021-07-11_16h09.55.365,ImageRatingTask_S3,2021.1.4,Win32,60.0240096,,,,,,,,,
,,,,,,,,,,,,0,5,5,5,1,sixth,13,26,F,R,IMT,2021-07-11_16h09.55.365,ImageRatingTask_S3,2021.1.4,Win32,60.0240096,,,,,,,,,
,,,,,,,,,,,,0,6,6,6,1,seventh,13,26,F,R,IMT,2021-07-11_16h09.55.365,ImageRatingTask_S3,2021.1.4,Win32,60.0240096,,,,,,,,,
,,,,,,,,,,,,0,7,7,7,1,last,13,26,F,R,IMT,2021-07-11_16h09.55.365,ImageRatingTask_S3,2021.1.4,Win32,60.0240096,,,,,,,,,
,,,,,,,,,,,,,,,,,,13,26,F,R,IMT,2021-07-11_16h09.55.365,ImageRatingTask_S3,2021.1.4,Win32,60.0240096,0,13,13,151,1,DreamStudyImages_rs1000x750g/Vehicles/Tornado 1.jpg,,,
,,2,2.422,7,1.206,2,4.672,1,0.695,3,1.708,0,0,0,0,1,main,13,26,F,R,IMT,2021-07-11_16h09.55.365,ImageRatingTask_S3,2021.1.4,Win32,60.0240096,,,,,,,,,
,,,,,,,,,,,,0,1,1,1,1,second,13,26,F,R,IMT,2021-07-11_16h09.55.365,ImageRatingTask_S3,2021.1.4,Win32,60.0240096,,,,,,,,,
,,,,,,,,,,,,0,2,2,2,1,third,13,26,F,R,IMT,2021-07-11_16h09.55.365,ImageRatingTask_S3,2021.1.4,Win32,60.0240096,,,,,,,,,
,,,,,,,,,,,,0,3,3,3,1,fourth,13,26,F,R,IMT,2021-07-11_16h09.55.365,ImageRatingTask_S3,2021.1.4,Win32,60.0240096,,,,,,,,,
,,,,,,,,,,,,0,4,4,4,1,fifth,13,26,F,R,IMT,2021-07-11_16h09.55.365,ImageRatingTask_S3,2021.1.4,Win32,60.0240096,,,,,,,,,
,,,,,,,,,,,,0,5,5,5,1,sixth,13,26,F,R,IMT,2021-07-11_16h09.55.365,ImageRatingTask_S3,2021.1.4,Win32,60.0240096,,,,,,,,,
,,,,,,,,,,,,0,6,6,6,1,seventh,13,26,F,R,IMT,2021-07-11_16h09.55.365,ImageRatingTask_S3,2021.1.4,Win32,60.0240096,,,,,,,,,
,,,,,,,,,,,,0,7,7,7,1,last,13,26,F,R,IMT,2021-07-11_16h09.55.365,ImageRatingTask_S3,2021.1.4,Win32,60.0240096,,,,,,,,,
,,,,,,,,,,,,,,,,,,13,26,F,R,IMT,2021-07-11_16h09.55.365,ImageRatingTask_S3,2021.1.4,Win32,60.0240096,0,14,14,133,1,DreamStudyImages_rs1000x750g/Mammals/IAPS9180_deadseals.jpg,,,
,,6,2.507,3,1.486,9,4.081,1,0.983,3,0.29,0,0,0,0,1,main,13,26,F,R,IMT,2021-07-11_16h09.55.365,ImageRatingTask_S3,2021.1.4,Win32,60.0240096,,,,,,,,,
,,,,,,,,,,,,0,1,1,1,1,second,13,26,F,R,IMT,2021-07-11_16h09.55.365,ImageRatingTask_S3,2021.1.4,Win32,60.0240096,,,,,,,,,
,,,,,,,,,,,,0,2,2,2,1,third,13,26,F,R,IMT,2021-07-11_16h09.55.365,ImageRatingTask_S3,2021.1.4,Win32,60.0240096,,,,,,,,,
,,,,,,,,,,,,0,3,3,3,1,fourth,13,26,F,R,IMT,2021-07-11_16h09.55.365,ImageRatingTask_S3,2021.1.4,Win32,60.0240096,,,,,,,,,
,,,,,,,,,,,,0,4,4,4,1,fifth,13,26,F,R,IMT,2021-07-11_16h09.55.365,ImageRatingTask_S3,2021.1.4,Win32,60.0240096,,,,,,,,,
,,,,,,,,,,,,0,5,5,5,1,sixth,13,26,F,R,IMT,2021-07-11_16h09.55.365,ImageRatingTask_S3,2021.1.4,Win32,60.0240096,,,,,,,,,
,,,,,,,,,,,,0,6,6,6,1,seventh,13,26,F,R,IMT,2021-07-11_16h09.55.365,ImageRatingTask_S3,2021.1.4,Win32,60.0240096,,,,,,,,,
,,,,,,,,,,,,0,7,7,7,1,last,13,26,F,R,IMT,2021-07-11_16h09.55.365,ImageRatingTask_S3,2021.1.4,Win32,60.0240096,,,,,,,,,
,,,,,,,,,,,,,,,,,,13,26,F,R,IMT,2021-07-11_16h09.55.365,ImageRatingTask_S3,2021.1.4,Win32,60.0240096,0,15,15,62,1,DreamStudyImages_rs1000x750g/Mammals/Animals_117_h.jpg,,,
,,5,2.019,1,0.363,2,3.411,1,1.298,7,0.766,0,0,0,0,1,main,13,26,F,R,IMT,2021-07-11_16h09.55.365,ImageRatingTask_S3,2021.1.4,Win32,60.0240096,,,,,,,,,
,,,,,,,,,,,,0,1,1,1,1,second,13,26,F,R,IMT,2021-07-11_16h09.55.365,ImageRatingTask_S3,2021.1.4,Win32,60.0240096,,,,,,,,,
,,,,,,,,,,,,0,2,2,2,1,third,13,26,F,R,IMT,2021-07-11_16h09.55.365,ImageRatingTask_S3,2021.1.4,Win32,60.0240096,,,,,,,,,
,,,,,,,,,,,,0,3,3,3,1,fourth,13,26,F,R,IMT,2021-07-11_16h09.55.365,ImageRatingTask_S3,2021.1.4,Win32,60.0240096,,,,,,,,,
,,,,,,,,,,,,0,4,4,4,1,fifth,13,26,F,R,IMT,2021-07-11_16h09.55.365,ImageRatingTask_S3,2021.1.4,Win32,60.0240096,,,,,,,,,
,,,,,,,,,,,,0,5,5,5,1,sixth,13,26,F,R,IMT,2021-07-11_16h09.55.365,ImageRatingTask_S3,2021.1.4,Win32,60.0240096,,,,,,,,,
,,,,,,,,,,,,0,6,6,6,1,seventh,13,26,F,R,IMT,2021-07-11_16h09.55.365,ImageRatingTask_S3,2021.1.4,Win32,60.0240096,,,,,,,,,
,,,,,,,,,,,,0,7,7,7,1,last,13,26,F,R,IMT,2021-07-11_16h09.55.365,ImageRatingTask_S3,2021.1.4,Win32,60.0240096,,,,,,,,,
,,,,,,,,,,,,,,,,,,13,26,F,R,IMT,2021-07-11_16h09.55.365,ImageRatingTask_S3,2021.1.4,Win32,60.0240096,0,16,16,51,1,DreamStudyImages_rs1000x750g/Vehicles/7590.jpg,,,
,,6,1.598,3,1.038,9,1.184,1,0.422,8,1.902,0,0,0,0,1,main,13,26,F,R,IMT,2021-07-11_16h09.55.365,ImageRatingTask_S3,2021.1.4,Win32,60.0240096,,,,,,,,,
,,,,,,,,,,,,0,1,1,1,1,second,13,26,F,R,IMT,2021-07-11_16h09.55.365,ImageRatingTask_S3,2021.1.4,Win32,60.0240096,,,,,,,,,
,,,,,,,,,,,,0,2,2,2,1,third,13,26,F,R,IMT,2021-07-11_16h09.55.365,ImageRatingTask_S3,2021.1.4,Win32,60.0240096,,,,,,,,,
,,,,,,,,,,,,0,3,3,3,1,fourth,13,26,F,R,IMT,2021-07-11_16h09.55.365,ImageRatingTask_S3,2021.1.4,Win32,60.0240096,,,,,,,,,
,,,,,,,,,,,,0,4,4,4,1,fifth,13,26,F,R,IMT,2021-07-11_16h09.55.365,ImageRatingTask_S3,2021.1.4,Win32,60.0240096,,,,,,,,,
,,,,,,,,,,,,0,5,5,5,1,sixth,13,26,F,R,IMT,2021-07-11_16h09.55.365,ImageRatingTask_S3,2021.1.4,Win32,60.0240096,,,,,,,,,
,,,,,,,,,,,,0,6,6,6,1,seventh,13,26,F,R,IMT,2021-07-11_16h09.55.365,ImageRatingTask_S3,2021.1.4,Win32,60.0240096,,,,,,,,,
,,,,,,,,,,,,0,7,7,7,1,last,13,26,F,R,IMT,2021-07-11_16h09.55.365,ImageRatingTask_S3,2021.1.4,Win32,60.0240096,,,,,,,,,
,,,,,,,,,,,,,,,,,,13,26,F,R,IMT,2021-07-11_16h09.55.365,ImageRatingTask_S3,2021.1.4,Win32,60.0240096,0,17,17,5,1,DreamStudyImages_rs1000x750g/Water/sunsetpontoon.jpg,,,
,,5,1.72,1,0.116,9,1.332,1,0.482,7,2.294,0,0,0,0,1,main,13,26,F,R,IMT,2021-07-11_16h09.55.365,ImageRatingTask_S3,2021.1.4,Win32,60.0240096,,,,,,,,,
,,,,,,,,,,,,0,1,1,1,1,second,13,26,F,R,IMT,2021-07-11_16h09.55.365,ImageRatingTask_S3,2021.1.4,Win32,60.0240096,,,,,,,,,
,,,,,,,,,,,,0,2,2,2,1,third,13,26,F,R,IMT,2021-07-11_16h09.55.365,ImageRatingTask_S3,2021.1.4,Win32,60.0240096,,,,,,,,,
,,,,,,,,,,,,0,3,3,3,1,fourth,13,26,F,R,IMT,2021-07-11_16h09.55.365,ImageRatingTask_S3,2021.1.4,Win32,60.0240096,,,,,,,,,
,,,,,,,,,,,,0,4,4,4,1,fifth,13,26,F,R,IMT,2021-07-11_16h09.55.365,ImageRatingTask_S3,2021.1.4,Win32,60.0240096,,,,,,,,,
,,,,,,,,,,,,0,5,5,5,1,sixth,13,26,F,R,IMT,2021-07-11_16h09.55.365,ImageRatingTask_S3,2021.1.4,Win32,60.0240096,,,,,,,,,
,,,,,,,,,,,,0,6,6,6,1,seventh,13,26,F,R,IMT,2021-07-11_16h09.55.365,ImageRatingTask_S3,2021.1.4,Win32,60.0240096,,,,,,,,,
,,,,,,,,,,,,0,7,7,7,1,last,13,26,F,R,IMT,2021-07-11_16h09.55.365,ImageRatingTask_S3,2021.1.4,Win32,60.0240096,,,,,,,,,
,,,,,,,,,,,,,,,,,,13,26,F,R,IMT,2021-07-11_16h09.55.365,ImageRatingTask_S3,2021.1.4,Win32,60.0240096,0,18,18,157,1,DreamStudyImages_rs1000x750g/Vehicles/Objects_250_h.jpg,,,
,,2,1.724,8,2.387,8,1.833,1,1.214,2,0.494,0,0,0,0,1,main,13,26,F,R,IMT,2021-07-11_16h09.55.365,ImageRatingTask_S3,2021.1.4,Win32,60.0240096,,,,,,,,,
,,,,,,,,,,,,0,1,1,1,1,second,13,26,F,R,IMT,2021-07-11_16h09.55.365,ImageRatingTask_S3,2021.1.4,Win32,60.0240096,,,,,,,,,
,,,,,,,,,,,,0,2,2,2,1,third,13,26,F,R,IMT,2021-07-11_16h09.55.365,ImageRatingTask_S3,2021.1.4,Win32,60.0240096,,,,,,,,,
,,,,,,,,,,,,0,3,3,3,1,fourth,13,26,F,R,IMT,2021-07-11_16h09.55.365,ImageRatingTask_S3,2021.1.4,Win32,60.0240096,,,,,,,,,
,,,,,,,,,,,,0,4,4,4,1,fifth,13,26,F,R,IMT,2021-07-11_16h09.55.365,ImageRatingTask_S3,2021.1.4,Win32,60.0240096,,,,,,,,,
,,,,,,,,,,,,0,5,5,5,1,sixth,13,26,F,R,IMT,2021-07-11_16h09.55.365,ImageRatingTask_S3,2021.1.4,Win32,60.0240096,,,,,,,,,
,,,,,,,,,,,,0,6,6,6,1,seventh,13,26,F,R,IMT,2021-07-11_16h09.55.365,ImageRatingTask_S3,2021.1.4,Win32,60.0240096,,,,,,,,,
,,,,,,,,,,,,0,7,7,7,1,last,13,26,F,R,IMT,2021-07-11_16h09.55.365,ImageRatingTask_S3,2021.1.4,Win32,60.0240096,,,,,,,,,
,,,,,,,,,,,,,,,,,,13,26,F,R,IMT,2021-07-11_16h09.55.365,ImageRatingTask_S3,2021.1.4,Win32,60.0240096,0,19,19,90,1,DreamStudyImages_rs1000x750g/Children/Faces_005_h.jpg,,,
,,5,2.018,1,0.238,7,3.484,1,0.799,1,0.183,0,0,0,0,1,main,13,26,F,R,IMT,2021-07-11_16h09.55.365,ImageRatingTask_S3,2021.1.4,Win32,60.0240096,,,,,,,,,
,,,,,,,,,,,,0,1,1,1,1,second,13,26,F,R,IMT,2021-07-11_16h09.55.365,ImageRatingTask_S3,2021.1.4,Win32,60.0240096,,,,,,,,,
,,,,,,,,,,,,0,2,2,2,1,third,13,26,F,R,IMT,2021-07-11_16h09.55.365,ImageRatingTask_S3,2021.1.4,Win32,60.0240096,,,,,,,,,
,,,,,,,,,,,,0,3,3,3,1,fourth,13,26,F,R,IMT,2021-07-11_16h09.55.365,ImageRatingTask_S3,2021.1.4,Win32,60.0240096,,,,,,,,,
,,,,,,,,,,,,0,4,4,4,1,fifth,13,26,F,R,IMT,2021-07-11_16h09.55.365,ImageRatingTask_S3,2021.1.4,Win32,60.0240096,,,,,,,,,
,,,,,,,,,,,,0,5,5,5,1,sixth,13,26,F,R,IMT,2021-07-11_16h09.55.365,ImageRatingTask_S3,2021.1.4,Win32,60.0240096,,,,,,,,,
,,,,,,,,,,,,0,6,6,6,1,seventh,13,26,F,R,IMT,2021-07-11_16h09.55.365,ImageRatingTask_S3,2021.1.4,Win32,60.0240096,,,,,,,,,
,,,,,,,,,,,,0,7,7,7,1,last,13,26,F,R,IMT,2021-07-11_16h09.55.365,ImageRatingTask_S3,2021.1.4,Win32,60.0240096,,,,,,,,,
,,,,,,,,,,,,,,,,,,13,26,F,R,IMT,2021-07-11_16h09.55.365,ImageRatingTask_S3,2021.1.4,Win32,60.0240096,0,20,20,2,1,DreamStudyImages_rs1000x750g/Mammals/IAPS1540_cat.jpg,,,
,,5,3.354,3,3.254,6,1.824,1,1.477,2,0.416,0,0,0,0,1,main,13,26,F,R,IMT,2021-07-11_16h09.55.365,ImageRatingTask_S3,2021.1.4,Win32,60.0240096,,,,,,,,,
,,,,,,,,,,,,0,1,1,1,1,second,13,26,F,R,IMT,2021-07-11_16h09.55.365,ImageRatingTask_S3,2021.1.4,Win32,60.0240096,,,,,,,,,
,,,,,,,,,,,,0,2,2,2,1,third,13,26,F,R,IMT,2021-07-11_16h09.55.365,ImageRatingTask_S3,2021.1.4,Win32,60.0240096,,,,,,,,,
,,,,,,,,,,,,0,3,3,3,1,fourth,13,26,F,R,IMT,2021-07-11_16h09.55.365,ImageRatingTask_S3,2021.1.4,Win32,60.0240096,,,,,,,,,
,,,,,,,,,,,,0,4,4,4,1,fifth,13,26,F,R,IMT,2021-07-11_16h09.55.365,ImageRatingTask_S3,2021.1.4,Win32,60.0240096,,,,,,,,,
,,,,,,,,,,,,0,5,5,5,1,sixth,13,26,F,R,IMT,2021-07-11_16h09.55.365,ImageRatingTask_S3,2021.1.4,Win32,60.0240096,,,,,,,,,
,,,,,,,,,,,,0,6,6,6,1,seventh,13,26,F,R,IMT,2021-07-11_16h09.55.365,ImageRatingTask_S3,2021.1.4,Win32,60.0240096,,,,,,,,,
,,,,,,,,,,,,0,7,7,7,1,last,13,26,F,R,IMT,2021-07-11_16h09.55.365,ImageRatingTask_S3,2021.1.4,Win32,60.0240096,,,,,,,,,
,,,,,,,,,,,,,,,,,,13,26,F,R,IMT,2021-07-11_16h09.55.365,ImageRatingTask_S3,2021.1.4,Win32,60.0240096,0,21,21,3,1,DreamStudyImages_rs1000x750g/Children/IAPS2070_baby8.jpg,,,
,,4,16.827,3,1.162,9,1.818,0,2.432,,,0,0,0,0,1,main,13,26,F,R,IMT,2021-07-11_16h09.55.365,ImageRatingTask_S3,2021.1.4,Win32,60.0240096,,,,,,,,,
,,,,,,,,,,,,0,1,1,1,1,second,13,26,F,R,IMT,2021-07-11_16h09.55.365,ImageRatingTask_S3,2021.1.4,Win32,60.0240096,,,,,,,,,
,,,,,,,,,,,,0,2,2,2,1,third,13,26,F,R,IMT,2021-07-11_16h09.55.365,ImageRatingTask_S3,2021.1.4,Win32,60.0240096,,,,,,,,,
,,,,,,,,,,,,0,3,3,3,1,fourth,13,26,F,R,IMT,2021-07-11_16h09.55.365,ImageRatingTask_S3,2021.1.4,Win32,60.0240096,,,,,,,,,
,,,,,,,,,,,,0,4,4,4,1,fifth,13,26,F,R,IMT,2021-07-11_16h09.55.365,ImageRatingTask_S3,2021.1.4,Win32,60.0240096,,,,,,,,,
,,,,,,,,,,,,0,5,5,5,1,sixth,13,26,F,R,IMT,2021-07-11_16h09.55.365,ImageRatingTask_S3,2021.1.4,Win32,60.0240096,,,,,,,,,
,,,,,,,,,,,,0,6,6,6,1,seventh,13,26,F,R,IMT,2021-07-11_16h09.55.365,ImageRatingTask_S3,2021.1.4,Win32,60.0240096,,,,,,,,,
,,,,,,,,,,,,0,7,7,7,1,last,13,26,F,R,IMT,2021-07-11_16h09.55.365,ImageRatingTask_S3,2021.1.4,Win32,60.0240096,,,,,,,,,
,,,,,,,,,,,,,,,,,,13,26,F,R,IMT,2021-07-11_16h09.55.365,ImageRatingTask_S3,2021.1.4,Win32,60.0240096,0,22,22,113,1,DreamStudyImages_rs1000x750g/Food/food_neg_5.jpg,,,
,,4,2.499,8,1.545,9,3.932,1,1.007,3,2.157,0,0,0,0,1,main,13,26,F,R,IMT,2021-07-11_16h09.55.365,ImageRatingTask_S3,2021.1.4,Win32,60.0240096,,,,,,,,,
,,,,,,,,,,,,0,1,1,1,1,second,13,26,F,R,IMT,2021-07-11_16h09.55.365,ImageRatingTask_S3,2021.1.4,Win32,60.0240096,,,,,,,,,
,,,,,,,,,,,,0,2,2,2,1,third,13,26,F,R,IMT,2021-07-11_16h09.55.365,ImageRatingTask_S3,2021.1.4,Win32,60.0240096,,,,,,,,,
,,,,,,,,,,,,0,3,3,3,1,fourth,13,26,F,R,IMT,2021-07-11_16h09.55.365,ImageRatingTask_S3,2021.1.4,Win32,60.0240096,,,,,,,,,
,,,,,,,,,,,,0,4,4,4,1,fifth,13,26,F,R,IMT,2021-07-11_16h09.55.365,ImageRatingTask_S3,2021.1.4,Win32,60.0240096,,,,,,,,,
,,,,,,,,,,,,0,5,5,5,1,sixth,13,26,F,R,IMT,2021-07-11_16h09.55.365,ImageRatingTask_S3,2021.1.4,Win32,60.0240096,,,,,,,,,
,,,,,,,,,,,,0,6,6,6,1,seventh,13,26,F,R,IMT,2021-07-11_16h09.55.365,ImageRatingTask_S3,2021.1.4,Win32,60.0240096,,,,,,,,,
,,,,,,,,,,,,0,7,7,7,1,last,13,26,F,R,IMT,2021-07-11_16h09.55.365,ImageRatingTask_S3,2021.1.4,Win32,60.0240096,,,,,,,,,
,,,,,,,,,,,,,,,,,,13,26,F,R,IMT,2021-07-11_16h09.55.365,ImageRatingTask_S3,2021.1.4,Win32,60.0240096,0,23,23,25,1,DreamStudyImages_rs1000x750g/Mammals/Animals_012_h.jpg,,,
,,5,1.101,1,1.72,8,6.699,1,1.934,3,0.798,0,0,0,0,1,main,13,26,F,R,IMT,2021-07-11_16h09.55.365,ImageRatingTask_S3,2021.1.4,Win32,60.0240096,,,,,,,,,
,,,,,,,,,,,,0,1,1,1,1,second,13,26,F,R,IMT,2021-07-11_16h09.55.365,ImageRatingTask_S3,2021.1.4,Win32,60.0240096,,,,,,,,,
,,,,,,,,,,,,0,2,2,2,1,third,13,26,F,R,IMT,2021-07-11_16h09.55.365,ImageRatingTask_S3,2021.1.4,Win32,60.0240096,,,,,,,,,
,,,,,,,,,,,,0,3,3,3,1,fourth,13,26,F,R,IMT,2021-07-11_16h09.55.365,ImageRatingTask_S3,2021.1.4,Win32,60.0240096,,,,,,,,,
,,,,,,,,,,,,0,4,4,4,1,fifth,13,26,F,R,IMT,2021-07-11_16h09.55.365,ImageRatingTask_S3,2021.1.4,Win32,60.0240096,,,,,,,,,
,,,,,,,,,,,,0,5,5,5,1,sixth,13,26,F,R,IMT,2021-07-11_16h09.55.365,ImageRatingTask_S3,2021.1.4,Win32,60.0240096,,,,,,,,,
,,,,,,,,,,,,0,6,6,6,1,seventh,13,26,F,R,IMT,2021-07-11_16h09.55.365,ImageRatingTask_S3,2021.1.4,Win32,60.0240096,,,,,,,,,
,,,,,,,,,,,,0,7,7,7,1,last,13,26,F,R,IMT,2021-07-11_16h09.55.365,ImageRatingTask_S3,2021.1.4,Win32,60.0240096,,,,,,,,,
,,,,,,,,,,,,,,,,,,13,26,F,R,IMT,2021-07-11_16h09.55.365,ImageRatingTask_S3,2021.1.4,Win32,60.0240096,0,24,24,100,1,DreamStudyImages_rs1000x750g/Mammals/Animals_134_h.jpg,,,
,,5,1.537,1,2.673,6,1.482,1,1.032,5,1.05,0,0,0,0,1,main,13,26,F,R,IMT,2021-07-11_16h09.55.365,ImageRatingTask_S3,2021.1.4,Win32,60.0240096,,,,,,,,,
,,,,,,,,,,,,0,1,1,1,1,second,13,26,F,R,IMT,2021-07-11_16h09.55.365,ImageRatingTask_S3,2021.1.4,Win32,60.0240096,,,,,,,,,
,,,,,,,,,,,,0,2,2,2,1,third,13,26,F,R,IMT,2021-07-11_16h09.55.365,ImageRatingTask_S3,2021.1.4,Win32,60.0240096,,,,,,,,,
,,,,,,,,,,,,0,3,3,3,1,fourth,13,26,F,R,IMT,2021-07-11_16h09.55.365,ImageRatingTask_S3,2021.1.4,Win32,60.0240096,,,,,,,,,
,,,,,,,,,,,,0,4,4,4,1,fifth,13,26,F,R,IMT,2021-07-11_16h09.55.365,ImageRatingTask_S3,2021.1.4,Win32,60.0240096,,,,,,,,,
,,,,,,,,,,,,0,5,5,5,1,sixth,13,26,F,R,IMT,2021-07-11_16h09.55.365,ImageRatingTask_S3,2021.1.4,Win32,60.0240096,,,,,,,,,
,,,,,,,,,,,,0,6,6,6,1,seventh,13,26,F,R,IMT,2021-07-11_16h09.55.365,ImageRatingTask_S3,2021.1.4,Win32,60.0240096,,,,,,,,,
,,,,,,,,,,,,0,7,7,7,1,last,13,26,F,R,IMT,2021-07-11_16h09.55.365,ImageRatingTask_S3,2021.1.4,Win32,60.0240096,,,,,,,,,
,,,,,,,,,,,,,,,,,,13,26,F,R,IMT,2021-07-11_16h09.55.365,ImageRatingTask_S3,2021.1.4,Win32,60.0240096,0,25,25,65,1,DreamStudyImages_rs1000x750g/Food/IAPS7286_dessert2.jpg,,,
,,5,1.39,1,0.425,9,1.912,1,0.714,5,0.613,0,0,0,0,1,main,13,26,F,R,IMT,2021-07-11_16h09.55.365,ImageRatingTask_S3,2021.1.4,Win32,60.0240096,,,,,,,,,
,,,,,,,,,,,,0,1,1,1,1,second,13,26,F,R,IMT,2021-07-11_16h09.55.365,ImageRatingTask_S3,2021.1.4,Win32,60.0240096,,,,,,,,,
,,,,,,,,,,,,0,2,2,2,1,third,13,26,F,R,IMT,2021-07-11_16h09.55.365,ImageRatingTask_S3,2021.1.4,Win32,60.0240096,,,,,,,,,
,,,,,,,,,,,,0,3,3,3,1,fourth,13,26,F,R,IMT,2021-07-11_16h09.55.365,ImageRatingTask_S3,2021.1.4,Win32,60.0240096,,,,,,,,,
,,,,,,,,,,,,0,4,4,4,1,fifth,13,26,F,R,IMT,2021-07-11_16h09.55.365,ImageRatingTask_S3,2021.1.4,Win32,60.0240096,,,,,,,,,
,,,,,,,,,,,,0,5,5,5,1,sixth,13,26,F,R,IMT,2021-07-11_16h09.55.365,ImageRatingTask_S3,2021.1.4,Win32,60.0240096,,,,,,,,,
,,,,,,,,,,,,0,6,6,6,1,seventh,13,26,F,R,IMT,2021-07-11_16h09.55.365,ImageRatingTask_S3,2021.1.4,Win32,60.0240096,,,,,,,,,
,,,,,,,,,,,,0,7,7,7,1,last,13,26,F,R,IMT,2021-07-11_16h09.55.365,ImageRatingTask_S3,2021.1.4,Win32,60.0240096,,,,,,,,,
,,,,,,,,,,,,,,,,,,13,26,F,R,IMT,2021-07-11_16h09.55.365,ImageRatingTask_S3,2021.1.4,Win32,60.0240096,0,26,26,68,1,DreamStudyImages_rs1000x750g/Food/IAPS7461_fries2.jpg,,,
,,5,1.242,3,1.607,9,1.449,1,1.196,8,2.044,0,0,0,0,1,main,13,26,F,R,IMT,2021-07-11_16h09.55.365,ImageRatingTask_S3,2021.1.4,Win32,60.0240096,,,,,,,,,
,,,,,,,,,,,,0,1,1,1,1,second,13,26,F,R,IMT,2021-07-11_16h09.55.365,ImageRatingTask_S3,2021.1.4,Win32,60.0240096,,,,,,,,,
,,,,,,,,,,,,0,2,2,2,1,third,13,26,F,R,IMT,2021-07-11_16h09.55.365,ImageRatingTask_S3,2021.1.4,Win32,60.0240096,,,,,,,,,
,,,,,,,,,,,,0,3,3,3,1,fourth,13,26,F,R,IMT,2021-07-11_16h09.55.365,ImageRatingTask_S3,2021.1.4,Win32,60.0240096,,,,,,,,,
,,,,,,,,,,,,0,4,4,4,1,fifth,13,26,F,R,IMT,2021-07-11_16h09.55.365,ImageRatingTask_S3,2021.1.4,Win32,60.0240096,,,,,,,,,
,,,,,,,,,,,,0,5,5,5,1,sixth,13,26,F,R,IMT,2021-07-11_16h09.55.365,ImageRatingTask_S3,2021.1.4,Win32,60.0240096,,,,,,,,,
,,,,,,,,,,,,0,6,6,6,1,seventh,13,26,F,R,IMT,2021-07-11_16h09.55.365,ImageRatingTask_S3,2021.1.4,Win32,60.0240096,,,,,,,,,
,,,,,,,,,,,,0,7,7,7,1,last,13,26,F,R,IMT,2021-07-11_16h09.55.365,ImageRatingTask_S3,2021.1.4,Win32,60.0240096,,,,,,,,,
,,,,,,,,,,,,,,,,,,13,26,F,R,IMT,2021-07-11_16h09.55.365,ImageRatingTask_S3,2021.1.4,Win32,60.0240096,0,27,27,112,1,DreamStudyImages_rs1000x750g/Water/Landscapes_140_v_CHECK.jpg,,,
,,5,1.654,1,0.314,9,1.653,1,0.879,5,1.012,0,0,0,0,1,main,13,26,F,R,IMT,2021-07-11_16h09.55.365,ImageRatingTask_S3,2021.1.4,Win32,60.0240096,,,,,,,,,
,,,,,,,,,,,,0,1,1,1,1,second,13,26,F,R,IMT,2021-07-11_16h09.55.365,ImageRatingTask_S3,2021.1.4,Win32,60.0240096,,,,,,,,,
,,,,,,,,,,,,0,2,2,2,1,third,13,26,F,R,IMT,2021-07-11_16h09.55.365,ImageRatingTask_S3,2021.1.4,Win32,60.0240096,,,,,,,,,
,,,,,,,,,,,,0,3,3,3,1,fourth,13,26,F,R,IMT,2021-07-11_16h09.55.365,ImageRatingTask_S3,2021.1.4,Win32,60.0240096,,,,,,,,,
,,,,,,,,,,,,0,4,4,4,1,fifth,13,26,F,R,IMT,2021-07-11_16h09.55.365,ImageRatingTask_S3,2021.1.4,Win32,60.0240096,,,,,,,,,
,,,,,,,,,,,,0,5,5,5,1,sixth,13,26,F,R,IMT,2021-07-11_16h09.55.365,ImageRatingTask_S3,2021.1.4,Win32,60.0240096,,,,,,,,,
,,,,,,,,,,,,0,6,6,6,1,seventh,13,26,F,R,IMT,2021-07-11_16h09.55.365,ImageRatingTask_S3,2021.1.4,Win32,60.0240096,,,,,,,,,
,,,,,,,,,,,,0,7,7,7,1,last,13,26,F,R,IMT,2021-07-11_16h09.55.365,ImageRatingTask_S3,2021.1.4,Win32,60.0240096,,,,,,,,,
,,,,,,,,,,,,,,,,,,13,26,F,R,IMT,2021-07-11_16h09.55.365,ImageRatingTask_S3,2021.1.4,Win32,60.0240096,0,28,28,67,1,DreamStudyImages_rs1000x750g/Food/Objects_098_v.jpg,,,
,,7,1.664,2,1.219,9,4.054,1,2.015,2,0.263,0,0,0,0,1,main,13,26,F,R,IMT,2021-07-11_16h09.55.365,ImageRatingTask_S3,2021.1.4,Win32,60.0240096,,,,,,,,,
,,,,,,,,,,,,0,1,1,1,1,second,13,26,F,R,IMT,2021-07-11_16h09.55.365,ImageRatingTask_S3,2021.1.4,Win32,60.0240096,,,,,,,,,
,,,,,,,,,,,,0,2,2,2,1,third,13,26,F,R,IMT,2021-07-11_16h09.55.365,ImageRatingTask_S3,2021.1.4,Win32,60.0240096,,,,,,,,,
,,,,,,,,,,,,0,3,3,3,1,fourth,13,26,F,R,IMT,2021-07-11_16h09.55.365,ImageRatingTask_S3,2021.1.4,Win32,60.0240096,,,,,,,,,
,,,,,,,,,,,,0,4,4,4,1,fifth,13,26,F,R,IMT,2021-07-11_16h09.55.365,ImageRatingTask_S3,2021.1.4,Win32,60.0240096,,,,,,,,,
,,,,,,,,,,,,0,5,5,5,1,sixth,13,26,F,R,IMT,2021-07-11_16h09.55.365,ImageRatingTask_S3,2021.1.4,Win32,60.0240096,,,,,,,,,
,,,,,,,,,,,,0,6,6,6,1,seventh,13,26,F,R,IMT,2021-07-11_16h09.55.365,ImageRatingTask_S3,2021.1.4,Win32,60.0240096,,,,,,,,,
,,,,,,,,,,,,0,7,7,7,1,last,13,26,F,R,IMT,2021-07-11_16h09.55.365,ImageRatingTask_S3,2021.1.4,Win32,60.0240096,,,,,,,,,
,,,,,,,,,,,,,,,,,,13,26,F,R,IMT,2021-07-11_16h09.55.365,ImageRatingTask_S3,2021.1.4,Win32,60.0240096,0,29,29,6,1,DreamStudyImages_rs1000x750g/Children/Faces_116_h.jpg,,,
,,4,1.605,4,1.258,8,3.478,1,1.099,8,0.913,0,0,0,0,1,main,13,26,F,R,IMT,2021-07-11_16h09.55.365,ImageRatingTask_S3,2021.1.4,Win32,60.0240096,,,,,,,,,
,,,,,,,,,,,,0,1,1,1,1,second,13,26,F,R,IMT,2021-07-11_16h09.55.365,ImageRatingTask_S3,2021.1.4,Win32,60.0240096,,,,,,,,,
,,,,,,,,,,,,0,2,2,2,1,third,13,26,F,R,IMT,2021-07-11_16h09.55.365,ImageRatingTask_S3,2021.1.4,Win32,60.0240096,,,,,,,,,
,,,,,,,,,,,,0,3,3,3,1,fourth,13,26,F,R,IMT,2021-07-11_16h09.55.365,ImageRatingTask_S3,2021.1.4,Win32,60.0240096,,,,,,,,,
,,,,,,,,,,,,0,4,4,4,1,fifth,13,26,F,R,IMT,2021-07-11_16h09.55.365,ImageRatingTask_S3,2021.1.4,Win32,60.0240096,,,,,,,,,
,,,,,,,,,,,,0,5,5,5,1,sixth,13,26,F,R,IMT,2021-07-11_16h09.55.365,ImageRatingTask_S3,2021.1.4,Win32,60.0240096,,,,,,,,,
,,,,,,,,,,,,0,6,6,6,1,seventh,13,26,F,R,IMT,2021-07-11_16h09.55.365,ImageRatingTask_S3,2021.1.4,Win32,60.0240096,,,,,,,,,
,,,,,,,,,,,,0,7,7,7,1,last,13,26,F,R,IMT,2021-07-11_16h09.55.365,ImageRatingTask_S3,2021.1.4,Win32,60.0240096,,,,,,,,,
,,,,,,,,,,,,,,,,,,13,26,F,R,IMT,2021-07-11_16h09.55.365,ImageRatingTask_S3,2021.1.4,Win32,60.0240096,0,30,30,84,1,DreamStudyImages_rs1000x750g/Water/Flood 2.jpg,,,
,,5,1.783,1,0.378,7,3.506,1,1.485,6,0.781,0,0,0,0,1,main,13,26,F,R,IMT,2021-07-11_16h09.55.365,ImageRatingTask_S3,2021.1.4,Win32,60.0240096,,,,,,,,,
,,,,,,,,,,,,0,1,1,1,1,second,13,26,F,R,IMT,2021-07-11_16h09.55.365,ImageRatingTask_S3,2021.1.4,Win32,60.0240096,,,,,,,,,
,,,,,,,,,,,,0,2,2,2,1,third,13,26,F,R,IMT,2021-07-11_16h09.55.365,ImageRatingTask_S3,2021.1.4,Win32,60.0240096,,,,,,,,,
,,,,,,,,,,,,0,3,3,3,1,fourth,13,26,F,R,IMT,2021-07-11_16h09.55.365,ImageRatingTask_S3,2021.1.4,Win32,60.0240096,,,,,,,,,
,,,,,,,,,,,,0,4,4,4,1,fifth,13,26,F,R,IMT,2021-07-11_16h09.55.365,ImageRatingTask_S3,2021.1.4,Win32,60.0240096,,,,,,,,,
,,,,,,,,,,,,0,5,5,5,1,sixth,13,26,F,R,IMT,2021-07-11_16h09.55.365,ImageRatingTask_S3,2021.1.4,Win32,60.0240096,,,,,,,,,
,,,,,,,,,,,,0,6,6,6,1,seventh,13,26,F,R,IMT,2021-07-11_16h09.55.365,ImageRatingTask_S3,2021.1.4,Win32,60.0240096,,,,,,,,,
,,,,,,,,,,,,0,7,7,7,1,last,13,26,F,R,IMT,2021-07-11_16h09.55.365,ImageRatingTask_S3,2021.1.4,Win32,60.0240096,,,,,,,,,
,,,,,,,,,,,,,,,,,,13,26,F,R,IMT,2021-07-11_16h09.55.365,ImageRatingTask_S3,2021.1.4,Win32,60.0240096,0,31,31,98,1,DreamStudyImages_rs1000x750g/Houses/IAPS7180_entrance.jpg,,,
,,5,1.17,1,0.431,8,2.152,1,0.899,7,0.833,0,0,0,0,1,main,13,26,F,R,IMT,2021-07-11_16h09.55.365,ImageRatingTask_S3,2021.1.4,Win32,60.0240096,,,,,,,,,
,,,,,,,,,,,,0,1,1,1,1,second,13,26,F,R,IMT,2021-07-11_16h09.55.365,ImageRatingTask_S3,2021.1.4,Win32,60.0240096,,,,,,,,,
,,,,,,,,,,,,0,2,2,2,1,third,13,26,F,R,IMT,2021-07-11_16h09.55.365,ImageRatingTask_S3,2021.1.4,Win32,60.0240096,,,,,,,,,
,,,,,,,,,,,,0,3,3,3,1,fourth,13,26,F,R,IMT,2021-07-11_16h09.55.365,ImageRatingTask_S3,2021.1.4,Win32,60.0240096,,,,,,,,,
,,,,,,,,,,,,0,4,4,4,1,fifth,13,26,F,R,IMT,2021-07-11_16h09.55.365,ImageRatingTask_S3,2021.1.4,Win32,60.0240096,,,,,,,,,
,,,,,,,,,,,,0,5,5,5,1,sixth,13,26,F,R,IMT,2021-07-11_16h09.55.365,ImageRatingTask_S3,2021.1.4,Win32,60.0240096,,,,,,,,,
,,,,,,,,,,,,0,6,6,6,1,seventh,13,26,F,R,IMT,2021-07-11_16h09.55.365,ImageRatingTask_S3,2021.1.4,Win32,60.0240096,,,,,,,,,
,,,,,,,,,,,,0,7,7,7,1,last,13,26,F,R,IMT,2021-07-11_16h09.55.365,ImageRatingTask_S3,2021.1.4,Win32,60.0240096,,,,,,,,,
,,,,,,,,,,,,,,,,,,13,26,F,R,IMT,2021-07-11_16h09.55.365,ImageRatingTask_S3,2021.1.4,Win32,60.0240096,0,32,32,153,1,DreamStudyImages_rs1000x750g/Vehicles/Objects_244_h.jpg,,,
,,5,1.559,1,0.333,9,1.831,1,0.598,5,0.64,0,0,0,0,1,main,13,26,F,R,IMT,2021-07-11_16h09.55.365,ImageRatingTask_S3,2021.1.4,Win32,60.0240096,,,,,,,,,
,,,,,,,,,,,,0,1,1,1,1,second,13,26,F,R,IMT,2021-07-11_16h09.55.365,ImageRatingTask_S3,2021.1.4,Win32,60.0240096,,,,,,,,,
,,,,,,,,,,,,0,2,2,2,1,third,13,26,F,R,IMT,2021-07-11_16h09.55.365,ImageRatingTask_S3,2021.1.4,Win32,60.0240096,,,,,,,,,
,,,,,,,,,,,,0,3,3,3,1,fourth,13,26,F,R,IMT,2021-07-11_16h09.55.365,ImageRatingTask_S3,2021.1.4,Win32,60.0240096,,,,,,,,,
,,,,,,,,,,,,0,4,4,4,1,fifth,13,26,F,R,IMT,2021-07-11_16h09.55.365,ImageRatingTask_S3,2021.1.4,Win32,60.0240096,,,,,,,,,
,,,,,,,,,,,,0,5,5,5,1,sixth,13,26,F,R,IMT,2021-07-11_16h09.55.365,ImageRatingTask_S3,2021.1.4,Win32,60.0240096,,,,,,,,,
,,,,,,,,,,,,0,6,6,6,1,seventh,13,26,F,R,IMT,2021-07-11_16h09.55.365,ImageRatingTask_S3,2021.1.4,Win32,60.0240096,,,,,,,,,
,,,,,,,,,,,,0,7,7,7,1,last,13,26,F,R,IMT,2021-07-11_16h09.55.365,ImageRatingTask_S3,2021.1.4,Win32,60.0240096,,,,,,,,,
,,,,,,,,,,,,,,,,,,13,26,F,R,IMT,2021-07-11_16h09.55.365,ImageRatingTask_S3,2021.1.4,Win32,60.0240096,0,33,33,125,1,DreamStudyImages_rs1000x750g/Food/IAPS7365_mincedmeat.jpg,,,
,,5,1.732,1,0.136,9,2.216,1,0.898,6,3.238,0,0,0,0,1,main,13,26,F,R,IMT,2021-07-11_16h09.55.365,ImageRatingTask_S3,2021.1.4,Win32,60.0240096,,,,,,,,,
,,,,,,,,,,,,0,1,1,1,1,second,13,26,F,R,IMT,2021-07-11_16h09.55.365,ImageRatingTask_S3,2021.1.4,Win32,60.0240096,,,,,,,,,
,,,,,,,,,,,,0,2,2,2,1,third,13,26,F,R,IMT,2021-07-11_16h09.55.365,ImageRatingTask_S3,2021.1.4,Win32,60.0240096,,,,,,,,,
,,,,,,,,,,,,0,3,3,3,1,fourth,13,26,F,R,IMT,2021-07-11_16h09.55.365,ImageRatingTask_S3,2021.1.4,Win32,60.0240096,,,,,,,,,
,,,,,,,,,,,,0,4,4,4,1,fifth,13,26,F,R,IMT,2021-07-11_16h09.55.365,ImageRatingTask_S3,2021.1.4,Win32,60.0240096,,,,,,,,,
,,,,,,,,,,,,0,5,5,5,1,sixth,13,26,F,R,IMT,2021-07-11_16h09.55.365,ImageRatingTask_S3,2021.1.4,Win32,60.0240096,,,,,,,,,
,,,,,,,,,,,,0,6,6,6,1,seventh,13,26,F,R,IMT,2021-07-11_16h09.55.365,ImageRatingTask_S3,2021.1.4,Win32,60.0240096,,,,,,,,,
,,,,,,,,,,,,0,7,7,7,1,last,13,26,F,R,IMT,2021-07-11_16h09.55.365,ImageRatingTask_S3,2021.1.4,Win32,60.0240096,,,,,,,,,
,,,,,,,,,,,,,,,,,,13,26,F,R,IMT,2021-07-11_16h09.55.365,ImageRatingTask_S3,2021.1.4,Win32,60.0240096,0,34,34,95,1,DreamStudyImages_rs1000x750g/Houses/Landscapes_041_h.jpg,,,
,,6,2.454,3,1.442,3,4.92,1,2.016,8,1.187,0,0,0,0,1,main,13,26,F,R,IMT,2021-07-11_16h09.55.365,ImageRatingTask_S3,2021.1.4,Win32,60.0240096,,,,,,,,,
,,,,,,,,,,,,0,1,1,1,1,second,13,26,F,R,IMT,2021-07-11_16h09.55.365,ImageRatingTask_S3,2021.1.4,Win32,60.0240096,,,,,,,,,
,,,,,,,,,,,,0,2,2,2,1,third,13,26,F,R,IMT,2021-07-11_16h09.55.365,ImageRatingTask_S3,2021.1.4,Win32,60.0240096,,,,,,,,,
,,,,,,,,,,,,0,3,3,3,1,fourth,13,26,F,R,IMT,2021-07-11_16h09.55.365,ImageRatingTask_S3,2021.1.4,Win32,60.0240096,,,,,,,,,
,,,,,,,,,,,,0,4,4,4,1,fifth,13,26,F,R,IMT,2021-07-11_16h09.55.365,ImageRatingTask_S3,2021.1.4,Win32,60.0240096,,,,,,,,,
,,,,,,,,,,,,0,5,5,5,1,sixth,13,26,F,R,IMT,2021-07-11_16h09.55.365,ImageRatingTask_S3,2021.1.4,Win32,60.0240096,,,,,,,,,
,,,,,,,,,,,,0,6,6,6,1,seventh,13,26,F,R,IMT,2021-07-11_16h09.55.365,ImageRatingTask_S3,2021.1.4,Win32,60.0240096,,,,,,,,,
,,,,,,,,,,,,0,7,7,7,1,last,13,26,F,R,IMT,2021-07-11_16h09.55.365,ImageRatingTask_S3,2021.1.4,Win32,60.0240096,,,,,,,,,
,,,,,,,,,,,,,,,,,,13,26,F,R,IMT,2021-07-11_16h09.55.365,ImageRatingTask_S3,2021.1.4,Win32,60.0240096,0,35,35,14,1,DreamStudyImages_rs1000x750g/Water/Lightning 1.jpg,,,
,,3,2.786,7,0.606,5,4.368,1,1.148,2,1.314,0,0,0,0,1,main,13,26,F,R,IMT,2021-07-11_16h09.55.365,ImageRatingTask_S3,2021.1.4,Win32,60.0240096,,,,,,,,,
,,,,,,,,,,,,0,1,1,1,1,second,13,26,F,R,IMT,2021-07-11_16h09.55.365,ImageRatingTask_S3,2021.1.4,Win32,60.0240096,,,,,,,,,
,,,,,,,,,,,,0,2,2,2,1,third,13,26,F,R,IMT,2021-07-11_16h09.55.365,ImageRatingTask_S3,2021.1.4,Win32,60.0240096,,,,,,,,,
,,,,,,,,,,,,0,3,3,3,1,fourth,13,26,F,R,IMT,2021-07-11_16h09.55.365,ImageRatingTask_S3,2021.1.4,Win32,60.0240096,,,,,,,,,
,,,,,,,,,,,,0,4,4,4,1,fifth,13,26,F,R,IMT,2021-07-11_16h09.55.365,ImageRatingTask_S3,2021.1.4,Win32,60.0240096,,,,,,,,,
,,,,,,,,,,,,0,5,5,5,1,sixth,13,26,F,R,IMT,2021-07-11_16h09.55.365,ImageRatingTask_S3,2021.1.4,Win32,60.0240096,,,,,,,,,
,,,,,,,,,,,,0,6,6,6,1,seventh,13,26,F,R,IMT,2021-07-11_16h09.55.365,ImageRatingTask_S3,2021.1.4,Win32,60.0240096,,,,,,,,,
,,,,,,,,,,,,0,7,7,7,1,last,13,26,F,R,IMT,2021-07-11_16h09.55.365,ImageRatingTask_S3,2021.1.4,Win32,60.0240096,,,,,,,,,
,,,,,,,,,,,,,,,,,,13,26,F,R,IMT,2021-07-11_16h09.55.365,ImageRatingTask_S3,2021.1.4,Win32,60.0240096,0,36,36,110,1,DreamStudyImages_rs1000x750g/Children/IAPS2900.1_boy13.jpg,,,
,,2,1.685,8,0.754,8,3.233,1,0.814,2,0.546,0,0,0,0,1,main,13,26,F,R,IMT,2021-07-11_16h09.55.365,ImageRatingTask_S3,2021.1.4,Win32,60.0240096,,,,,,,,,
,,,,,,,,,,,,0,1,1,1,1,second,13,26,F,R,IMT,2021-07-11_16h09.55.365,ImageRatingTask_S3,2021.1.4,Win32,60.0240096,,,,,,,,,
,,,,,,,,,,,,0,2,2,2,1,third,13,26,F,R,IMT,2021-07-11_16h09.55.365,ImageRatingTask_S3,2021.1.4,Win32,60.0240096,,,,,,,,,
,,,,,,,,,,,,0,3,3,3,1,fourth,13,26,F,R,IMT,2021-07-11_16h09.55.365,ImageRatingTask_S3,2021.1.4,Win32,60.0240096,,,,,,,,,
,,,,,,,,,,,,0,4,4,4,1,fifth,13,26,F,R,IMT,2021-07-11_16h09.55.365,ImageRatingTask_S3,2021.1.4,Win32,60.0240096,,,,,,,,,
,,,,,,,,,,,,0,5,5,5,1,sixth,13,26,F,R,IMT,2021-07-11_16h09.55.365,ImageRatingTask_S3,2021.1.4,Win32,60.0240096,,,,,,,,,
,,,,,,,,,,,,0,6,6,6,1,seventh,13,26,F,R,IMT,2021-07-11_16h09.55.365,ImageRatingTask_S3,2021.1.4,Win32,60.0240096,,,,,,,,,
,,,,,,,,,,,,0,7,7,7,1,last,13,26,F,R,IMT,2021-07-11_16h09.55.365,ImageRatingTask_S3,2021.1.4,Win32,60.0240096,,,,,,,,,
,,,,,,,,,,,,,,,,,,13,26,F,R,IMT,2021-07-11_16h09.55.365,ImageRatingTask_S3,2021.1.4,Win32,60.0240096,0,37,37,63,1,DreamStudyImages_rs1000x750g/Children/People_034_h.jpg,,,
,,4,2.025,2,1.36,5,4.7,1,0.431,7,1.229,0,0,0,0,1,main,13,26,F,R,IMT,2021-07-11_16h09.55.365,ImageRatingTask_S3,2021.1.4,Win32,60.0240096,,,,,,,,,
,,,,,,,,,,,,0,1,1,1,1,second,13,26,F,R,IMT,2021-07-11_16h09.55.365,ImageRatingTask_S3,2021.1.4,Win32,60.0240096,,,,,,,,,
,,,,,,,,,,,,0,2,2,2,1,third,13,26,F,R,IMT,2021-07-11_16h09.55.365,ImageRatingTask_S3,2021.1.4,Win32,60.0240096,,,,,,,,,
,,,,,,,,,,,,0,3,3,3,1,fourth,13,26,F,R,IMT,2021-07-11_16h09.55.365,ImageRatingTask_S3,2021.1.4,Win32,60.0240096,,,,,,,,,
,,,,,,,,,,,,0,4,4,4,1,fifth,13,26,F,R,IMT,2021-07-11_16h09.55.365,ImageRatingTask_S3,2021.1.4,Win32,60.0240096,,,,,,,,,
,,,,,,,,,,,,0,5,5,5,1,sixth,13,26,F,R,IMT,2021-07-11_16h09.55.365,ImageRatingTask_S3,2021.1.4,Win32,60.0240096,,,,,,,,,
,,,,,,,,,,,,0,6,6,6,1,seventh,13,26,F,R,IMT,2021-07-11_16h09.55.365,ImageRatingTask_S3,2021.1.4,Win32,60.0240096,,,,,,,,,
,,,,,,,,,,,,0,7,7,7,1,last,13,26,F,R,IMT,2021-07-11_16h09.55.365,ImageRatingTask_S3,2021.1.4,Win32,60.0240096,,,,,,,,,
,,,,,,,,,,,,,,,,,,13,26,F,R,IMT,2021-07-11_16h09.55.365,ImageRatingTask_S3,2021.1.4,Win32,60.0240096,0,38,38,107,1,DreamStudyImages_rs1000x750g/Vehicles/Plane crash 4.jpg,,,
,,5,0.77,1,0.77,8,1.534,1,0.812,5,1.617,0,0,0,0,1,main,13,26,F,R,IMT,2021-07-11_16h09.55.365,ImageRatingTask_S3,2021.1.4,Win32,60.0240096,,,,,,,,,
,,,,,,,,,,,,0,1,1,1,1,second,13,26,F,R,IMT,2021-07-11_16h09.55.365,ImageRatingTask_S3,2021.1.4,Win32,60.0240096,,,,,,,,,
,,,,,,,,,,,,0,2,2,2,1,third,13,26,F,R,IMT,2021-07-11_16h09.55.365,ImageRatingTask_S3,2021.1.4,Win32,60.0240096,,,,,,,,,
,,,,,,,,,,,,0,3,3,3,1,fourth,13,26,F,R,IMT,2021-07-11_16h09.55.365,ImageRatingTask_S3,2021.1.4,Win32,60.0240096,,,,,,,,,
,,,,,,,,,,,,0,4,4,4,1,fifth,13,26,F,R,IMT,2021-07-11_16h09.55.365,ImageRatingTask_S3,2021.1.4,Win32,60.0240096,,,,,,,,,
,,,,,,,,,,,,0,5,5,5,1,sixth,13,26,F,R,IMT,2021-07-11_16h09.55.365,ImageRatingTask_S3,2021.1.4,Win32,60.0240096,,,,,,,,,
,,,,,,,,,,,,0,6,6,6,1,seventh,13,26,F,R,IMT,2021-07-11_16h09.55.365,ImageRatingTask_S3,2021.1.4,Win32,60.0240096,,,,,,,,,
,,,,,,,,,,,,0,7,7,7,1,last,13,26,F,R,IMT,2021-07-11_16h09.55.365,ImageRatingTask_S3,2021.1.4,Win32,60.0240096,,,,,,,,,
,,,,,,,,,,,,,,,,,,13,26,F,R,IMT,2021-07-11_16h09.55.365,ImageRatingTask_S3,2021.1.4,Win32,60.0240096,0,39,39,61,1,DreamStudyImages_rs1000x750g/Food/Objects_026_v.jpg,,,
,,5,2.759,1,0.25,5,1.922,1,0.821,2,0.51,0,0,0,0,1,main,13,26,F,R,IMT,2021-07-11_16h09.55.365,ImageRatingTask_S3,2021.1.4,Win32,60.0240096,,,,,,,,,
,,,,,,,,,,,,0,1,1,1,1,second,13,26,F,R,IMT,2021-07-11_16h09.55.365,ImageRatingTask_S3,2021.1.4,Win32,60.0240096,,,,,,,,,
,,,,,,,,,,,,0,2,2,2,1,third,13,26,F,R,IMT,2021-07-11_16h09.55.365,ImageRatingTask_S3,2021.1.4,Win32,60.0240096,,,,,,,,,
,,,,,,,,,,,,0,3,3,3,1,fourth,13,26,F,R,IMT,2021-07-11_16h09.55.365,ImageRatingTask_S3,2021.1.4,Win32,60.0240096,,,,,,,,,
,,,,,,,,,,,,0,4,4,4,1,fifth,13,26,F,R,IMT,2021-07-11_16h09.55.365,ImageRatingTask_S3,2021.1.4,Win32,60.0240096,,,,,,,,,
,,,,,,,,,,,,0,5,5,5,1,sixth,13,26,F,R,IMT,2021-07-11_16h09.55.365,ImageRatingTask_S3,2021.1.4,Win32,60.0240096,,,,,,,,,
,,,,,,,,,,,,0,6,6,6,1,seventh,13,26,F,R,IMT,2021-07-11_16h09.55.365,ImageRatingTask_S3,2021.1.4,Win32,60.0240096,,,,,,,,,
,,,,,,,,,,,,0,7,7,7,1,last,13,26,F,R,IMT,2021-07-11_16h09.55.365,ImageRatingTask_S3,2021.1.4,Win32,60.0240096,,,,,,,,,
,,,,,,,,,,,,,,,,,,13,26,F,R,IMT,2021-07-11_16h09.55.365,ImageRatingTask_S3,2021.1.4,Win32,60.0240096,0,40,40,140,1,DreamStudyImages_rs1000x750g/Children/Excited face 6.jpg,,,
,,4,1.726,3,1.523,6,1.883,1,0.665,3,0.705,0,0,0,0,1,main,13,26,F,R,IMT,2021-07-11_16h09.55.365,ImageRatingTask_S3,2021.1.4,Win32,60.0240096,,,,,,,,,
,,,,,,,,,,,,0,1,1,1,1,second,13,26,F,R,IMT,2021-07-11_16h09.55.365,ImageRatingTask_S3,2021.1.4,Win32,60.0240096,,,,,,,,,
,,,,,,,,,,,,0,2,2,2,1,third,13,26,F,R,IMT,2021-07-11_16h09.55.365,ImageRatingTask_S3,2021.1.4,Win32,60.0240096,,,,,,,,,
,,,,,,,,,,,,0,3,3,3,1,fourth,13,26,F,R,IMT,2021-07-11_16h09.55.365,ImageRatingTask_S3,2021.1.4,Win32,60.0240096,,,,,,,,,
,,,,,,,,,,,,0,4,4,4,1,fifth,13,26,F,R,IMT,2021-07-11_16h09.55.365,ImageRatingTask_S3,2021.1.4,Win32,60.0240096,,,,,,,,,
,,,,,,,,,,,,0,5,5,5,1,sixth,13,26,F,R,IMT,2021-07-11_16h09.55.365,ImageRatingTask_S3,2021.1.4,Win32,60.0240096,,,,,,,,,
,,,,,,,,,,,,0,6,6,6,1,seventh,13,26,F,R,IMT,2021-07-11_16h09.55.365,ImageRatingTask_S3,2021.1.4,Win32,60.0240096,,,,,,,,,
,,,,,,,,,,,,0,7,7,7,1,last,13,26,F,R,IMT,2021-07-11_16h09.55.365,ImageRatingTask_S3,2021.1.4,Win32,60.0240096,,,,,,,,,
,,,,,,,,,,,,,,,,,,13,26,F,R,IMT,2021-07-11_16h09.55.365,ImageRatingTask_S3,2021.1.4,Win32,60.0240096,0,41,41,120,1,DreamStudyImages_rs1000x750g/Mammals/Bear 2.jpg,,,
,,6,3.985,1,0.574,8,3.333,1,0.817,5,0.545,0,0,0,0,1,main,13,26,F,R,IMT,2021-07-11_16h09.55.365,ImageRatingTask_S3,2021.1.4,Win32,60.0240096,,,,,,,,,
,,,,,,,,,,,,0,1,1,1,1,second,13,26,F,R,IMT,2021-07-11_16h09.55.365,ImageRatingTask_S3,2021.1.4,Win32,60.0240096,,,,,,,,,
,,,,,,,,,,,,0,2,2,2,1,third,13,26,F,R,IMT,2021-07-11_16h09.55.365,ImageRatingTask_S3,2021.1.4,Win32,60.0240096,,,,,,,,,
,,,,,,,,,,,,0,3,3,3,1,fourth,13,26,F,R,IMT,2021-07-11_16h09.55.365,ImageRatingTask_S3,2021.1.4,Win32,60.0240096,,,,,,,,,
,,,,,,,,,,,,0,4,4,4,1,fifth,13,26,F,R,IMT,2021-07-11_16h09.55.365,ImageRatingTask_S3,2021.1.4,Win32,60.0240096,,,,,,,,,
,,,,,,,,,,,,0,5,5,5,1,sixth,13,26,F,R,IMT,2021-07-11_16h09.55.365,ImageRatingTask_S3,2021.1.4,Win32,60.0240096,,,,,,,,,
,,,,,,,,,,,,0,6,6,6,1,seventh,13,26,F,R,IMT,2021-07-11_16h09.55.365,ImageRatingTask_S3,2021.1.4,Win32,60.0240096,,,,,,,,,
,,,,,,,,,,,,0,7,7,7,1,last,13,26,F,R,IMT,2021-07-11_16h09.55.365,ImageRatingTask_S3,2021.1.4,Win32,60.0240096,,,,,,,,,
,,,,,,,,,,,,,,,,,,13,26,F,R,IMT,2021-07-11_16h09.55.365,ImageRatingTask_S3,2021.1.4,Win32,60.0240096,0,42,42,135,1,DreamStudyImages_rs1000x750g/Food/Objects_080_h.jpg,,,
,,4,2.511,3,1.104,8,1.862,1,0.281,8,2.744,0,0,0,0,1,main,13,26,F,R,IMT,2021-07-11_16h09.55.365,ImageRatingTask_S3,2021.1.4,Win32,60.0240096,,,,,,,,,
,,,,,,,,,,,,0,1,1,1,1,second,13,26,F,R,IMT,2021-07-11_16h09.55.365,ImageRatingTask_S3,2021.1.4,Win32,60.0240096,,,,,,,,,
,,,,,,,,,,,,0,2,2,2,1,third,13,26,F,R,IMT,2021-07-11_16h09.55.365,ImageRatingTask_S3,2021.1.4,Win32,60.0240096,,,,,,,,,
,,,,,,,,,,,,0,3,3,3,1,fourth,13,26,F,R,IMT,2021-07-11_16h09.55.365,ImageRatingTask_S3,2021.1.4,Win32,60.0240096,,,,,,,,,
,,,,,,,,,,,,0,4,4,4,1,fifth,13,26,F,R,IMT,2021-07-11_16h09.55.365,ImageRatingTask_S3,2021.1.4,Win32,60.0240096,,,,,,,,,
,,,,,,,,,,,,0,5,5,5,1,sixth,13,26,F,R,IMT,2021-07-11_16h09.55.365,ImageRatingTask_S3,2021.1.4,Win32,60.0240096,,,,,,,,,
,,,,,,,,,,,,0,6,6,6,1,seventh,13,26,F,R,IMT,2021-07-11_16h09.55.365,ImageRatingTask_S3,2021.1.4,Win32,60.0240096,,,,,,,,,
,,,,,,,,,,,,0,7,7,7,1,last,13,26,F,R,IMT,2021-07-11_16h09.55.365,ImageRatingTask_S3,2021.1.4,Win32,60.0240096,,,,,,,,,
,,,,,,,,,,,,,,,,,,13,26,F,R,IMT,2021-07-11_16h09.55.365,ImageRatingTask_S3,2021.1.4,Win32,60.0240096,0,43,43,148,1,DreamStudyImages_rs1000x750g/Water/98.jpg,,,
,,4,3.17,1,0.905,6,7.016,1,0.967,6,1.738,0,0,0,0,1,main,13,26,F,R,IMT,2021-07-11_16h09.55.365,ImageRatingTask_S3,2021.1.4,Win32,60.0240096,,,,,,,,,
,,,,,,,,,,,,0,1,1,1,1,second,13,26,F,R,IMT,2021-07-11_16h09.55.365,ImageRatingTask_S3,2021.1.4,Win32,60.0240096,,,,,,,,,
,,,,,,,,,,,,0,2,2,2,1,third,13,26,F,R,IMT,2021-07-11_16h09.55.365,ImageRatingTask_S3,2021.1.4,Win32,60.0240096,,,,,,,,,
,,,,,,,,,,,,0,3,3,3,1,fourth,13,26,F,R,IMT,2021-07-11_16h09.55.365,ImageRatingTask_S3,2021.1.4,Win32,60.0240096,,,,,,,,,
,,,,,,,,,,,,0,4,4,4,1,fifth,13,26,F,R,IMT,2021-07-11_16h09.55.365,ImageRatingTask_S3,2021.1.4,Win32,60.0240096,,,,,,,,,
,,,,,,,,,,,,0,5,5,5,1,sixth,13,26,F,R,IMT,2021-07-11_16h09.55.365,ImageRatingTask_S3,2021.1.4,Win32,60.0240096,,,,,,,,,
,,,,,,,,,,,,0,6,6,6,1,seventh,13,26,F,R,IMT,2021-07-11_16h09.55.365,ImageRatingTask_S3,2021.1.4,Win32,60.0240096,,,,,,,,,
,,,,,,,,,,,,0,7,7,7,1,last,13,26,F,R,IMT,2021-07-11_16h09.55.365,ImageRatingTask_S3,2021.1.4,Win32,60.0240096,,,,,,,,,
,,,,,,,,,,,,,,,,,,13,26,F,R,IMT,2021-07-11_16h09.55.365,ImageRatingTask_S3,2021.1.4,Win32,60.0240096,0,44,44,71,1,DreamStudyImages_rs1000x750g/Houses/Landscapes_018_h_CROPPED.jpg,,,
,,5,1.202,1,0.155,8,1.564,1,1.048,3,0.449,0,0,0,0,1,main,13,26,F,R,IMT,2021-07-11_16h09.55.365,ImageRatingTask_S3,2021.1.4,Win32,60.0240096,,,,,,,,,
,,,,,,,,,,,,0,1,1,1,1,second,13,26,F,R,IMT,2021-07-11_16h09.55.365,ImageRatingTask_S3,2021.1.4,Win32,60.0240096,,,,,,,,,
,,,,,,,,,,,,0,2,2,2,1,third,13,26,F,R,IMT,2021-07-11_16h09.55.365,ImageRatingTask_S3,2021.1.4,Win32,60.0240096,,,,,,,,,
,,,,,,,,,,,,0,3,3,3,1,fourth,13,26,F,R,IMT,2021-07-11_16h09.55.365,ImageRatingTask_S3,2021.1.4,Win32,60.0240096,,,,,,,,,
,,,,,,,,,,,,0,4,4,4,1,fifth,13,26,F,R,IMT,2021-07-11_16h09.55.365,ImageRatingTask_S3,2021.1.4,Win32,60.0240096,,,,,,,,,
,,,,,,,,,,,,0,5,5,5,1,sixth,13,26,F,R,IMT,2021-07-11_16h09.55.365,ImageRatingTask_S3,2021.1.4,Win32,60.0240096,,,,,,,,,
,,,,,,,,,,,,0,6,6,6,1,seventh,13,26,F,R,IMT,2021-07-11_16h09.55.365,ImageRatingTask_S3,2021.1.4,Win32,60.0240096,,,,,,,,,
,,,,,,,,,,,,0,7,7,7,1,last,13,26,F,R,IMT,2021-07-11_16h09.55.365,ImageRatingTask_S3,2021.1.4,Win32,60.0240096,,,,,,,,,
,,,,,,,,,,,,,,,,,,13,26,F,R,IMT,2021-07-11_16h09.55.365,ImageRatingTask_S3,2021.1.4,Win32,60.0240096,0,45,45,34,1,DreamStudyImages_rs1000x750g/Mammals/Cat 6.jpg,,,
,,6,1.369,3,0.787,9,1.301,1,0.465,2,0.683,0,0,0,0,1,main,13,26,F,R,IMT,2021-07-11_16h09.55.365,ImageRatingTask_S3,2021.1.4,Win32,60.0240096,,,,,,,,,
,,,,,,,,,,,,0,1,1,1,1,second,13,26,F,R,IMT,2021-07-11_16h09.55.365,ImageRatingTask_S3,2021.1.4,Win32,60.0240096,,,,,,,,,
,,,,,,,,,,,,0,2,2,2,1,third,13,26,F,R,IMT,2021-07-11_16h09.55.365,ImageRatingTask_S3,2021.1.4,Win32,60.0240096,,,,,,,,,
,,,,,,,,,,,,0,3,3,3,1,fourth,13,26,F,R,IMT,2021-07-11_16h09.55.365,ImageRatingTask_S3,2021.1.4,Win32,60.0240096,,,,,,,,,
,,,,,,,,,,,,0,4,4,4,1,fifth,13,26,F,R,IMT,2021-07-11_16h09.55.365,ImageRatingTask_S3,2021.1.4,Win32,60.0240096,,,,,,,,,
,,,,,,,,,,,,0,5,5,5,1,sixth,13,26,F,R,IMT,2021-07-11_16h09.55.365,ImageRatingTask_S3,2021.1.4,Win32,60.0240096,,,,,,,,,
,,,,,,,,,,,,0,6,6,6,1,seventh,13,26,F,R,IMT,2021-07-11_16h09.55.365,ImageRatingTask_S3,2021.1.4,Win32,60.0240096,,,,,,,,,
,,,,,,,,,,,,0,7,7,7,1,last,13,26,F,R,IMT,2021-07-11_16h09.55.365,ImageRatingTask_S3,2021.1.4,Win32,60.0240096,,,,,,,,,
,,,,,,,,,,,,,,,,,,13,26,F,R,IMT,2021-07-11_16h09.55.365,ImageRatingTask_S3,2021.1.4,Win32,60.0240096,0,46,46,102,1,DreamStudyImages_rs1000x750g/Children/People_055_h.jpg,,,
,,4,1.288,2,0.862,9,3.187,1,0.314,3,0.766,0,0,0,0,1,main,13,26,F,R,IMT,2021-07-11_16h09.55.365,ImageRatingTask_S3,2021.1.4,Win32,60.0240096,,,,,,,,,
,,,,,,,,,,,,0,1,1,1,1,second,13,26,F,R,IMT,2021-07-11_16h09.55.365,ImageRatingTask_S3,2021.1.4,Win32,60.0240096,,,,,,,,,
,,,,,,,,,,,,0,2,2,2,1,third,13,26,F,R,IMT,2021-07-11_16h09.55.365,ImageRatingTask_S3,2021.1.4,Win32,60.0240096,,,,,,,,,
,,,,,,,,,,,,0,3,3,3,1,fourth,13,26,F,R,IMT,2021-07-11_16h09.55.365,ImageRatingTask_S3,2021.1.4,Win32,60.0240096,,,,,,,,,
,,,,,,,,,,,,0,4,4,4,1,fifth,13,26,F,R,IMT,2021-07-11_16h09.55.365,ImageRatingTask_S3,2021.1.4,Win32,60.0240096,,,,,,,,,
,,,,,,,,,,,,0,5,5,5,1,sixth,13,26,F,R,IMT,2021-07-11_16h09.55.365,ImageRatingTask_S3,2021.1.4,Win32,60.0240096,,,,,,,,,
,,,,,,,,,,,,0,6,6,6,1,seventh,13,26,F,R,IMT,2021-07-11_16h09.55.365,ImageRatingTask_S3,2021.1.4,Win32,60.0240096,,,,,,,,,
,,,,,,,,,,,,0,7,7,7,1,last,13,26,F,R,IMT,2021-07-11_16h09.55.365,ImageRatingTask_S3,2021.1.4,Win32,60.0240096,,,,,,,,,
,,,,,,,,,,,,,,,,,,13,26,F,R,IMT,2021-07-11_16h09.55.365,ImageRatingTask_S3,2021.1.4,Win32,60.0240096,0,47,47,132,1,DreamStudyImages_rs1000x750g/Children/Faces_003_h.jpg,,,
,,5,7.16,1,0.263,9,2.535,1,1.014,5,0.496,0,0,0,0,1,main,13,26,F,R,IMT,2021-07-11_16h09.55.365,ImageRatingTask_S3,2021.1.4,Win32,60.0240096,,,,,,,,,
,,,,,,,,,,,,0,1,1,1,1,second,13,26,F,R,IMT,2021-07-11_16h09.55.365,ImageRatingTask_S3,2021.1.4,Win32,60.0240096,,,,,,,,,
,,,,,,,,,,,,0,2,2,2,1,third,13,26,F,R,IMT,2021-07-11_16h09.55.365,ImageRatingTask_S3,2021.1.4,Win32,60.0240096,,,,,,,,,
,,,,,,,,,,,,0,3,3,3,1,fourth,13,26,F,R,IMT,2021-07-11_16h09.55.365,ImageRatingTask_S3,2021.1.4,Win32,60.0240096,,,,,,,,,
,,,,,,,,,,,,0,4,4,4,1,fifth,13,26,F,R,IMT,2021-07-11_16h09.55.365,ImageRatingTask_S3,2021.1.4,Win32,60.0240096,,,,,,,,,
,,,,,,,,,,,,0,5,5,5,1,sixth,13,26,F,R,IMT,2021-07-11_16h09.55.365,ImageRatingTask_S3,2021.1.4,Win32,60.0240096,,,,,,,,,
,,,,,,,,,,,,0,6,6,6,1,seventh,13,26,F,R,IMT,2021-07-11_16h09.55.365,ImageRatingTask_S3,2021.1.4,Win32,60.0240096,,,,,,,,,
,,,,,,,,,,,,0,7,7,7,1,last,13,26,F,R,IMT,2021-07-11_16h09.55.365,ImageRatingTask_S3,2021.1.4,Win32,60.0240096,,,,,,,,,
,,,,,,,,,,,,,,,,,,13,26,F,R,IMT,2021-07-11_16h09.55.365,ImageRatingTask_S3,2021.1.4,Win32,60.0240096,0,48,48,101,1,DreamStudyImages_rs1000x750g/Food/Objects_076_v.jpg,,,
,,5,1.456,1,0.425,9,3.134,1,0.832,2,0.448,0,0,0,0,1,main,13,26,F,R,IMT,2021-07-11_16h09.55.365,ImageRatingTask_S3,2021.1.4,Win32,60.0240096,,,,,,,,,
,,,,,,,,,,,,0,1,1,1,1,second,13,26,F,R,IMT,2021-07-11_16h09.55.365,ImageRatingTask_S3,2021.1.4,Win32,60.0240096,,,,,,,,,
,,,,,,,,,,,,0,2,2,2,1,third,13,26,F,R,IMT,2021-07-11_16h09.55.365,ImageRatingTask_S3,2021.1.4,Win32,60.0240096,,,,,,,,,
,,,,,,,,,,,,0,3,3,3,1,fourth,13,26,F,R,IMT,2021-07-11_16h09.55.365,ImageRatingTask_S3,2021.1.4,Win32,60.0240096,,,,,,,,,
,,,,,,,,,,,,0,4,4,4,1,fifth,13,26,F,R,IMT,2021-07-11_16h09.55.365,ImageRatingTask_S3,2021.1.4,Win32,60.0240096,,,,,,,,,
,,,,,,,,,,,,0,5,5,5,1,sixth,13,26,F,R,IMT,2021-07-11_16h09.55.365,ImageRatingTask_S3,2021.1.4,Win32,60.0240096,,,,,,,,,
,,,,,,,,,,,,0,6,6,6,1,seventh,13,26,F,R,IMT,2021-07-11_16h09.55.365,ImageRatingTask_S3,2021.1.4,Win32,60.0240096,,,,,,,,,
,,,,,,,,,,,,0,7,7,7,1,last,13,26,F,R,IMT,2021-07-11_16h09.55.365,ImageRatingTask_S3,2021.1.4,Win32,60.0240096,,,,,,,,,
,,,,,,,,,,,,,,,,,,13,26,F,R,IMT,2021-07-11_16h09.55.365,ImageRatingTask_S3,2021.1.4,Win32,60.0240096,0,49,49,48,1,DreamStudyImages_rs1000x750g/Children/Faces_073_v.jpg,,,
,,5,1.49,1,0.537,7,0.881,1,2.582,2,1.145,0,0,0,0,1,main,13,26,F,R,IMT,2021-07-11_16h09.55.365,ImageRatingTask_S3,2021.1.4,Win32,60.0240096,,,,,,,,,
,,,,,,,,,,,,0,1,1,1,1,second,13,26,F,R,IMT,2021-07-11_16h09.55.365,ImageRatingTask_S3,2021.1.4,Win32,60.0240096,,,,,,,,,
,,,,,,,,,,,,0,2,2,2,1,third,13,26,F,R,IMT,2021-07-11_16h09.55.365,ImageRatingTask_S3,2021.1.4,Win32,60.0240096,,,,,,,,,
,,,,,,,,,,,,0,3,3,3,1,fourth,13,26,F,R,IMT,2021-07-11_16h09.55.365,ImageRatingTask_S3,2021.1.4,Win32,60.0240096,,,,,,,,,
,,,,,,,,,,,,0,4,4,4,1,fifth,13,26,F,R,IMT,2021-07-11_16h09.55.365,ImageRatingTask_S3,2021.1.4,Win32,60.0240096,,,,,,,,,
,,,,,,,,,,,,0,5,5,5,1,sixth,13,26,F,R,IMT,2021-07-11_16h09.55.365,ImageRatingTask_S3,2021.1.4,Win32,60.0240096,,,,,,,,,
,,,,,,,,,,,,0,6,6,6,1,seventh,13,26,F,R,IMT,2021-07-11_16h09.55.365,ImageRatingTask_S3,2021.1.4,Win32,60.0240096,,,,,,,,,
,,,,,,,,,,,,0,7,7,7,1,last,13,26,F,R,IMT,2021-07-11_16h09.55.365,ImageRatingTask_S3,2021.1.4,Win32,60.0240096,,,,,,,,,
,,,,,,,,,,,,,,,,,,13,26,F,R,IMT,2021-07-11_16h09.55.365,ImageRatingTask_S3,2021.1.4,Win32,60.0240096,0,50,50,42,1,DreamStudyImages_rs1000x750g/Children/Excited face 3.jpg,,,
,,4,3.057,1,1.161,9,2.05,1,0.343,6,9.466,0,0,0,0,1,main,13,26,F,R,IMT,2021-07-11_16h09.55.365,ImageRatingTask_S3,2021.1.4,Win32,60.0240096,,,,,,,,,
,,,,,,,,,,,,0,1,1,1,1,second,13,26,F,R,IMT,2021-07-11_16h09.55.365,ImageRatingTask_S3,2021.1.4,Win32,60.0240096,,,,,,,,,
,,,,,,,,,,,,0,2,2,2,1,third,13,26,F,R,IMT,2021-07-11_16h09.55.365,ImageRatingTask_S3,2021.1.4,Win32,60.0240096,,,,,,,,,
,,,,,,,,,,,,0,3,3,3,1,fourth,13,26,F,R,IMT,2021-07-11_16h09.55.365,ImageRatingTask_S3,2021.1.4,Win32,60.0240096,,,,,,,,,
,,,,,,,,,,,,0,4,4,4,1,fifth,13,26,F,R,IMT,2021-07-11_16h09.55.365,ImageRatingTask_S3,2021.1.4,Win32,60.0240096,,,,,,,,,
,,,,,,,,,,,,0,5,5,5,1,sixth,13,26,F,R,IMT,2021-07-11_16h09.55.365,ImageRatingTask_S3,2021.1.4,Win32,60.0240096,,,,,,,,,
,,,,,,,,,,,,0,6,6,6,1,seventh,13,26,F,R,IMT,2021-07-11_16h09.55.365,ImageRatingTask_S3,2021.1.4,Win32,60.0240096,,,,,,,,,
,,,,,,,,,,,,0,7,7,7,1,last,13,26,F,R,IMT,2021-07-11_16h09.55.365,ImageRatingTask_S3,2021.1.4,Win32,60.0240096,,,,,,,,,
,,,,,,,,,,,,,,,,,,13,26,F,R,IMT,2021-07-11_16h09.55.365,ImageRatingTask_S3,2021.1.4,Win32,60.0240096,0,51,51,86,1,DreamStudyImages_rs1000x750g/Houses/Objects_162_h.jpg,,,
,,6,3.507,2,1.144,5,6.317,1,1.248,8,0.729,0,0,0,0,1,main,13,26,F,R,IMT,2021-07-11_16h09.55.365,ImageRatingTask_S3,2021.1.4,Win32,60.0240096,,,,,,,,,
,,,,,,,,,,,,0,1,1,1,1,second,13,26,F,R,IMT,2021-07-11_16h09.55.365,ImageRatingTask_S3,2021.1.4,Win32,60.0240096,,,,,,,,,
,,,,,,,,,,,,0,2,2,2,1,third,13,26,F,R,IMT,2021-07-11_16h09.55.365,ImageRatingTask_S3,2021.1.4,Win32,60.0240096,,,,,,,,,
,,,,,,,,,,,,0,3,3,3,1,fourth,13,26,F,R,IMT,2021-07-11_16h09.55.365,ImageRatingTask_S3,2021.1.4,Win32,60.0240096,,,,,,,,,
,,,,,,,,,,,,0,4,4,4,1,fifth,13,26,F,R,IMT,2021-07-11_16h09.55.365,ImageRatingTask_S3,2021.1.4,Win32,60.0240096,,,,,,,,,
,,,,,,,,,,,,0,5,5,5,1,sixth,13,26,F,R,IMT,2021-07-11_16h09.55.365,ImageRatingTask_S3,2021.1.4,Win32,60.0240096,,,,,,,,,
,,,,,,,,,,,,0,6,6,6,1,seventh,13,26,F,R,IMT,2021-07-11_16h09.55.365,ImageRatingTask_S3,2021.1.4,Win32,60.0240096,,,,,,,,,
,,,,,,,,,,,,0,7,7,7,1,last,13,26,F,R,IMT,2021-07-11_16h09.55.365,ImageRatingTask_S3,2021.1.4,Win32,60.0240096,,,,,,,,,
,,,,,,,,,,,,,,,,,,13,26,F,R,IMT,2021-07-11_16h09.55.365,ImageRatingTask_S3,2021.1.4,Win32,60.0240096,0,52,52,49,1,DreamStudyImages_rs1000x750g/Water/Sunset 6.jpg,,,
,,6,1.352,3,1.069,8,3.647,1,1.453,8,0.861,0,0,0,0,1,main,13,26,F,R,IMT,2021-07-11_16h09.55.365,ImageRatingTask_S3,2021.1.4,Win32,60.0240096,,,,,,,,,
,,,,,,,,,,,,0,1,1,1,1,second,13,26,F,R,IMT,2021-07-11_16h09.55.365,ImageRatingTask_S3,2021.1.4,Win32,60.0240096,,,,,,,,,
,,,,,,,,,,,,0,2,2,2,1,third,13,26,F,R,IMT,2021-07-11_16h09.55.365,ImageRatingTask_S3,2021.1.4,Win32,60.0240096,,,,,,,,,
,,,,,,,,,,,,0,3,3,3,1,fourth,13,26,F,R,IMT,2021-07-11_16h09.55.365,ImageRatingTask_S3,2021.1.4,Win32,60.0240096,,,,,,,,,
,,,,,,,,,,,,0,4,4,4,1,fifth,13,26,F,R,IMT,2021-07-11_16h09.55.365,ImageRatingTask_S3,2021.1.4,Win32,60.0240096,,,,,,,,,
,,,,,,,,,,,,0,5,5,5,1,sixth,13,26,F,R,IMT,2021-07-11_16h09.55.365,ImageRatingTask_S3,2021.1.4,Win32,60.0240096,,,,,,,,,
,,,,,,,,,,,,0,6,6,6,1,seventh,13,26,F,R,IMT,2021-07-11_16h09.55.365,ImageRatingTask_S3,2021.1.4,Win32,60.0240096,,,,,,,,,
,,,,,,,,,,,,0,7,7,7,1,last,13,26,F,R,IMT,2021-07-11_16h09.55.365,ImageRatingTask_S3,2021.1.4,Win32,60.0240096,,,,,,,,,
,,,,,,,,,,,,,,,,,,13,26,F,R,IMT,2021-07-11_16h09.55.365,ImageRatingTask_S3,2021.1.4,Win32,60.0240096,0,53,53,91,1,DreamStudyImages_rs1000x750g/Water/NDPS125_volcanicwater.jpg,,,
,,5,1.836,1,0.637,9,2.016,1,2.152,8,1.264,0,0,0,0,1,main,13,26,F,R,IMT,2021-07-11_16h09.55.365,ImageRatingTask_S3,2021.1.4,Win32,60.0240096,,,,,,,,,
,,,,,,,,,,,,0,1,1,1,1,second,13,26,F,R,IMT,2021-07-11_16h09.55.365,ImageRatingTask_S3,2021.1.4,Win32,60.0240096,,,,,,,,,
,,,,,,,,,,,,0,2,2,2,1,third,13,26,F,R,IMT,2021-07-11_16h09.55.365,ImageRatingTask_S3,2021.1.4,Win32,60.0240096,,,,,,,,,
,,,,,,,,,,,,0,3,3,3,1,fourth,13,26,F,R,IMT,2021-07-11_16h09.55.365,ImageRatingTask_S3,2021.1.4,Win32,60.0240096,,,,,,,,,
,,,,,,,,,,,,0,4,4,4,1,fifth,13,26,F,R,IMT,2021-07-11_16h09.55.365,ImageRatingTask_S3,2021.1.4,Win32,60.0240096,,,,,,,,,
,,,,,,,,,,,,0,5,5,5,1,sixth,13,26,F,R,IMT,2021-07-11_16h09.55.365,ImageRatingTask_S3,2021.1.4,Win32,60.0240096,,,,,,,,,
,,,,,,,,,,,,0,6,6,6,1,seventh,13,26,F,R,IMT,2021-07-11_16h09.55.365,ImageRatingTask_S3,2021.1.4,Win32,60.0240096,,,,,,,,,
,,,,,,,,,,,,0,7,7,7,1,last,13,26,F,R,IMT,2021-07-11_16h09.55.365,ImageRatingTask_S3,2021.1.4,Win32,60.0240096,,,,,,,,,
,,,,,,,,,,,,,,,,,,13,26,F,R,IMT,2021-07-11_16h09.55.365,ImageRatingTask_S3,2021.1.4,Win32,60.0240096,0,54,54,109,1,DreamStudyImages_rs1000x750g/Water/Landscapes_116_v.jpg,,,
,,5,2.97,1,0.386,5,1.448,1,0.966,5,0.761,0,0,0,0,1,main,13,26,F,R,IMT,2021-07-11_16h09.55.365,ImageRatingTask_S3,2021.1.4,Win32,60.0240096,,,,,,,,,
,,,,,,,,,,,,0,1,1,1,1,second,13,26,F,R,IMT,2021-07-11_16h09.55.365,ImageRatingTask_S3,2021.1.4,Win32,60.0240096,,,,,,,,,
,,,,,,,,,,,,0,2,2,2,1,third,13,26,F,R,IMT,2021-07-11_16h09.55.365,ImageRatingTask_S3,2021.1.4,Win32,60.0240096,,,,,,,,,
,,,,,,,,,,,,0,3,3,3,1,fourth,13,26,F,R,IMT,2021-07-11_16h09.55.365,ImageRatingTask_S3,2021.1.4,Win32,60.0240096,,,,,,,,,
,,,,,,,,,,,,0,4,4,4,1,fifth,13,26,F,R,IMT,2021-07-11_16h09.55.365,ImageRatingTask_S3,2021.1.4,Win32,60.0240096,,,,,,,,,
,,,,,,,,,,,,0,5,5,5,1,sixth,13,26,F,R,IMT,2021-07-11_16h09.55.365,ImageRatingTask_S3,2021.1.4,Win32,60.0240096,,,,,,,,,
,,,,,,,,,,,,0,6,6,6,1,seventh,13,26,F,R,IMT,2021-07-11_16h09.55.365,ImageRatingTask_S3,2021.1.4,Win32,60.0240096,,,,,,,,,
,,,,,,,,,,,,0,7,7,7,1,last,13,26,F,R,IMT,2021-07-11_16h09.55.365,ImageRatingTask_S3,2021.1.4,Win32,60.0240096,,,,,,,,,
,,,,,,,,,,,,,,,,,,13,26,F,R,IMT,2021-07-11_16h09.55.365,ImageRatingTask_S3,2021.1.4,Win32,60.0240096,0,55,55,81,1,DreamStudyImages_rs1000x750g/Food/IAPS7230_diner.jpg,,,
,,6,2.09,1,0.869,7,2.836,1,0.997,2,0.864,0,0,0,0,1,main,13,26,F,R,IMT,2021-07-11_16h09.55.365,ImageRatingTask_S3,2021.1.4,Win32,60.0240096,,,,,,,,,
,,,,,,,,,,,,0,1,1,1,1,second,13,26,F,R,IMT,2021-07-11_16h09.55.365,ImageRatingTask_S3,2021.1.4,Win32,60.0240096,,,,,,,,,
,,,,,,,,,,,,0,2,2,2,1,third,13,26,F,R,IMT,2021-07-11_16h09.55.365,ImageRatingTask_S3,2021.1.4,Win32,60.0240096,,,,,,,,,
,,,,,,,,,,,,0,3,3,3,1,fourth,13,26,F,R,IMT,2021-07-11_16h09.55.365,ImageRatingTask_S3,2021.1.4,Win32,60.0240096,,,,,,,,,
,,,,,,,,,,,,0,4,4,4,1,fifth,13,26,F,R,IMT,2021-07-11_16h09.55.365,ImageRatingTask_S3,2021.1.4,Win32,60.0240096,,,,,,,,,
,,,,,,,,,,,,0,5,5,5,1,sixth,13,26,F,R,IMT,2021-07-11_16h09.55.365,ImageRatingTask_S3,2021.1.4,Win32,60.0240096,,,,,,,,,
,,,,,,,,,,,,0,6,6,6,1,seventh,13,26,F,R,IMT,2021-07-11_16h09.55.365,ImageRatingTask_S3,2021.1.4,Win32,60.0240096,,,,,,,,,
,,,,,,,,,,,,0,7,7,7,1,last,13,26,F,R,IMT,2021-07-11_16h09.55.365,ImageRatingTask_S3,2021.1.4,Win32,60.0240096,,,,,,,,,
,,,,,,,,,,,,,,,,,,13,26,F,R,IMT,2021-07-11_16h09.55.365,ImageRatingTask_S3,2021.1.4,Win32,60.0240096,0,56,56,97,1,DreamStudyImages_rs1000x750g/Children/Faces_096_h.jpg,,,
,,6,2.036,3,0.805,9,2.316,1,1.22,3,1.47,0,0,0,0,1,main,13,26,F,R,IMT,2021-07-11_16h09.55.365,ImageRatingTask_S3,2021.1.4,Win32,60.0240096,,,,,,,,,
,,,,,,,,,,,,0,1,1,1,1,second,13,26,F,R,IMT,2021-07-11_16h09.55.365,ImageRatingTask_S3,2021.1.4,Win32,60.0240096,,,,,,,,,
,,,,,,,,,,,,0,2,2,2,1,third,13,26,F,R,IMT,2021-07-11_16h09.55.365,ImageRatingTask_S3,2021.1.4,Win32,60.0240096,,,,,,,,,
,,,,,,,,,,,,0,3,3,3,1,fourth,13,26,F,R,IMT,2021-07-11_16h09.55.365,ImageRatingTask_S3,2021.1.4,Win32,60.0240096,,,,,,,,,
,,,,,,,,,,,,0,4,4,4,1,fifth,13,26,F,R,IMT,2021-07-11_16h09.55.365,ImageRatingTask_S3,2021.1.4,Win32,60.0240096,,,,,,,,,
,,,,,,,,,,,,0,5,5,5,1,sixth,13,26,F,R,IMT,2021-07-11_16h09.55.365,ImageRatingTask_S3,2021.1.4,Win32,60.0240096,,,,,,,,,
,,,,,,,,,,,,0,6,6,6,1,seventh,13,26,F,R,IMT,2021-07-11_16h09.55.365,ImageRatingTask_S3,2021.1.4,Win32,60.0240096,,,,,,,,,
,,,,,,,,,,,,0,7,7,7,1,last,13,26,F,R,IMT,2021-07-11_16h09.55.365,ImageRatingTask_S3,2021.1.4,Win32,60.0240096,,,,,,,,,
,,,,,,,,,,,,,,,,,,13,26,F,R,IMT,2021-07-11_16h09.55.365,ImageRatingTask_S3,2021.1.4,Win32,60.0240096,0,57,57,44,1,DreamStudyImages_rs1000x750g/Mammals/Chipmunk 1.jpg,,,
,,5,2.411,1,0.168,7,1.348,1,0.519,8,2.284,0,0,0,0,1,main,13,26,F,R,IMT,2021-07-11_16h09.55.365,ImageRatingTask_S3,2021.1.4,Win32,60.0240096,,,,,,,,,
,,,,,,,,,,,,0,1,1,1,1,second,13,26,F,R,IMT,2021-07-11_16h09.55.365,ImageRatingTask_S3,2021.1.4,Win32,60.0240096,,,,,,,,,
,,,,,,,,,,,,0,2,2,2,1,third,13,26,F,R,IMT,2021-07-11_16h09.55.365,ImageRatingTask_S3,2021.1.4,Win32,60.0240096,,,,,,,,,
,,,,,,,,,,,,0,3,3,3,1,fourth,13,26,F,R,IMT,2021-07-11_16h09.55.365,ImageRatingTask_S3,2021.1.4,Win32,60.0240096,,,,,,,,,
,,,,,,,,,,,,0,4,4,4,1,fifth,13,26,F,R,IMT,2021-07-11_16h09.55.365,ImageRatingTask_S3,2021.1.4,Win32,60.0240096,,,,,,,,,
,,,,,,,,,,,,0,5,5,5,1,sixth,13,26,F,R,IMT,2021-07-11_16h09.55.365,ImageRatingTask_S3,2021.1.4,Win32,60.0240096,,,,,,,,,
,,,,,,,,,,,,0,6,6,6,1,seventh,13,26,F,R,IMT,2021-07-11_16h09.55.365,ImageRatingTask_S3,2021.1.4,Win32,60.0240096,,,,,,,,,
,,,,,,,,,,,,0,7,7,7,1,last,13,26,F,R,IMT,2021-07-11_16h09.55.365,ImageRatingTask_S3,2021.1.4,Win32,60.0240096,,,,,,,,,
,,,,,,,,,,,,,,,,,,13,26,F,R,IMT,2021-07-11_16h09.55.365,ImageRatingTask_S3,2021.1.4,Win32,60.0240096,0,58,58,66,1,DreamStudyImages_rs1000x750g/Water/Lake 1.jpg,,,
,,5,2.402,1,0.828,8,1.844,1,0.601,6,2.514,0,0,0,0,1,main,13,26,F,R,IMT,2021-07-11_16h09.55.365,ImageRatingTask_S3,2021.1.4,Win32,60.0240096,,,,,,,,,
,,,,,,,,,,,,0,1,1,1,1,second,13,26,F,R,IMT,2021-07-11_16h09.55.365,ImageRatingTask_S3,2021.1.4,Win32,60.0240096,,,,,,,,,
,,,,,,,,,,,,0,2,2,2,1,third,13,26,F,R,IMT,2021-07-11_16h09.55.365,ImageRatingTask_S3,2021.1.4,Win32,60.0240096,,,,,,,,,
,,,,,,,,,,,,0,3,3,3,1,fourth,13,26,F,R,IMT,2021-07-11_16h09.55.365,ImageRatingTask_S3,2021.1.4,Win32,60.0240096,,,,,,,,,
,,,,,,,,,,,,0,4,4,4,1,fifth,13,26,F,R,IMT,2021-07-11_16h09.55.365,ImageRatingTask_S3,2021.1.4,Win32,60.0240096,,,,,,,,,
,,,,,,,,,,,,0,5,5,5,1,sixth,13,26,F,R,IMT,2021-07-11_16h09.55.365,ImageRatingTask_S3,2021.1.4,Win32,60.0240096,,,,,,,,,
,,,,,,,,,,,,0,6,6,6,1,seventh,13,26,F,R,IMT,2021-07-11_16h09.55.365,ImageRatingTask_S3,2021.1.4,Win32,60.0240096,,,,,,,,,
,,,,,,,,,,,,0,7,7,7,1,last,13,26,F,R,IMT,2021-07-11_16h09.55.365,ImageRatingTask_S3,2021.1.4,Win32,60.0240096,,,,,,,,,
,,,,,,,,,,,,,,,,,,13,26,F,R,IMT,2021-07-11_16h09.55.365,ImageRatingTask_S3,2021.1.4,Win32,60.0240096,0,59,59,16,1,DreamStudyImages_rs1000x750g/Houses/Landscapes_087_h.jpg,,,
,,6,2.853,3,2.089,8,2.374,1,0.654,8,1.415,0,0,0,0,1,main,13,26,F,R,IMT,2021-07-11_16h09.55.365,ImageRatingTask_S3,2021.1.4,Win32,60.0240096,,,,,,,,,
,,,,,,,,,,,,0,1,1,1,1,second,13,26,F,R,IMT,2021-07-11_16h09.55.365,ImageRatingTask_S3,2021.1.4,Win32,60.0240096,,,,,,,,,
,,,,,,,,,,,,0,2,2,2,1,third,13,26,F,R,IMT,2021-07-11_16h09.55.365,ImageRatingTask_S3,2021.1.4,Win32,60.0240096,,,,,,,,,
,,,,,,,,,,,,0,3,3,3,1,fourth,13,26,F,R,IMT,2021-07-11_16h09.55.365,ImageRatingTask_S3,2021.1.4,Win32,60.0240096,,,,,,,,,
,,,,,,,,,,,,0,4,4,4,1,fifth,13,26,F,R,IMT,2021-07-11_16h09.55.365,ImageRatingTask_S3,2021.1.4,Win32,60.0240096,,,,,,,,,
,,,,,,,,,,,,0,5,5,5,1,sixth,13,26,F,R,IMT,2021-07-11_16h09.55.365,ImageRatingTask_S3,2021.1.4,Win32,60.0240096,,,,,,,,,
,,,,,,,,,,,,0,6,6,6,1,seventh,13,26,F,R,IMT,2021-07-11_16h09.55.365,ImageRatingTask_S3,2021.1.4,Win32,60.0240096,,,,,,,,,
,,,,,,,,,,,,0,7,7,7,1,last,13,26,F,R,IMT,2021-07-11_16h09.55.365,ImageRatingTask_S3,2021.1.4,Win32,60.0240096,,,,,,,,,
,,,,,,,,,,,,,,,,,,13,26,F,R,IMT,2021-07-11_16h09.55.365,ImageRatingTask_S3,2021.1.4,Win32,60.0240096,0,60,60,11,1,DreamStudyImages_rs1000x750g/Water/Lake 2.jpg,,,
,,5,1.007,1,0.242,9,1.683,1,1.131,8,0.777,0,0,0,0,1,main,13,26,F,R,IMT,2021-07-11_16h09.55.365,ImageRatingTask_S3,2021.1.4,Win32,60.0240096,,,,,,,,,
,,,,,,,,,,,,0,1,1,1,1,second,13,26,F,R,IMT,2021-07-11_16h09.55.365,ImageRatingTask_S3,2021.1.4,Win32,60.0240096,,,,,,,,,
,,,,,,,,,,,,0,2,2,2,1,third,13,26,F,R,IMT,2021-07-11_16h09.55.365,ImageRatingTask_S3,2021.1.4,Win32,60.0240096,,,,,,,,,
,,,,,,,,,,,,0,3,3,3,1,fourth,13,26,F,R,IMT,2021-07-11_16h09.55.365,ImageRatingTask_S3,2021.1.4,Win32,60.0240096,,,,,,,,,
,,,,,,,,,,,,0,4,4,4,1,fifth,13,26,F,R,IMT,2021-07-11_16h09.55.365,ImageRatingTask_S3,2021.1.4,Win32,60.0240096,,,,,,,,,
,,,,,,,,,,,,0,5,5,5,1,sixth,13,26,F,R,IMT,2021-07-11_16h09.55.365,ImageRatingTask_S3,2021.1.4,Win32,60.0240096,,,,,,,,,
,,,,,,,,,,,,0,6,6,6,1,seventh,13,26,F,R,IMT,2021-07-11_16h09.55.365,ImageRatingTask_S3,2021.1.4,Win32,60.0240096,,,,,,,,,
,,,,,,,,,,,,0,7,7,7,1,last,13,26,F,R,IMT,2021-07-11_16h09.55.365,ImageRatingTask_S3,2021.1.4,Win32,60.0240096,,,,,,,,,
,,,,,,,,,,,,,,,,,,13,26,F,R,IMT,2021-07-11_16h09.55.365,ImageRatingTask_S3,2021.1.4,Win32,60.0240096,0,61,61,37,1,DreamStudyImages_rs1000x750g/Water/naturepool.jpg,,,
,,7,1.593,4,0.976,9,1.532,1,0.568,3,0.827,0,0,0,0,1,main,13,26,F,R,IMT,2021-07-11_16h09.55.365,ImageRatingTask_S3,2021.1.4,Win32,60.0240096,,,,,,,,,
,,,,,,,,,,,,0,1,1,1,1,second,13,26,F,R,IMT,2021-07-11_16h09.55.365,ImageRatingTask_S3,2021.1.4,Win32,60.0240096,,,,,,,,,
,,,,,,,,,,,,0,2,2,2,1,third,13,26,F,R,IMT,2021-07-11_16h09.55.365,ImageRatingTask_S3,2021.1.4,Win32,60.0240096,,,,,,,,,
,,,,,,,,,,,,0,3,3,3,1,fourth,13,26,F,R,IMT,2021-07-11_16h09.55.365,ImageRatingTask_S3,2021.1.4,Win32,60.0240096,,,,,,,,,
,,,,,,,,,,,,0,4,4,4,1,fifth,13,26,F,R,IMT,2021-07-11_16h09.55.365,ImageRatingTask_S3,2021.1.4,Win32,60.0240096,,,,,,,,,
,,,,,,,,,,,,0,5,5,5,1,sixth,13,26,F,R,IMT,2021-07-11_16h09.55.365,ImageRatingTask_S3,2021.1.4,Win32,60.0240096,,,,,,,,,
,,,,,,,,,,,,0,6,6,6,1,seventh,13,26,F,R,IMT,2021-07-11_16h09.55.365,ImageRatingTask_S3,2021.1.4,Win32,60.0240096,,,,,,,,,
,,,,,,,,,,,,0,7,7,7,1,last,13,26,F,R,IMT,2021-07-11_16h09.55.365,ImageRatingTask_S3,2021.1.4,Win32,60.0240096,,,,,,,,,
,,,,,,,,,,,,,,,,,,13,26,F,R,IMT,2021-07-11_16h09.55.365,ImageRatingTask_S3,2021.1.4,Win32,60.0240096,0,62,62,73,1,DreamStudyImages_rs1000x750g/Mammals/Animals_178_v.jpg,,,
,,6,2.411,2,1.444,9,1.971,1,0.497,2,1.081,0,0,0,0,1,main,13,26,F,R,IMT,2021-07-11_16h09.55.365,ImageRatingTask_S3,2021.1.4,Win32,60.0240096,,,,,,,,,
,,,,,,,,,,,,0,1,1,1,1,second,13,26,F,R,IMT,2021-07-11_16h09.55.365,ImageRatingTask_S3,2021.1.4,Win32,60.0240096,,,,,,,,,
,,,,,,,,,,,,0,2,2,2,1,third,13,26,F,R,IMT,2021-07-11_16h09.55.365,ImageRatingTask_S3,2021.1.4,Win32,60.0240096,,,,,,,,,
,,,,,,,,,,,,0,3,3,3,1,fourth,13,26,F,R,IMT,2021-07-11_16h09.55.365,ImageRatingTask_S3,2021.1.4,Win32,60.0240096,,,,,,,,,
,,,,,,,,,,,,0,4,4,4,1,fifth,13,26,F,R,IMT,2021-07-11_16h09.55.365,ImageRatingTask_S3,2021.1.4,Win32,60.0240096,,,,,,,,,
,,,,,,,,,,,,0,5,5,5,1,sixth,13,26,F,R,IMT,2021-07-11_16h09.55.365,ImageRatingTask_S3,2021.1.4,Win32,60.0240096,,,,,,,,,
,,,,,,,,,,,,0,6,6,6,1,seventh,13,26,F,R,IMT,2021-07-11_16h09.55.365,ImageRatingTask_S3,2021.1.4,Win32,60.0240096,,,,,,,,,
,,,,,,,,,,,,0,7,7,7,1,last,13,26,F,R,IMT,2021-07-11_16h09.55.365,ImageRatingTask_S3,2021.1.4,Win32,60.0240096,,,,,,,,,
,,,,,,,,,,,,,,,,,,13,26,F,R,IMT,2021-07-11_16h09.55.365,ImageRatingTask_S3,2021.1.4,Win32,60.0240096,0,63,63,116,1,DreamStudyImages_rs1000x750g/Children/Baby 2.jpg,,,
,,5,2.173,1,0.26,9,1.448,1,0.849,7,1.766,0,0,0,0,1,main,13,26,F,R,IMT,2021-07-11_16h09.55.365,ImageRatingTask_S3,2021.1.4,Win32,60.0240096,,,,,,,,,
,,,,,,,,,,,,0,1,1,1,1,second,13,26,F,R,IMT,2021-07-11_16h09.55.365,ImageRatingTask_S3,2021.1.4,Win32,60.0240096,,,,,,,,,
,,,,,,,,,,,,0,2,2,2,1,third,13,26,F,R,IMT,2021-07-11_16h09.55.365,ImageRatingTask_S3,2021.1.4,Win32,60.0240096,,,,,,,,,
,,,,,,,,,,,,0,3,3,3,1,fourth,13,26,F,R,IMT,2021-07-11_16h09.55.365,ImageRatingTask_S3,2021.1.4,Win32,60.0240096,,,,,,,,,
,,,,,,,,,,,,0,4,4,4,1,fifth,13,26,F,R,IMT,2021-07-11_16h09.55.365,ImageRatingTask_S3,2021.1.4,Win32,60.0240096,,,,,,,,,
,,,,,,,,,,,,0,5,5,5,1,sixth,13,26,F,R,IMT,2021-07-11_16h09.55.365,ImageRatingTask_S3,2021.1.4,Win32,60.0240096,,,,,,,,,
,,,,,,,,,,,,0,6,6,6,1,seventh,13,26,F,R,IMT,2021-07-11_16h09.55.365,ImageRatingTask_S3,2021.1.4,Win32,60.0240096,,,,,,,,,
,,,,,,,,,,,,0,7,7,7,1,last,13,26,F,R,IMT,2021-07-11_16h09.55.365,ImageRatingTask_S3,2021.1.4,Win32,60.0240096,,,,,,,,,
,,,,,,,,,,,,,,,,,,13,26,F,R,IMT,2021-07-11_16h09.55.365,ImageRatingTask_S3,2021.1.4,Win32,60.0240096,0,64,64,158,1,DreamStudyImages_rs1000x750g/Vehicles/bigtruck.jpg,,,
,,4,2.553,5,0.87,9,4.567,1,0.22,7,4.3,0,0,0,0,1,main,13,26,F,R,IMT,2021-07-11_16h09.55.365,ImageRatingTask_S3,2021.1.4,Win32,60.0240096,,,,,,,,,
,,,,,,,,,,,,0,1,1,1,1,second,13,26,F,R,IMT,2021-07-11_16h09.55.365,ImageRatingTask_S3,2021.1.4,Win32,60.0240096,,,,,,,,,
,,,,,,,,,,,,0,2,2,2,1,third,13,26,F,R,IMT,2021-07-11_16h09.55.365,ImageRatingTask_S3,2021.1.4,Win32,60.0240096,,,,,,,,,
,,,,,,,,,,,,0,3,3,3,1,fourth,13,26,F,R,IMT,2021-07-11_16h09.55.365,ImageRatingTask_S3,2021.1.4,Win32,60.0240096,,,,,,,,,
,,,,,,,,,,,,0,4,4,4,1,fifth,13,26,F,R,IMT,2021-07-11_16h09.55.365,ImageRatingTask_S3,2021.1.4,Win32,60.0240096,,,,,,,,,
,,,,,,,,,,,,0,5,5,5,1,sixth,13,26,F,R,IMT,2021-07-11_16h09.55.365,ImageRatingTask_S3,2021.1.4,Win32,60.0240096,,,,,,,,,
,,,,,,,,,,,,0,6,6,6,1,seventh,13,26,F,R,IMT,2021-07-11_16h09.55.365,ImageRatingTask_S3,2021.1.4,Win32,60.0240096,,,,,,,,,
,,,,,,,,,,,,0,7,7,7,1,last,13,26,F,R,IMT,2021-07-11_16h09.55.365,ImageRatingTask_S3,2021.1.4,Win32,60.0240096,,,,,,,,,
,,,,,,,,,,,,,,,,,,13,26,F,R,IMT,2021-07-11_16h09.55.365,ImageRatingTask_S3,2021.1.4,Win32,60.0240096,0,65,65,156,1,DreamStudyImages_rs1000x750g/Vehicles/People_012_h.jpg,,,
,,3,2.937,5,0.539,9,3.468,1,0.422,6,1.992,0,0,0,0,1,main,13,26,F,R,IMT,2021-07-11_16h09.55.365,ImageRatingTask_S3,2021.1.4,Win32,60.0240096,,,,,,,,,
,,,,,,,,,,,,0,1,1,1,1,second,13,26,F,R,IMT,2021-07-11_16h09.55.365,ImageRatingTask_S3,2021.1.4,Win32,60.0240096,,,,,,,,,
,,,,,,,,,,,,0,2,2,2,1,third,13,26,F,R,IMT,2021-07-11_16h09.55.365,ImageRatingTask_S3,2021.1.4,Win32,60.0240096,,,,,,,,,
,,,,,,,,,,,,0,3,3,3,1,fourth,13,26,F,R,IMT,2021-07-11_16h09.55.365,ImageRatingTask_S3,2021.1.4,Win32,60.0240096,,,,,,,,,
,,,,,,,,,,,,0,4,4,4,1,fifth,13,26,F,R,IMT,2021-07-11_16h09.55.365,ImageRatingTask_S3,2021.1.4,Win32,60.0240096,,,,,,,,,
,,,,,,,,,,,,0,5,5,5,1,sixth,13,26,F,R,IMT,2021-07-11_16h09.55.365,ImageRatingTask_S3,2021.1.4,Win32,60.0240096,,,,,,,,,
,,,,,,,,,,,,0,6,6,6,1,seventh,13,26,F,R,IMT,2021-07-11_16h09.55.365,ImageRatingTask_S3,2021.1.4,Win32,60.0240096,,,,,,,,,
,,,,,,,,,,,,0,7,7,7,1,last,13,26,F,R,IMT,2021-07-11_16h09.55.365,ImageRatingTask_S3,2021.1.4,Win32,60.0240096,,,,,,,,,
,,,,,,,,,,,,,,,,,,13,26,F,R,IMT,2021-07-11_16h09.55.365,ImageRatingTask_S3,2021.1.4,Win32,60.0240096,0,66,66,114,1,DreamStudyImages_rs1000x750g/Houses/Landscapes_068_h.jpg,,,
,,6,1.57,2,0.836,9,1.885,1,0.833,8,4.751,0,0,0,0,1,main,13,26,F,R,IMT,2021-07-11_16h09.55.365,ImageRatingTask_S3,2021.1.4,Win32,60.0240096,,,,,,,,,
,,,,,,,,,,,,0,1,1,1,1,second,13,26,F,R,IMT,2021-07-11_16h09.55.365,ImageRatingTask_S3,2021.1.4,Win32,60.0240096,,,,,,,,,
,,,,,,,,,,,,0,2,2,2,1,third,13,26,F,R,IMT,2021-07-11_16h09.55.365,ImageRatingTask_S3,2021.1.4,Win32,60.0240096,,,,,,,,,
,,,,,,,,,,,,0,3,3,3,1,fourth,13,26,F,R,IMT,2021-07-11_16h09.55.365,ImageRatingTask_S3,2021.1.4,Win32,60.0240096,,,,,,,,,
,,,,,,,,,,,,0,4,4,4,1,fifth,13,26,F,R,IMT,2021-07-11_16h09.55.365,ImageRatingTask_S3,2021.1.4,Win32,60.0240096,,,,,,,,,
,,,,,,,,,,,,0,5,5,5,1,sixth,13,26,F,R,IMT,2021-07-11_16h09.55.365,ImageRatingTask_S3,2021.1.4,Win32,60.0240096,,,,,,,,,
,,,,,,,,,,,,0,6,6,6,1,seventh,13,26,F,R,IMT,2021-07-11_16h09.55.365,ImageRatingTask_S3,2021.1.4,Win32,60.0240096,,,,,,,,,
,,,,,,,,,,,,0,7,7,7,1,last,13,26,F,R,IMT,2021-07-11_16h09.55.365,ImageRatingTask_S3,2021.1.4,Win32,60.0240096,,,,,,,,,
,,,,,,,,,,,,,,,,,,13,26,F,R,IMT,2021-07-11_16h09.55.365,ImageRatingTask_S3,2021.1.4,Win32,60.0240096,0,67,67,147,1,DreamStudyImages_rs1000x750g/Water/NDPS122_bluelake.jpg,,,
,,5,3.876,1,1.085,9,1.145,1,0.869,5,0.455,0,0,0,0,1,main,13,26,F,R,IMT,2021-07-11_16h09.55.365,ImageRatingTask_S3,2021.1.4,Win32,60.0240096,,,,,,,,,
,,,,,,,,,,,,0,1,1,1,1,second,13,26,F,R,IMT,2021-07-11_16h09.55.365,ImageRatingTask_S3,2021.1.4,Win32,60.0240096,,,,,,,,,
,,,,,,,,,,,,0,2,2,2,1,third,13,26,F,R,IMT,2021-07-11_16h09.55.365,ImageRatingTask_S3,2021.1.4,Win32,60.0240096,,,,,,,,,
,,,,,,,,,,,,0,3,3,3,1,fourth,13,26,F,R,IMT,2021-07-11_16h09.55.365,ImageRatingTask_S3,2021.1.4,Win32,60.0240096,,,,,,,,,
,,,,,,,,,,,,0,4,4,4,1,fifth,13,26,F,R,IMT,2021-07-11_16h09.55.365,ImageRatingTask_S3,2021.1.4,Win32,60.0240096,,,,,,,,,
,,,,,,,,,,,,0,5,5,5,1,sixth,13,26,F,R,IMT,2021-07-11_16h09.55.365,ImageRatingTask_S3,2021.1.4,Win32,60.0240096,,,,,,,,,
,,,,,,,,,,,,0,6,6,6,1,seventh,13,26,F,R,IMT,2021-07-11_16h09.55.365,ImageRatingTask_S3,2021.1.4,Win32,60.0240096,,,,,,,,,
,,,,,,,,,,,,0,7,7,7,1,last,13,26,F,R,IMT,2021-07-11_16h09.55.365,ImageRatingTask_S3,2021.1.4,Win32,60.0240096,,,,,,,,,
,,,,,,,,,,,,,,,,,,13,26,F,R,IMT,2021-07-11_16h09.55.365,ImageRatingTask_S3,2021.1.4,Win32,60.0240096,0,68,68,32,1,DreamStudyImages_rs1000x750g/Food/IAPS7477_sushi.jpg,,,
,,5,2.305,1,0.555,9,1.552,1,0.701,3,0.707,0,0,0,0,1,main,13,26,F,R,IMT,2021-07-11_16h09.55.365,ImageRatingTask_S3,2021.1.4,Win32,60.0240096,,,,,,,,,
,,,,,,,,,,,,0,1,1,1,1,second,13,26,F,R,IMT,2021-07-11_16h09.55.365,ImageRatingTask_S3,2021.1.4,Win32,60.0240096,,,,,,,,,
,,,,,,,,,,,,0,2,2,2,1,third,13,26,F,R,IMT,2021-07-11_16h09.55.365,ImageRatingTask_S3,2021.1.4,Win32,60.0240096,,,,,,,,,
,,,,,,,,,,,,0,3,3,3,1,fourth,13,26,F,R,IMT,2021-07-11_16h09.55.365,ImageRatingTask_S3,2021.1.4,Win32,60.0240096,,,,,,,,,
,,,,,,,,,,,,0,4,4,4,1,fifth,13,26,F,R,IMT,2021-07-11_16h09.55.365,ImageRatingTask_S3,2021.1.4,Win32,60.0240096,,,,,,,,,
,,,,,,,,,,,,0,5,5,5,1,sixth,13,26,F,R,IMT,2021-07-11_16h09.55.365,ImageRatingTask_S3,2021.1.4,Win32,60.0240096,,,,,,,,,
,,,,,,,,,,,,0,6,6,6,1,seventh,13,26,F,R,IMT,2021-07-11_16h09.55.365,ImageRatingTask_S3,2021.1.4,Win32,60.0240096,,,,,,,,,
,,,,,,,,,,,,0,7,7,7,1,last,13,26,F,R,IMT,2021-07-11_16h09.55.365,ImageRatingTask_S3,2021.1.4,Win32,60.0240096,,,,,,,,,
,,,,,,,,,,,,,,,,,,13,26,F,R,IMT,2021-07-11_16h09.55.365,ImageRatingTask_S3,2021.1.4,Win32,60.0240096,0,69,69,52,1,DreamStudyImages_rs1000x750g/Mammals/Animals_137_h.jpg,,,
,,5,2.24,1,0.226,9,1.183,1,4.466,5,1.112,0,0,0,0,1,main,13,26,F,R,IMT,2021-07-11_16h09.55.365,ImageRatingTask_S3,2021.1.4,Win32,60.0240096,,,,,,,,,
,,,,,,,,,,,,0,1,1,1,1,second,13,26,F,R,IMT,2021-07-11_16h09.55.365,ImageRatingTask_S3,2021.1.4,Win32,60.0240096,,,,,,,,,
,,,,,,,,,,,,0,2,2,2,1,third,13,26,F,R,IMT,2021-07-11_16h09.55.365,ImageRatingTask_S3,2021.1.4,Win32,60.0240096,,,,,,,,,
,,,,,,,,,,,,0,3,3,3,1,fourth,13,26,F,R,IMT,2021-07-11_16h09.55.365,ImageRatingTask_S3,2021.1.4,Win32,60.0240096,,,,,,,,,
,,,,,,,,,,,,0,4,4,4,1,fifth,13,26,F,R,IMT,2021-07-11_16h09.55.365,ImageRatingTask_S3,2021.1.4,Win32,60.0240096,,,,,,,,,
,,,,,,,,,,,,0,5,5,5,1,sixth,13,26,F,R,IMT,2021-07-11_16h09.55.365,ImageRatingTask_S3,2021.1.4,Win32,60.0240096,,,,,,,,,
,,,,,,,,,,,,0,6,6,6,1,seventh,13,26,F,R,IMT,2021-07-11_16h09.55.365,ImageRatingTask_S3,2021.1.4,Win32,60.0240096,,,,,,,,,
,,,,,,,,,,,,0,7,7,7,1,last,13,26,F,R,IMT,2021-07-11_16h09.55.365,ImageRatingTask_S3,2021.1.4,Win32,60.0240096,,,,,,,,,
,,,,,,,,,,,,,,,,,,13,26,F,R,IMT,2021-07-11_16h09.55.365,ImageRatingTask_S3,2021.1.4,Win32,60.0240096,0,70,70,85,1,DreamStudyImages_rs1000x750g/Food/Objects_051_h.jpg,,,
,,5,1.473,1,0.256,6,1.233,1,0.933,5,0.729,0,0,0,0,1,main,13,26,F,R,IMT,2021-07-11_16h09.55.365,ImageRatingTask_S3,2021.1.4,Win32,60.0240096,,,,,,,,,
,,,,,,,,,,,,0,1,1,1,1,second,13,26,F,R,IMT,2021-07-11_16h09.55.365,ImageRatingTask_S3,2021.1.4,Win32,60.0240096,,,,,,,,,
,,,,,,,,,,,,0,2,2,2,1,third,13,26,F,R,IMT,2021-07-11_16h09.55.365,ImageRatingTask_S3,2021.1.4,Win32,60.0240096,,,,,,,,,
,,,,,,,,,,,,0,3,3,3,1,fourth,13,26,F,R,IMT,2021-07-11_16h09.55.365,ImageRatingTask_S3,2021.1.4,Win32,60.0240096,,,,,,,,,
,,,,,,,,,,,,0,4,4,4,1,fifth,13,26,F,R,IMT,2021-07-11_16h09.55.365,ImageRatingTask_S3,2021.1.4,Win32,60.0240096,,,,,,,,,
,,,,,,,,,,,,0,5,5,5,1,sixth,13,26,F,R,IMT,2021-07-11_16h09.55.365,ImageRatingTask_S3,2021.1.4,Win32,60.0240096,,,,,,,,,
,,,,,,,,,,,,0,6,6,6,1,seventh,13,26,F,R,IMT,2021-07-11_16h09.55.365,ImageRatingTask_S3,2021.1.4,Win32,60.0240096,,,,,,,,,
,,,,,,,,,,,,0,7,7,7,1,last,13,26,F,R,IMT,2021-07-11_16h09.55.365,ImageRatingTask_S3,2021.1.4,Win32,60.0240096,,,,,,,,,
,,,,,,,,,,,,,,,,,,13,26,F,R,IMT,2021-07-11_16h09.55.365,ImageRatingTask_S3,2021.1.4,Win32,60.0240096,0,71,71,79,1,DreamStudyImages_rs1000x750g/Food/IAPS7291_chicken.jpg,,,
,,5,1.121,1,0.147,8,1.983,1,1.717,7,1.003,0,0,0,0,1,main,13,26,F,R,IMT,2021-07-11_16h09.55.365,ImageRatingTask_S3,2021.1.4,Win32,60.0240096,,,,,,,,,
,,,,,,,,,,,,0,1,1,1,1,second,13,26,F,R,IMT,2021-07-11_16h09.55.365,ImageRatingTask_S3,2021.1.4,Win32,60.0240096,,,,,,,,,
,,,,,,,,,,,,0,2,2,2,1,third,13,26,F,R,IMT,2021-07-11_16h09.55.365,ImageRatingTask_S3,2021.1.4,Win32,60.0240096,,,,,,,,,
,,,,,,,,,,,,0,3,3,3,1,fourth,13,26,F,R,IMT,2021-07-11_16h09.55.365,ImageRatingTask_S3,2021.1.4,Win32,60.0240096,,,,,,,,,
,,,,,,,,,,,,0,4,4,4,1,fifth,13,26,F,R,IMT,2021-07-11_16h09.55.365,ImageRatingTask_S3,2021.1.4,Win32,60.0240096,,,,,,,,,
,,,,,,,,,,,,0,5,5,5,1,sixth,13,26,F,R,IMT,2021-07-11_16h09.55.365,ImageRatingTask_S3,2021.1.4,Win32,60.0240096,,,,,,,,,
,,,,,,,,,,,,0,6,6,6,1,seventh,13,26,F,R,IMT,2021-07-11_16h09.55.365,ImageRatingTask_S3,2021.1.4,Win32,60.0240096,,,,,,,,,
,,,,,,,,,,,,0,7,7,7,1,last,13,26,F,R,IMT,2021-07-11_16h09.55.365,ImageRatingTask_S3,2021.1.4,Win32,60.0240096,,,,,,,,,
,,,,,,,,,,,,,,,,,,13,26,F,R,IMT,2021-07-11_16h09.55.365,ImageRatingTask_S3,2021.1.4,Win32,60.0240096,0,72,72,138,1,DreamStudyImages_rs1000x750g/Vehicles/vehicles_pos.jpg,,,
,,5,1.568,1,0.836,8,4.054,1,0.699,6,3.182,0,0,0,0,1,main,13,26,F,R,IMT,2021-07-11_16h09.55.365,ImageRatingTask_S3,2021.1.4,Win32,60.0240096,,,,,,,,,
,,,,,,,,,,,,0,1,1,1,1,second,13,26,F,R,IMT,2021-07-11_16h09.55.365,ImageRatingTask_S3,2021.1.4,Win32,60.0240096,,,,,,,,,
,,,,,,,,,,,,0,2,2,2,1,third,13,26,F,R,IMT,2021-07-11_16h09.55.365,ImageRatingTask_S3,2021.1.4,Win32,60.0240096,,,,,,,,,
,,,,,,,,,,,,0,3,3,3,1,fourth,13,26,F,R,IMT,2021-07-11_16h09.55.365,ImageRatingTask_S3,2021.1.4,Win32,60.0240096,,,,,,,,,
,,,,,,,,,,,,0,4,4,4,1,fifth,13,26,F,R,IMT,2021-07-11_16h09.55.365,ImageRatingTask_S3,2021.1.4,Win32,60.0240096,,,,,,,,,
,,,,,,,,,,,,0,5,5,5,1,sixth,13,26,F,R,IMT,2021-07-11_16h09.55.365,ImageRatingTask_S3,2021.1.4,Win32,60.0240096,,,,,,,,,
,,,,,,,,,,,,0,6,6,6,1,seventh,13,26,F,R,IMT,2021-07-11_16h09.55.365,ImageRatingTask_S3,2021.1.4,Win32,60.0240096,,,,,,,,,
,,,,,,,,,,,,0,7,7,7,1,last,13,26,F,R,IMT,2021-07-11_16h09.55.365,ImageRatingTask_S3,2021.1.4,Win32,60.0240096,,,,,,,,,
,,,,,,,,,,,,,,,,,,13,26,F,R,IMT,2021-07-11_16h09.55.365,ImageRatingTask_S3,2021.1.4,Win32,60.0240096,0,73,73,47,1,DreamStudyImages_rs1000x750g/Houses/Objects_128_h.jpg,,,
,,4,3.762,2,1.015,2,0.197,1,7.538,6,1.928,0,0,0,0,1,main,13,26,F,R,IMT,2021-07-11_16h09.55.365,ImageRatingTask_S3,2021.1.4,Win32,60.0240096,,,,,,,,,
,,,,,,,,,,,,0,1,1,1,1,second,13,26,F,R,IMT,2021-07-11_16h09.55.365,ImageRatingTask_S3,2021.1.4,Win32,60.0240096,,,,,,,,,
,,,,,,,,,,,,0,2,2,2,1,third,13,26,F,R,IMT,2021-07-11_16h09.55.365,ImageRatingTask_S3,2021.1.4,Win32,60.0240096,,,,,,,,,
,,,,,,,,,,,,0,3,3,3,1,fourth,13,26,F,R,IMT,2021-07-11_16h09.55.365,ImageRatingTask_S3,2021.1.4,Win32,60.0240096,,,,,,,,,
,,,,,,,,,,,,0,4,4,4,1,fifth,13,26,F,R,IMT,2021-07-11_16h09.55.365,ImageRatingTask_S3,2021.1.4,Win32,60.0240096,,,,,,,,,
,,,,,,,,,,,,0,5,5,5,1,sixth,13,26,F,R,IMT,2021-07-11_16h09.55.365,ImageRatingTask_S3,2021.1.4,Win32,60.0240096,,,,,,,,,
,,,,,,,,,,,,0,6,6,6,1,seventh,13,26,F,R,IMT,2021-07-11_16h09.55.365,ImageRatingTask_S3,2021.1.4,Win32,60.0240096,,,,,,,,,
,,,,,,,,,,,,0,7,7,7,1,last,13,26,F,R,IMT,2021-07-11_16h09.55.365,ImageRatingTask_S3,2021.1.4,Win32,60.0240096,,,,,,,,,
,,,,,,,,,,,,,,,,,,13,26,F,R,IMT,2021-07-11_16h09.55.365,ImageRatingTask_S3,2021.1.4,Win32,60.0240096,0,74,74,154,1,DreamStudyImages_rs1000x750g/Houses/Landscapes_086_v.jpg,,,
,,6,4.701,4,0.91,9,7.215,1,0.798,2,1.329,0,0,0,0,1,main,13,26,F,R,IMT,2021-07-11_16h09.55.365,ImageRatingTask_S3,2021.1.4,Win32,60.0240096,,,,,,,,,
,,,,,,,,,,,,0,1,1,1,1,second,13,26,F,R,IMT,2021-07-11_16h09.55.365,ImageRatingTask_S3,2021.1.4,Win32,60.0240096,,,,,,,,,
,,,,,,,,,,,,0,2,2,2,1,third,13,26,F,R,IMT,2021-07-11_16h09.55.365,ImageRatingTask_S3,2021.1.4,Win32,60.0240096,,,,,,,,,
,,,,,,,,,,,,0,3,3,3,1,fourth,13,26,F,R,IMT,2021-07-11_16h09.55.365,ImageRatingTask_S3,2021.1.4,Win32,60.0240096,,,,,,,,,
,,,,,,,,,,,,0,4,4,4,1,fifth,13,26,F,R,IMT,2021-07-11_16h09.55.365,ImageRatingTask_S3,2021.1.4,Win32,60.0240096,,,,,,,,,
,,,,,,,,,,,,0,5,5,5,1,sixth,13,26,F,R,IMT,2021-07-11_16h09.55.365,ImageRatingTask_S3,2021.1.4,Win32,60.0240096,,,,,,,,,
,,,,,,,,,,,,0,6,6,6,1,seventh,13,26,F,R,IMT,2021-07-11_16h09.55.365,ImageRatingTask_S3,2021.1.4,Win32,60.0240096,,,,,,,,,
,,,,,,,,,,,,0,7,7,7,1,last,13,26,F,R,IMT,2021-07-11_16h09.55.365,ImageRatingTask_S3,2021.1.4,Win32,60.0240096,,,,,,,,,
,,,,,,,,,,,,,,,,,,13,26,F,R,IMT,2021-07-11_16h09.55.365,ImageRatingTask_S3,2021.1.4,Win32,60.0240096,0,75,75,36,1,DreamStudyImages_rs1000x750g/Children/Faces_114_h.jpg,,,
,,5,1.369,1,0.184,9,1.664,1,0.68,5,0.713,0,0,0,0,1,main,13,26,F,R,IMT,2021-07-11_16h09.55.365,ImageRatingTask_S3,2021.1.4,Win32,60.0240096,,,,,,,,,
,,,,,,,,,,,,0,1,1,1,1,second,13,26,F,R,IMT,2021-07-11_16h09.55.365,ImageRatingTask_S3,2021.1.4,Win32,60.0240096,,,,,,,,,
,,,,,,,,,,,,0,2,2,2,1,third,13,26,F,R,IMT,2021-07-11_16h09.55.365,ImageRatingTask_S3,2021.1.4,Win32,60.0240096,,,,,,,,,
,,,,,,,,,,,,0,3,3,3,1,fourth,13,26,F,R,IMT,2021-07-11_16h09.55.365,ImageRatingTask_S3,2021.1.4,Win32,60.0240096,,,,,,,,,
,,,,,,,,,,,,0,4,4,4,1,fifth,13,26,F,R,IMT,2021-07-11_16h09.55.365,ImageRatingTask_S3,2021.1.4,Win32,60.0240096,,,,,,,,,
,,,,,,,,,,,,0,5,5,5,1,sixth,13,26,F,R,IMT,2021-07-11_16h09.55.365,ImageRatingTask_S3,2021.1.4,Win32,60.0240096,,,,,,,,,
,,,,,,,,,,,,0,6,6,6,1,seventh,13,26,F,R,IMT,2021-07-11_16h09.55.365,ImageRatingTask_S3,2021.1.4,Win32,60.0240096,,,,,,,,,
,,,,,,,,,,,,0,7,7,7,1,last,13,26,F,R,IMT,2021-07-11_16h09.55.365,ImageRatingTask_S3,2021.1.4,Win32,60.0240096,,,,,,,,,
,,,,,,,,,,,,,,,,,,13,26,F,R,IMT,2021-07-11_16h09.55.365,ImageRatingTask_S3,2021.1.4,Win32,60.0240096,0,76,76,53,1,DreamStudyImages_rs1000x750g/Food/Objects_056_h.jpg,,,
,,5,0.753,1,0.169,9,0.998,1,0.214,6,1.777,0,0,0,0,1,main,13,26,F,R,IMT,2021-07-11_16h09.55.365,ImageRatingTask_S3,2021.1.4,Win32,60.0240096,,,,,,,,,
,,,,,,,,,,,,0,1,1,1,1,second,13,26,F,R,IMT,2021-07-11_16h09.55.365,ImageRatingTask_S3,2021.1.4,Win32,60.0240096,,,,,,,,,
,,,,,,,,,,,,0,2,2,2,1,third,13,26,F,R,IMT,2021-07-11_16h09.55.365,ImageRatingTask_S3,2021.1.4,Win32,60.0240096,,,,,,,,,
,,,,,,,,,,,,0,3,3,3,1,fourth,13,26,F,R,IMT,2021-07-11_16h09.55.365,ImageRatingTask_S3,2021.1.4,Win32,60.0240096,,,,,,,,,
,,,,,,,,,,,,0,4,4,4,1,fifth,13,26,F,R,IMT,2021-07-11_16h09.55.365,ImageRatingTask_S3,2021.1.4,Win32,60.0240096,,,,,,,,,
,,,,,,,,,,,,0,5,5,5,1,sixth,13,26,F,R,IMT,2021-07-11_16h09.55.365,ImageRatingTask_S3,2021.1.4,Win32,60.0240096,,,,,,,,,
,,,,,,,,,,,,0,6,6,6,1,seventh,13,26,F,R,IMT,2021-07-11_16h09.55.365,ImageRatingTask_S3,2021.1.4,Win32,60.0240096,,,,,,,,,
,,,,,,,,,,,,0,7,7,7,1,last,13,26,F,R,IMT,2021-07-11_16h09.55.365,ImageRatingTask_S3,2021.1.4,Win32,60.0240096,,,,,,,,,
,,,,,,,,,,,,,,,,,,13,26,F,R,IMT,2021-07-11_16h09.55.365,ImageRatingTask_S3,2021.1.4,Win32,60.0240096,0,77,77,43,1,DreamStudyImages_rs1000x750g/Houses/Objects_130_h.jpg,,,
,,6,2.337,1,0.2,5,2.572,1,0.814,8,1.095,0,0,0,0,1,main,13,26,F,R,IMT,2021-07-11_16h09.55.365,ImageRatingTask_S3,2021.1.4,Win32,60.0240096,,,,,,,,,
,,,,,,,,,,,,0,1,1,1,1,second,13,26,F,R,IMT,2021-07-11_16h09.55.365,ImageRatingTask_S3,2021.1.4,Win32,60.0240096,,,,,,,,,
,,,,,,,,,,,,0,2,2,2,1,third,13,26,F,R,IMT,2021-07-11_16h09.55.365,ImageRatingTask_S3,2021.1.4,Win32,60.0240096,,,,,,,,,
,,,,,,,,,,,,0,3,3,3,1,fourth,13,26,F,R,IMT,2021-07-11_16h09.55.365,ImageRatingTask_S3,2021.1.4,Win32,60.0240096,,,,,,,,,
,,,,,,,,,,,,0,4,4,4,1,fifth,13,26,F,R,IMT,2021-07-11_16h09.55.365,ImageRatingTask_S3,2021.1.4,Win32,60.0240096,,,,,,,,,
,,,,,,,,,,,,0,5,5,5,1,sixth,13,26,F,R,IMT,2021-07-11_16h09.55.365,ImageRatingTask_S3,2021.1.4,Win32,60.0240096,,,,,,,,,
,,,,,,,,,,,,0,6,6,6,1,seventh,13,26,F,R,IMT,2021-07-11_16h09.55.365,ImageRatingTask_S3,2021.1.4,Win32,60.0240096,,,,,,,,,
,,,,,,,,,,,,0,7,7,7,1,last,13,26,F,R,IMT,2021-07-11_16h09.55.365,ImageRatingTask_S3,2021.1.4,Win32,60.0240096,,,,,,,,,
,,,,,,,,,,,,,,,,,,13,26,F,R,IMT,2021-07-11_16h09.55.365,ImageRatingTask_S3,2021.1.4,Win32,60.0240096,0,78,78,4,1,DreamStudyImages_rs1000x750g/Water/NDPS153_lake.jpg,,,
,,4,3.192,3,0.923,9,1.95,1,0.748,8,3.681,0,0,0,0,1,main,13,26,F,R,IMT,2021-07-11_16h09.55.365,ImageRatingTask_S3,2021.1.4,Win32,60.0240096,,,,,,,,,
,,,,,,,,,,,,0,1,1,1,1,second,13,26,F,R,IMT,2021-07-11_16h09.55.365,ImageRatingTask_S3,2021.1.4,Win32,60.0240096,,,,,,,,,
,,,,,,,,,,,,0,2,2,2,1,third,13,26,F,R,IMT,2021-07-11_16h09.55.365,ImageRatingTask_S3,2021.1.4,Win32,60.0240096,,,,,,,,,
,,,,,,,,,,,,0,3,3,3,1,fourth,13,26,F,R,IMT,2021-07-11_16h09.55.365,ImageRatingTask_S3,2021.1.4,Win32,60.0240096,,,,,,,,,
,,,,,,,,,,,,0,4,4,4,1,fifth,13,26,F,R,IMT,2021-07-11_16h09.55.365,ImageRatingTask_S3,2021.1.4,Win32,60.0240096,,,,,,,,,
,,,,,,,,,,,,0,5,5,5,1,sixth,13,26,F,R,IMT,2021-07-11_16h09.55.365,ImageRatingTask_S3,2021.1.4,Win32,60.0240096,,,,,,,,,
,,,,,,,,,,,,0,6,6,6,1,seventh,13,26,F,R,IMT,2021-07-11_16h09.55.365,ImageRatingTask_S3,2021.1.4,Win32,60.0240096,,,,,,,,,
,,,,,,,,,,,,0,7,7,7,1,last,13,26,F,R,IMT,2021-07-11_16h09.55.365,ImageRatingTask_S3,2021.1.4,Win32,60.0240096,,,,,,,,,
,,,,,,,,,,,,,,,,,,13,26,F,R,IMT,2021-07-11_16h09.55.365,ImageRatingTask_S3,2021.1.4,Win32,60.0240096,0,79,79,80,1,DreamStudyImages_rs1000x750g/Water/NDPS32_seafromabove.jpg,,,
,,5,1.887,1,0.494,9,5.167,0,2.95,,,0,0,0,0,1,main,13,26,F,R,IMT,2021-07-11_16h09.55.365,ImageRatingTask_S3,2021.1.4,Win32,60.0240096,,,,,,,,,
,,,,,,,,,,,,0,1,1,1,1,second,13,26,F,R,IMT,2021-07-11_16h09.55.365,ImageRatingTask_S3,2021.1.4,Win32,60.0240096,,,,,,,,,
,,,,,,,,,,,,0,2,2,2,1,third,13,26,F,R,IMT,2021-07-11_16h09.55.365,ImageRatingTask_S3,2021.1.4,Win32,60.0240096,,,,,,,,,
,,,,,,,,,,,,0,3,3,3,1,fourth,13,26,F,R,IMT,2021-07-11_16h09.55.365,ImageRatingTask_S3,2021.1.4,Win32,60.0240096,,,,,,,,,
,,,,,,,,,,,,0,4,4,4,1,fifth,13,26,F,R,IMT,2021-07-11_16h09.55.365,ImageRatingTask_S3,2021.1.4,Win32,60.0240096,,,,,,,,,
,,,,,,,,,,,,0,5,5,5,1,sixth,13,26,F,R,IMT,2021-07-11_16h09.55.365,ImageRatingTask_S3,2021.1.4,Win32,60.0240096,,,,,,,,,
,,,,,,,,,,,,0,6,6,6,1,seventh,13,26,F,R,IMT,2021-07-11_16h09.55.365,ImageRatingTask_S3,2021.1.4,Win32,60.0240096,,,,,,,,,
,,,,,,,,,,,,0,7,7,7,1,last,13,26,F,R,IMT,2021-07-11_16h09.55.365,ImageRatingTask_S3,2021.1.4,Win32,60.0240096,,,,,,,,,
,,,,,,,,,,,,,,,,,,13,26,F,R,IMT,2021-07-11_16h09.55.365,ImageRatingTask_S3,2021.1.4,Win32,60.0240096,0,80,80,31,1,DreamStudyImages_rs1000x750g/Houses/Objects_241_h.jpg,,,
,,4,5.737,2,1.218,9,1.472,1,1.27,6,2.728,0,0,0,0,1,main,13,26,F,R,IMT,2021-07-11_16h09.55.365,ImageRatingTask_S3,2021.1.4,Win32,60.0240096,,,,,,,,,
,,,,,,,,,,,,0,1,1,1,1,second,13,26,F,R,IMT,2021-07-11_16h09.55.365,ImageRatingTask_S3,2021.1.4,Win32,60.0240096,,,,,,,,,
,,,,,,,,,,,,0,2,2,2,1,third,13,26,F,R,IMT,2021-07-11_16h09.55.365,ImageRatingTask_S3,2021.1.4,Win32,60.0240096,,,,,,,,,
,,,,,,,,,,,,0,3,3,3,1,fourth,13,26,F,R,IMT,2021-07-11_16h09.55.365,ImageRatingTask_S3,2021.1.4,Win32,60.0240096,,,,,,,,,
,,,,,,,,,,,,0,4,4,4,1,fifth,13,26,F,R,IMT,2021-07-11_16h09.55.365,ImageRatingTask_S3,2021.1.4,Win32,60.0240096,,,,,,,,,
,,,,,,,,,,,,0,5,5,5,1,sixth,13,26,F,R,IMT,2021-07-11_16h09.55.365,ImageRatingTask_S3,2021.1.4,Win32,60.0240096,,,,,,,,,
,,,,,,,,,,,,0,6,6,6,1,seventh,13,26,F,R,IMT,2021-07-11_16h09.55.365,ImageRatingTask_S3,2021.1.4,Win32,60.0240096,,,,,,,,,
,,,,,,,,,,,,0,7,7,7,1,last,13,26,F,R,IMT,2021-07-11_16h09.55.365,ImageRatingTask_S3,2021.1.4,Win32,60.0240096,,,,,,,,,
,,,,,,,,,,,,,,,,,,13,26,F,R,IMT,2021-07-11_16h09.55.365,ImageRatingTask_S3,2021.1.4,Win32,60.0240096,0,81,81,119,1,DreamStudyImages_rs1000x750g/Houses/Landscapes_070_h.jpg,,,
,,4,5.52,1,0.819,4,2.066,1,0.765,7,0.963,0,0,0,0,1,main,13,26,F,R,IMT,2021-07-11_16h09.55.365,ImageRatingTask_S3,2021.1.4,Win32,60.0240096,,,,,,,,,
,,,,,,,,,,,,0,1,1,1,1,second,13,26,F,R,IMT,2021-07-11_16h09.55.365,ImageRatingTask_S3,2021.1.4,Win32,60.0240096,,,,,,,,,
,,,,,,,,,,,,0,2,2,2,1,third,13,26,F,R,IMT,2021-07-11_16h09.55.365,ImageRatingTask_S3,2021.1.4,Win32,60.0240096,,,,,,,,,
,,,,,,,,,,,,0,3,3,3,1,fourth,13,26,F,R,IMT,2021-07-11_16h09.55.365,ImageRatingTask_S3,2021.1.4,Win32,60.0240096,,,,,,,,,
,,,,,,,,,,,,0,4,4,4,1,fifth,13,26,F,R,IMT,2021-07-11_16h09.55.365,ImageRatingTask_S3,2021.1.4,Win32,60.0240096,,,,,,,,,
,,,,,,,,,,,,0,5,5,5,1,sixth,13,26,F,R,IMT,2021-07-11_16h09.55.365,ImageRatingTask_S3,2021.1.4,Win32,60.0240096,,,,,,,,,
,,,,,,,,,,,,0,6,6,6,1,seventh,13,26,F,R,IMT,2021-07-11_16h09.55.365,ImageRatingTask_S3,2021.1.4,Win32,60.0240096,,,,,,,,,
,,,,,,,,,,,,0,7,7,7,1,last,13,26,F,R,IMT,2021-07-11_16h09.55.365,ImageRatingTask_S3,2021.1.4,Win32,60.0240096,,,,,,,,,
,,,,,,,,,,,,,,,,,,13,26,F,R,IMT,2021-07-11_16h09.55.365,ImageRatingTask_S3,2021.1.4,Win32,60.0240096,0,82,82,96,1,DreamStudyImages_rs1000x750g/Vehicles/IAPS7920_cartire.jpg,,,
,,5,0.868,1,0.199,4,1.739,1,0.735,6,2.06,0,0,0,0,1,main,13,26,F,R,IMT,2021-07-11_16h09.55.365,ImageRatingTask_S3,2021.1.4,Win32,60.0240096,,,,,,,,,
,,,,,,,,,,,,0,1,1,1,1,second,13,26,F,R,IMT,2021-07-11_16h09.55.365,ImageRatingTask_S3,2021.1.4,Win32,60.0240096,,,,,,,,,
,,,,,,,,,,,,0,2,2,2,1,third,13,26,F,R,IMT,2021-07-11_16h09.55.365,ImageRatingTask_S3,2021.1.4,Win32,60.0240096,,,,,,,,,
,,,,,,,,,,,,0,3,3,3,1,fourth,13,26,F,R,IMT,2021-07-11_16h09.55.365,ImageRatingTask_S3,2021.1.4,Win32,60.0240096,,,,,,,,,
,,,,,,,,,,,,0,4,4,4,1,fifth,13,26,F,R,IMT,2021-07-11_16h09.55.365,ImageRatingTask_S3,2021.1.4,Win32,60.0240096,,,,,,,,,
,,,,,,,,,,,,0,5,5,5,1,sixth,13,26,F,R,IMT,2021-07-11_16h09.55.365,ImageRatingTask_S3,2021.1.4,Win32,60.0240096,,,,,,,,,
,,,,,,,,,,,,0,6,6,6,1,seventh,13,26,F,R,IMT,2021-07-11_16h09.55.365,ImageRatingTask_S3,2021.1.4,Win32,60.0240096,,,,,,,,,
,,,,,,,,,,,,0,7,7,7,1,last,13,26,F,R,IMT,2021-07-11_16h09.55.365,ImageRatingTask_S3,2021.1.4,Win32,60.0240096,,,,,,,,,
,,,,,,,,,,,,,,,,,,13,26,F,R,IMT,2021-07-11_16h09.55.365,ImageRatingTask_S3,2021.1.4,Win32,60.0240096,0,83,83,88,1,DreamStudyImages_rs1000x750g/Houses/House 1.jpg,,,
,,3,3.138,5,1.021,5,3.316,1,0.883,6,1.696,0,0,0,0,1,main,13,26,F,R,IMT,2021-07-11_16h09.55.365,ImageRatingTask_S3,2021.1.4,Win32,60.0240096,,,,,,,,,
,,,,,,,,,,,,0,1,1,1,1,second,13,26,F,R,IMT,2021-07-11_16h09.55.365,ImageRatingTask_S3,2021.1.4,Win32,60.0240096,,,,,,,,,
,,,,,,,,,,,,0,2,2,2,1,third,13,26,F,R,IMT,2021-07-11_16h09.55.365,ImageRatingTask_S3,2021.1.4,Win32,60.0240096,,,,,,,,,
,,,,,,,,,,,,0,3,3,3,1,fourth,13,26,F,R,IMT,2021-07-11_16h09.55.365,ImageRatingTask_S3,2021.1.4,Win32,60.0240096,,,,,,,,,
,,,,,,,,,,,,0,4,4,4,1,fifth,13,26,F,R,IMT,2021-07-11_16h09.55.365,ImageRatingTask_S3,2021.1.4,Win32,60.0240096,,,,,,,,,
,,,,,,,,,,,,0,5,5,5,1,sixth,13,26,F,R,IMT,2021-07-11_16h09.55.365,ImageRatingTask_S3,2021.1.4,Win32,60.0240096,,,,,,,,,
,,,,,,,,,,,,0,6,6,6,1,seventh,13,26,F,R,IMT,2021-07-11_16h09.55.365,ImageRatingTask_S3,2021.1.4,Win32,60.0240096,,,,,,,,,
,,,,,,,,,,,,0,7,7,7,1,last,13,26,F,R,IMT,2021-07-11_16h09.55.365,ImageRatingTask_S3,2021.1.4,Win32,60.0240096,,,,,,,,,
,,,,,,,,,,,,,,,,,,13,26,F,R,IMT,2021-07-11_16h09.55.365,ImageRatingTask_S3,2021.1.4,Win32,60.0240096,0,84,84,55,1,DreamStudyImages_rs1000x750g/Houses/IAPS9471_burntbuilding.jpg,,,
,,6,1.718,1,1.009,9,2.12,1,0.482,2,1.479,0,0,0,0,1,main,13,26,F,R,IMT,2021-07-11_16h09.55.365,ImageRatingTask_S3,2021.1.4,Win32,60.0240096,,,,,,,,,
,,,,,,,,,,,,0,1,1,1,1,second,13,26,F,R,IMT,2021-07-11_16h09.55.365,ImageRatingTask_S3,2021.1.4,Win32,60.0240096,,,,,,,,,
,,,,,,,,,,,,0,2,2,2,1,third,13,26,F,R,IMT,2021-07-11_16h09.55.365,ImageRatingTask_S3,2021.1.4,Win32,60.0240096,,,,,,,,,
,,,,,,,,,,,,0,3,3,3,1,fourth,13,26,F,R,IMT,2021-07-11_16h09.55.365,ImageRatingTask_S3,2021.1.4,Win32,60.0240096,,,,,,,,,
,,,,,,,,,,,,0,4,4,4,1,fifth,13,26,F,R,IMT,2021-07-11_16h09.55.365,ImageRatingTask_S3,2021.1.4,Win32,60.0240096,,,,,,,,,
