test_key_val.keys,test_key_val.rt,test_key_aro.keys,test_key_aro.rt,test_key_qual.keys,test_key_qual.rt,test_key_ncat.keys,test_key_ncat.rt,test_key_cats.keys,test_key_cats.rt,test_ncat_order.thisRepN,test_ncat_order.thisTrialN,test_ncat_order.thisN,test_ncat_order.thisIndex,test_ncat_order.ran,cond_cat,participant,age,gender,handedness (L/R),site (IMT/Donders),date,expName,psychopyVersion,OS,frameRate,test_trials.thisRepN,test_trials.thisTrialN,test_trials.thisN,test_trials.thisIndex,test_trials.ran,test_filename,link,copyright,slider_pre.response,slider_pre.rt,key_val.keys,key_val.rt,key_aro.keys,key_aro.rt,key_qual.keys,key_qual.rt,key_ncat.keys,key_ncat.rt,key_cats.keys,key_cats.rt,ncat_order.thisRepN,ncat_order.thisTrialN,ncat_order.thisN,ncat_order.thisIndex,ncat_order.ran,img_trials.thisRepN,img_trials.thisTrialN,img_trials.thisN,img_trials.thisIndex,img_trials.ran,filename,slider_post.response,slider_post.rt,textbox_openfb.text
9,9.277,4,4.565,9,4.566,2,16.339,8,2.215,0,0,0,0,1,main,13,26,F,R,IMT,2021-07-09_13h57.09.114,ImageRatingTask_S1,2021.1.4,Win32,59.95203837,,,,,,,,,,,,,,,,,,,,,,,,,,,,,,,,,,
,,,,,,,,1,4.051,0,1,1,1,1,second,13,26,F,R,IMT,2021-07-09_13h57.09.114,ImageRatingTask_S1,2021.1.4,Win32,59.95203837,,,,,,,,,,,,,,,,,,,,,,,,,,,,,,,,,,
,,,,,,,,,,0,2,2,2,1,third,13,26,F,R,IMT,2021-07-09_13h57.09.114,ImageRatingTask_S1,2021.1.4,Win32,59.95203837,,,,,,,,,,,,,,,,,,,,,,,,,,,,,,,,,,
,,,,,,,,,,0,3,3,3,1,fourth,13,26,F,R,IMT,2021-07-09_13h57.09.114,ImageRatingTask_S1,2021.1.4,Win32,59.95203837,,,,,,,,,,,,,,,,,,,,,,,,,,,,,,,,,,
,,,,,,,,,,0,4,4,4,1,fifth,13,26,F,R,IMT,2021-07-09_13h57.09.114,ImageRatingTask_S1,2021.1.4,Win32,59.95203837,,,,,,,,,,,,,,,,,,,,,,,,,,,,,,,,,,
,,,,,,,,,,0,5,5,5,1,sixth,13,26,F,R,IMT,2021-07-09_13h57.09.114,ImageRatingTask_S1,2021.1.4,Win32,59.95203837,,,,,,,,,,,,,,,,,,,,,,,,,,,,,,,,,,
,,,,,,,,,,0,6,6,6,1,seventh,13,26,F,R,IMT,2021-07-09_13h57.09.114,ImageRatingTask_S1,2021.1.4,Win32,59.95203837,,,,,,,,,,,,,,,,,,,,,,,,,,,,,,,,,,
,,,,,,,,,,0,7,7,7,1,last,13,26,F,R,IMT,2021-07-09_13h57.09.114,ImageRatingTask_S1,2021.1.4,Win32,59.95203837,,,,,,,,,,,,,,,,,,,,,,,,,,,,,,,,,,
,,,,,,,,,,,,,,,,13,26,F,R,IMT,2021-07-09_13h57.09.114,ImageRatingTask_S1,2021.1.4,Win32,59.95203837,0,0,0,0,1,test1.jpg,https://www.flickr.com/photos/julzyax1/8713189147/in/photolist-egXnz6-Kg97g6-paYQjg-cDWcvy-e84vQU-fyRQKZ-dzuwVL-nzCPJw-dzp3r6-SXXSvw-aEgXGF-dzp1D8-aEgZ6F-prcoQG-aEgYd8-dt9EJ8-qTHZUL-dX8ut3-6eqh7x-aEkMyA-avjf71-6eqgKg-pNpDbJ-6euqa5-bo2EMC-q8hCLb-od8yyX-daaz4w-26cjVxB-CXaGmV-C7hSHf-aqmunq-9ek8a1-YcbBUe-apPWHB-HnB8rt-pHQLfh-8YgHaC-aqHteN-d5THbj-5dgTxP-afp2aV-8hNoSm-qhSjJS-d5TqoA-98WoKM-cjnSxo-9b4u7a-d5Tnzf-f7AETL,CC BY-NC 2.0,,,,,,,,,,,,,,,,,,,,,,,,,,
7,8.336,5,1.788,8,4.296,2,19.088,2,3.662,0,0,0,0,1,main,13,26,F,R,IMT,2021-07-09_13h57.09.114,ImageRatingTask_S1,2021.1.4,Win32,59.95203837,,,,,,,,,,,,,,,,,,,,,,,,,,,,,,,,,,
,,,,,,,,5,4.807,0,1,1,1,1,second,13,26,F,R,IMT,2021-07-09_13h57.09.114,ImageRatingTask_S1,2021.1.4,Win32,59.95203837,,,,,,,,,,,,,,,,,,,,,,,,,,,,,,,,,,
,,,,,,,,,,0,2,2,2,1,third,13,26,F,R,IMT,2021-07-09_13h57.09.114,ImageRatingTask_S1,2021.1.4,Win32,59.95203837,,,,,,,,,,,,,,,,,,,,,,,,,,,,,,,,,,
,,,,,,,,,,0,3,3,3,1,fourth,13,26,F,R,IMT,2021-07-09_13h57.09.114,ImageRatingTask_S1,2021.1.4,Win32,59.95203837,,,,,,,,,,,,,,,,,,,,,,,,,,,,,,,,,,
,,,,,,,,,,0,4,4,4,1,fifth,13,26,F,R,IMT,2021-07-09_13h57.09.114,ImageRatingTask_S1,2021.1.4,Win32,59.95203837,,,,,,,,,,,,,,,,,,,,,,,,,,,,,,,,,,
,,,,,,,,,,0,5,5,5,1,sixth,13,26,F,R,IMT,2021-07-09_13h57.09.114,ImageRatingTask_S1,2021.1.4,Win32,59.95203837,,,,,,,,,,,,,,,,,,,,,,,,,,,,,,,,,,
,,,,,,,,,,0,6,6,6,1,seventh,13,26,F,R,IMT,2021-07-09_13h57.09.114,ImageRatingTask_S1,2021.1.4,Win32,59.95203837,,,,,,,,,,,,,,,,,,,,,,,,,,,,,,,,,,
,,,,,,,,,,0,7,7,7,1,last,13,26,F,R,IMT,2021-07-09_13h57.09.114,ImageRatingTask_S1,2021.1.4,Win32,59.95203837,,,,,,,,,,,,,,,,,,,,,,,,,,,,,,,,,,
,,,,,,,,,,,,,,,,13,26,F,R,IMT,2021-07-09_13h57.09.114,ImageRatingTask_S1,2021.1.4,Win32,59.95203837,0,1,1,1,1,test2.jpg,https://www.flickr.com/photos/cavalier92/16036265548/,CC BY-NC-ND 2.0,,,,,,,,,,,,,,,,,,,,,,,,,,
5,3.321,1,2.419,9,2.684,0,11.675,,,0,0,0,0,1,main,13,26,F,R,IMT,2021-07-09_13h57.09.114,ImageRatingTask_S1,2021.1.4,Win32,59.95203837,,,,,,,,,,,,,,,,,,,,,,,,,,,,,,,,,,
,,,,,,,,,,0,1,1,1,1,second,13,26,F,R,IMT,2021-07-09_13h57.09.114,ImageRatingTask_S1,2021.1.4,Win32,59.95203837,,,,,,,,,,,,,,,,,,,,,,,,,,,,,,,,,,
,,,,,,,,,,0,2,2,2,1,third,13,26,F,R,IMT,2021-07-09_13h57.09.114,ImageRatingTask_S1,2021.1.4,Win32,59.95203837,,,,,,,,,,,,,,,,,,,,,,,,,,,,,,,,,,
,,,,,,,,,,0,3,3,3,1,fourth,13,26,F,R,IMT,2021-07-09_13h57.09.114,ImageRatingTask_S1,2021.1.4,Win32,59.95203837,,,,,,,,,,,,,,,,,,,,,,,,,,,,,,,,,,
,,,,,,,,,,0,4,4,4,1,fifth,13,26,F,R,IMT,2021-07-09_13h57.09.114,ImageRatingTask_S1,2021.1.4,Win32,59.95203837,,,,,,,,,,,,,,,,,,,,,,,,,,,,,,,,,,
,,,,,,,,,,0,5,5,5,1,sixth,13,26,F,R,IMT,2021-07-09_13h57.09.114,ImageRatingTask_S1,2021.1.4,Win32,59.95203837,,,,,,,,,,,,,,,,,,,,,,,,,,,,,,,,,,
,,,,,,,,,,0,6,6,6,1,seventh,13,26,F,R,IMT,2021-07-09_13h57.09.114,ImageRatingTask_S1,2021.1.4,Win32,59.95203837,,,,,,,,,,,,,,,,,,,,,,,,,,,,,,,,,,
,,,,,,,,,,0,7,7,7,1,last,13,26,F,R,IMT,2021-07-09_13h57.09.114,ImageRatingTask_S1,2021.1.4,Win32,59.95203837,,,,,,,,,,,,,,,,,,,,,,,,,,,,,,,,,,
,,,,,,,,,,,,,,,,13,26,F,R,IMT,2021-07-09_13h57.09.114,ImageRatingTask_S1,2021.1.4,Win32,59.95203837,0,2,2,4,1,test5.jpg,https://www.flickr.com/photos/silkebaron/2778692021/in/photolist-5exwk8-CeHF3S-5gg796-95cM2x-LGUrp7-oFgB6-2k7B5QN-aufKzz-hn8Di-8A3htc-8EagiU-4Hvk3Y-2b7s1f8-KSEPr-KSseq-KSrU3-KSu4o-KSsS3-Tp6nDS-KSCUM-VpC5Br-4j8meK-bdrepT-7GRM78-e6Zw96-8cCPed-9ANgBi-oFg73-2GGRxm-5dcivP-7sa8oG-2GGRzW-7CFUnh-3giGx-5Bz4op-3gTuGh-5cSvq6-pUnXj-hwTpWT-48n3iY-e5zg7q-7u7zP8-49195x-3iQDe9-aL7cWX-5exvLk-48n2Yy-toytsg-rw5VR-78NSA2,CC BY 2.0,,,,,,,,,,,,,,,,,,,,,,,,,,
5,67.56,1,10.307,8,4.511,2,17.849,7,1.535,0,0,0,0,1,main,13,26,F,R,IMT,2021-07-09_13h57.09.114,ImageRatingTask_S1,2021.1.4,Win32,59.95203837,,,,,,,,,,,,,,,,,,,,,,,,,,,,,,,,,,
,,,,,,,,4,1.24,0,1,1,1,1,second,13,26,F,R,IMT,2021-07-09_13h57.09.114,ImageRatingTask_S1,2021.1.4,Win32,59.95203837,,,,,,,,,,,,,,,,,,,,,,,,,,,,,,,,,,
,,,,,,,,,,0,2,2,2,1,third,13,26,F,R,IMT,2021-07-09_13h57.09.114,ImageRatingTask_S1,2021.1.4,Win32,59.95203837,,,,,,,,,,,,,,,,,,,,,,,,,,,,,,,,,,
,,,,,,,,,,0,3,3,3,1,fourth,13,26,F,R,IMT,2021-07-09_13h57.09.114,ImageRatingTask_S1,2021.1.4,Win32,59.95203837,,,,,,,,,,,,,,,,,,,,,,,,,,,,,,,,,,
,,,,,,,,,,0,4,4,4,1,fifth,13,26,F,R,IMT,2021-07-09_13h57.09.114,ImageRatingTask_S1,2021.1.4,Win32,59.95203837,,,,,,,,,,,,,,,,,,,,,,,,,,,,,,,,,,
,,,,,,,,,,0,5,5,5,1,sixth,13,26,F,R,IMT,2021-07-09_13h57.09.114,ImageRatingTask_S1,2021.1.4,Win32,59.95203837,,,,,,,,,,,,,,,,,,,,,,,,,,,,,,,,,,
,,,,,,,,,,0,6,6,6,1,seventh,13,26,F,R,IMT,2021-07-09_13h57.09.114,ImageRatingTask_S1,2021.1.4,Win32,59.95203837,,,,,,,,,,,,,,,,,,,,,,,,,,,,,,,,,,
,,,,,,,,,,0,7,7,7,1,last,13,26,F,R,IMT,2021-07-09_13h57.09.114,ImageRatingTask_S1,2021.1.4,Win32,59.95203837,,,,,,,,,,,,,,,,,,,,,,,,,,,,,,,,,,
,,,,,,,,,,,,,,,,13,26,F,R,IMT,2021-07-09_13h57.09.114,ImageRatingTask_S1,2021.1.4,Win32,59.95203837,0,3,3,3,1,test4.jpg,https://www.flickr.com/photos/8782469@N05/33550256294/in/photolist-T7HQjJ-6bL62X-gQ2ptt-eARbhf-dbgLvQ-uKUpgG-e6GNPD-e6iDuV-RwYJie-Ur28At-u6Dvwk-fwts3x-CgqS5E-dgJSNE-fwHPg9-bFQoWv-9qgCN-TQZT7E-475QF-v3ZBG9-v5TFQL-aQVeNV-49XCzE-e5Va7j-v3WosE-5jvzS-cBxjA5-fwJ2P3-TP86kq-eREpVC-rMTQZx-Um3k-ajziHj-CgqSzN-dgP2Ci-e6putY-652ZqG-eARzQm-6ikz1-vrGjvh-Chgvpm-pFFnYq-8bKoVw-eAsukg-daANXC-MwMMfW-5ArWsa-GMcDmn-bLo6CH-9KgagR,CC BY 2.0,,,,,,,,,,,,,,,,,,,,,,,,,,
1,38.139,2,8.039,8,3.494,2,5.915,4,2.927,0,0,0,0,1,main,13,26,F,R,IMT,2021-07-09_13h57.09.114,ImageRatingTask_S1,2021.1.4,Win32,59.95203837,,,,,,,,,,,,,,,,,,,,,,,,,,,,,,,,,,
,,,,,,,,1,1.354,0,1,1,1,1,second,13,26,F,R,IMT,2021-07-09_13h57.09.114,ImageRatingTask_S1,2021.1.4,Win32,59.95203837,,,,,,,,,,,,,,,,,,,,,,,,,,,,,,,,,,
,,,,,,,,,,0,2,2,2,1,third,13,26,F,R,IMT,2021-07-09_13h57.09.114,ImageRatingTask_S1,2021.1.4,Win32,59.95203837,,,,,,,,,,,,,,,,,,,,,,,,,,,,,,,,,,
,,,,,,,,,,0,3,3,3,1,fourth,13,26,F,R,IMT,2021-07-09_13h57.09.114,ImageRatingTask_S1,2021.1.4,Win32,59.95203837,,,,,,,,,,,,,,,,,,,,,,,,,,,,,,,,,,
,,,,,,,,,,0,4,4,4,1,fifth,13,26,F,R,IMT,2021-07-09_13h57.09.114,ImageRatingTask_S1,2021.1.4,Win32,59.95203837,,,,,,,,,,,,,,,,,,,,,,,,,,,,,,,,,,
,,,,,,,,,,0,5,5,5,1,sixth,13,26,F,R,IMT,2021-07-09_13h57.09.114,ImageRatingTask_S1,2021.1.4,Win32,59.95203837,,,,,,,,,,,,,,,,,,,,,,,,,,,,,,,,,,
,,,,,,,,,,0,6,6,6,1,seventh,13,26,F,R,IMT,2021-07-09_13h57.09.114,ImageRatingTask_S1,2021.1.4,Win32,59.95203837,,,,,,,,,,,,,,,,,,,,,,,,,,,,,,,,,,
,,,,,,,,,,0,7,7,7,1,last,13,26,F,R,IMT,2021-07-09_13h57.09.114,ImageRatingTask_S1,2021.1.4,Win32,59.95203837,,,,,,,,,,,,,,,,,,,,,,,,,,,,,,,,,,
,,,,,,,,,,,,,,,,13,26,F,R,IMT,2021-07-09_13h57.09.114,ImageRatingTask_S1,2021.1.4,Win32,59.95203837,0,4,4,2,1,test3.jpg,https://www.flickr.com/photos/7487886@N04/35810127921/in/photolist-WyqgqD-DQSoP-6SrFCE-39ywib-39Bezs-9gt8aT-9gt83Z-eEgA9B-KnLx9-9gt8dK-HXwdie-2b6FA2g-4ekt5k-9ECfRg-2Zr5GQ-2Zr5mC-2Zr6kW-2Zr5Xu-2Zmyac-98TgbK-7U5XRj-am4oXb-98ThEB-2Bw3gh-vXo6D-Wt9U8o-DGiErb-DGiEqE-2m3CpV6-6E2aGG-6DXgqc-4PC3pQ-6HwMbx-dHYvkg-a2ycs-JLvMv-7k6DhM-bA81AL-8zwPFe-5nMrZu-3Ep2da-nhhd2L-DvDkr-81RkjZ-E1HXA-GzGH8Z-83vZYf-9krgXK-5nMxuU-DGiEqu,CC BY-NC 2.0,,,,,,,,,,,,,,,,,,,,,,,,,,
,,,,,,,,,,,,,,,main,13,26,F,R,IMT,2021-07-09_13h57.09.114,ImageRatingTask_S1,2021.1.4,Win32,59.95203837,,,,,,,,,6,8.233,5,10.766,1,2.533,7,4.677,1,5.436,7,1.43,0,0,0,0,1,,,,,,,,,
,,,,,,,,,,,,,,,second,13,26,F,R,IMT,2021-07-09_13h57.09.114,ImageRatingTask_S1,2021.1.4,Win32,59.95203837,,,,,,,,,,,,,,,,,,,,,0,1,1,1,1,,,,,,,,,
,,,,,,,,,,,,,,,third,13,26,F,R,IMT,2021-07-09_13h57.09.114,ImageRatingTask_S1,2021.1.4,Win32,59.95203837,,,,,,,,,,,,,,,,,,,,,0,2,2,2,1,,,,,,,,,
,,,,,,,,,,,,,,,fourth,13,26,F,R,IMT,2021-07-09_13h57.09.114,ImageRatingTask_S1,2021.1.4,Win32,59.95203837,,,,,,,,,,,,,,,,,,,,,0,3,3,3,1,,,,,,,,,
,,,,,,,,,,,,,,,fifth,13,26,F,R,IMT,2021-07-09_13h57.09.114,ImageRatingTask_S1,2021.1.4,Win32,59.95203837,,,,,,,,,,,,,,,,,,,,,0,4,4,4,1,,,,,,,,,
,,,,,,,,,,,,,,,sixth,13,26,F,R,IMT,2021-07-09_13h57.09.114,ImageRatingTask_S1,2021.1.4,Win32,59.95203837,,,,,,,,,,,,,,,,,,,,,0,5,5,5,1,,,,,,,,,
,,,,,,,,,,,,,,,seventh,13,26,F,R,IMT,2021-07-09_13h57.09.114,ImageRatingTask_S1,2021.1.4,Win32,59.95203837,,,,,,,,,,,,,,,,,,,,,0,6,6,6,1,,,,,,,,,
,,,,,,,,,,,,,,,last,13,26,F,R,IMT,2021-07-09_13h57.09.114,ImageRatingTask_S1,2021.1.4,Win32,59.95203837,,,,,,,,,,,,,,,,,,,,,0,7,7,7,1,,,,,,,,,
,,,,,,,,,,,,,,,,13,26,F,R,IMT,2021-07-09_13h57.09.114,ImageRatingTask_S1,2021.1.4,Win32,59.95203837,,,,,,,,,,,,,,,,,,,,,,,,,,0,0,0,121,1,DreamStudyImages_rs1000x750g/Vehicles/Objects_294_h.jpg,,,
,,,,,,,,,,,,,,,main,13,26,F,R,IMT,2021-07-09_13h57.09.114,ImageRatingTask_S1,2021.1.4,Win32,59.95203837,,,,,,,,,,,5,3.288,1,3.083,9,2.18,1,7.416,6,2.061,0,0,0,0,1,,,,,,,,,
,,,,,,,,,,,,,,,second,13,26,F,R,IMT,2021-07-09_13h57.09.114,ImageRatingTask_S1,2021.1.4,Win32,59.95203837,,,,,,,,,,,,,,,,,,,,,0,1,1,1,1,,,,,,,,,
,,,,,,,,,,,,,,,third,13,26,F,R,IMT,2021-07-09_13h57.09.114,ImageRatingTask_S1,2021.1.4,Win32,59.95203837,,,,,,,,,,,,,,,,,,,,,0,2,2,2,1,,,,,,,,,
,,,,,,,,,,,,,,,fourth,13,26,F,R,IMT,2021-07-09_13h57.09.114,ImageRatingTask_S1,2021.1.4,Win32,59.95203837,,,,,,,,,,,,,,,,,,,,,0,3,3,3,1,,,,,,,,,
,,,,,,,,,,,,,,,fifth,13,26,F,R,IMT,2021-07-09_13h57.09.114,ImageRatingTask_S1,2021.1.4,Win32,59.95203837,,,,,,,,,,,,,,,,,,,,,0,4,4,4,1,,,,,,,,,
,,,,,,,,,,,,,,,sixth,13,26,F,R,IMT,2021-07-09_13h57.09.114,ImageRatingTask_S1,2021.1.4,Win32,59.95203837,,,,,,,,,,,,,,,,,,,,,0,5,5,5,1,,,,,,,,,
,,,,,,,,,,,,,,,seventh,13,26,F,R,IMT,2021-07-09_13h57.09.114,ImageRatingTask_S1,2021.1.4,Win32,59.95203837,,,,,,,,,,,,,,,,,,,,,0,6,6,6,1,,,,,,,,,
,,,,,,,,,,,,,,,last,13,26,F,R,IMT,2021-07-09_13h57.09.114,ImageRatingTask_S1,2021.1.4,Win32,59.95203837,,,,,,,,,,,,,,,,,,,,,0,7,7,7,1,,,,,,,,,
,,,,,,,,,,,,,,,,13,26,F,R,IMT,2021-07-09_13h57.09.114,ImageRatingTask_S1,2021.1.4,Win32,59.95203837,,,,,,,,,,,,,,,,,,,,,,,,,,0,1,1,38,1,DreamStudyImages_rs1000x750g/Houses/Landscapes_049_h.jpg,,,
,,,,,,,,,,,,,,,main,13,26,F,R,IMT,2021-07-09_13h57.09.114,ImageRatingTask_S1,2021.1.4,Win32,59.95203837,,,,,,,,,,,6,3.133,3,1.762,9,1.325,1,6.388,8,0.991,0,0,0,0,1,,,,,,,,,
,,,,,,,,,,,,,,,second,13,26,F,R,IMT,2021-07-09_13h57.09.114,ImageRatingTask_S1,2021.1.4,Win32,59.95203837,,,,,,,,,,,,,,,,,,,,,0,1,1,1,1,,,,,,,,,
,,,,,,,,,,,,,,,third,13,26,F,R,IMT,2021-07-09_13h57.09.114,ImageRatingTask_S1,2021.1.4,Win32,59.95203837,,,,,,,,,,,,,,,,,,,,,0,2,2,2,1,,,,,,,,,
,,,,,,,,,,,,,,,fourth,13,26,F,R,IMT,2021-07-09_13h57.09.114,ImageRatingTask_S1,2021.1.4,Win32,59.95203837,,,,,,,,,,,,,,,,,,,,,0,3,3,3,1,,,,,,,,,
,,,,,,,,,,,,,,,fifth,13,26,F,R,IMT,2021-07-09_13h57.09.114,ImageRatingTask_S1,2021.1.4,Win32,59.95203837,,,,,,,,,,,,,,,,,,,,,0,4,4,4,1,,,,,,,,,
,,,,,,,,,,,,,,,sixth,13,26,F,R,IMT,2021-07-09_13h57.09.114,ImageRatingTask_S1,2021.1.4,Win32,59.95203837,,,,,,,,,,,,,,,,,,,,,0,5,5,5,1,,,,,,,,,
,,,,,,,,,,,,,,,seventh,13,26,F,R,IMT,2021-07-09_13h57.09.114,ImageRatingTask_S1,2021.1.4,Win32,59.95203837,,,,,,,,,,,,,,,,,,,,,0,6,6,6,1,,,,,,,,,
,,,,,,,,,,,,,,,last,13,26,F,R,IMT,2021-07-09_13h57.09.114,ImageRatingTask_S1,2021.1.4,Win32,59.95203837,,,,,,,,,,,,,,,,,,,,,0,7,7,7,1,,,,,,,,,
,,,,,,,,,,,,,,,,13,26,F,R,IMT,2021-07-09_13h57.09.114,ImageRatingTask_S1,2021.1.4,Win32,59.95203837,,,,,,,,,,,,,,,,,,,,,,,,,,0,2,2,15,1,DreamStudyImages_rs1000x750g/Water/5210.jpg,,,
,,,,,,,,,,,,,,,main,13,26,F,R,IMT,2021-07-09_13h57.09.114,ImageRatingTask_S1,2021.1.4,Win32,59.95203837,,,,,,,,,,,6,4.386,2,1.434,9,6.957,1,3.191,2,1.283,0,0,0,0,1,,,,,,,,,
,,,,,,,,,,,,,,,second,13,26,F,R,IMT,2021-07-09_13h57.09.114,ImageRatingTask_S1,2021.1.4,Win32,59.95203837,,,,,,,,,,,,,,,,,,,,,0,1,1,1,1,,,,,,,,,
,,,,,,,,,,,,,,,third,13,26,F,R,IMT,2021-07-09_13h57.09.114,ImageRatingTask_S1,2021.1.4,Win32,59.95203837,,,,,,,,,,,,,,,,,,,,,0,2,2,2,1,,,,,,,,,
,,,,,,,,,,,,,,,fourth,13,26,F,R,IMT,2021-07-09_13h57.09.114,ImageRatingTask_S1,2021.1.4,Win32,59.95203837,,,,,,,,,,,,,,,,,,,,,0,3,3,3,1,,,,,,,,,
,,,,,,,,,,,,,,,fifth,13,26,F,R,IMT,2021-07-09_13h57.09.114,ImageRatingTask_S1,2021.1.4,Win32,59.95203837,,,,,,,,,,,,,,,,,,,,,0,4,4,4,1,,,,,,,,,
,,,,,,,,,,,,,,,sixth,13,26,F,R,IMT,2021-07-09_13h57.09.114,ImageRatingTask_S1,2021.1.4,Win32,59.95203837,,,,,,,,,,,,,,,,,,,,,0,5,5,5,1,,,,,,,,,
,,,,,,,,,,,,,,,seventh,13,26,F,R,IMT,2021-07-09_13h57.09.114,ImageRatingTask_S1,2021.1.4,Win32,59.95203837,,,,,,,,,,,,,,,,,,,,,0,6,6,6,1,,,,,,,,,
,,,,,,,,,,,,,,,last,13,26,F,R,IMT,2021-07-09_13h57.09.114,ImageRatingTask_S1,2021.1.4,Win32,59.95203837,,,,,,,,,,,,,,,,,,,,,0,7,7,7,1,,,,,,,,,
,,,,,,,,,,,,,,,,13,26,F,R,IMT,2021-07-09_13h57.09.114,ImageRatingTask_S1,2021.1.4,Win32,59.95203837,,,,,,,,,,,,,,,,,,,,,,,,,,0,3,3,42,1,DreamStudyImages_rs1000x750g/Children/IAPS2222_children4.jpg,,,
,,,,,,,,,,,,,,,main,13,26,F,R,IMT,2021-07-09_13h57.09.114,ImageRatingTask_S1,2021.1.4,Win32,59.95203837,,,,,,,,,,,4,3.36,3,2.438,9,5.139,1,2.046,4,2.474,0,0,0,0,1,,,,,,,,,
,,,,,,,,,,,,,,,second,13,26,F,R,IMT,2021-07-09_13h57.09.114,ImageRatingTask_S1,2021.1.4,Win32,59.95203837,,,,,,,,,,,,,,,,,,,,,0,1,1,1,1,,,,,,,,,
,,,,,,,,,,,,,,,third,13,26,F,R,IMT,2021-07-09_13h57.09.114,ImageRatingTask_S1,2021.1.4,Win32,59.95203837,,,,,,,,,,,,,,,,,,,,,0,2,2,2,1,,,,,,,,,
,,,,,,,,,,,,,,,fourth,13,26,F,R,IMT,2021-07-09_13h57.09.114,ImageRatingTask_S1,2021.1.4,Win32,59.95203837,,,,,,,,,,,,,,,,,,,,,0,3,3,3,1,,,,,,,,,
,,,,,,,,,,,,,,,fifth,13,26,F,R,IMT,2021-07-09_13h57.09.114,ImageRatingTask_S1,2021.1.4,Win32,59.95203837,,,,,,,,,,,,,,,,,,,,,0,4,4,4,1,,,,,,,,,
,,,,,,,,,,,,,,,sixth,13,26,F,R,IMT,2021-07-09_13h57.09.114,ImageRatingTask_S1,2021.1.4,Win32,59.95203837,,,,,,,,,,,,,,,,,,,,,0,5,5,5,1,,,,,,,,,
,,,,,,,,,,,,,,,seventh,13,26,F,R,IMT,2021-07-09_13h57.09.114,ImageRatingTask_S1,2021.1.4,Win32,59.95203837,,,,,,,,,,,,,,,,,,,,,0,6,6,6,1,,,,,,,,,
,,,,,,,,,,,,,,,last,13,26,F,R,IMT,2021-07-09_13h57.09.114,ImageRatingTask_S1,2021.1.4,Win32,59.95203837,,,,,,,,,,,,,,,,,,,,,0,7,7,7,1,,,,,,,,,
,,,,,,,,,,,,,,,,13,26,F,R,IMT,2021-07-09_13h57.09.114,ImageRatingTask_S1,2021.1.4,Win32,59.95203837,,,,,,,,,,,,,,,,,,,,,,,,,,0,4,4,59,1,DreamStudyImages_rs1000x750g/Mammals/Animals_050_h.jpg,,,
,,,,,,,,,,,,,,,main,13,26,F,R,IMT,2021-07-09_13h57.09.114,ImageRatingTask_S1,2021.1.4,Win32,59.95203837,,,,,,,,,,,5,3.89,1,1.722,9,2.933,1,6.674,7,0.789,0,0,0,0,1,,,,,,,,,
,,,,,,,,,,,,,,,second,13,26,F,R,IMT,2021-07-09_13h57.09.114,ImageRatingTask_S1,2021.1.4,Win32,59.95203837,,,,,,,,,,,,,,,,,,,,,0,1,1,1,1,,,,,,,,,
,,,,,,,,,,,,,,,third,13,26,F,R,IMT,2021-07-09_13h57.09.114,ImageRatingTask_S1,2021.1.4,Win32,59.95203837,,,,,,,,,,,,,,,,,,,,,0,2,2,2,1,,,,,,,,,
,,,,,,,,,,,,,,,fourth,13,26,F,R,IMT,2021-07-09_13h57.09.114,ImageRatingTask_S1,2021.1.4,Win32,59.95203837,,,,,,,,,,,,,,,,,,,,,0,3,3,3,1,,,,,,,,,
,,,,,,,,,,,,,,,fifth,13,26,F,R,IMT,2021-07-09_13h57.09.114,ImageRatingTask_S1,2021.1.4,Win32,59.95203837,,,,,,,,,,,,,,,,,,,,,0,4,4,4,1,,,,,,,,,
,,,,,,,,,,,,,,,sixth,13,26,F,R,IMT,2021-07-09_13h57.09.114,ImageRatingTask_S1,2021.1.4,Win32,59.95203837,,,,,,,,,,,,,,,,,,,,,0,5,5,5,1,,,,,,,,,
,,,,,,,,,,,,,,,seventh,13,26,F,R,IMT,2021-07-09_13h57.09.114,ImageRatingTask_S1,2021.1.4,Win32,59.95203837,,,,,,,,,,,,,,,,,,,,,0,6,6,6,1,,,,,,,,,
,,,,,,,,,,,,,,,last,13,26,F,R,IMT,2021-07-09_13h57.09.114,ImageRatingTask_S1,2021.1.4,Win32,59.95203837,,,,,,,,,,,,,,,,,,,,,0,7,7,7,1,,,,,,,,,
,,,,,,,,,,,,,,,,13,26,F,R,IMT,2021-07-09_13h57.09.114,ImageRatingTask_S1,2021.1.4,Win32,59.95203837,,,,,,,,,,,,,,,,,,,,,,,,,,0,5,5,5,1,DreamStudyImages_rs1000x750g/Vehicles/vespa.jpg,,,
,,,,,,,,,,,,,,,main,13,26,F,R,IMT,2021-07-09_13h57.09.114,ImageRatingTask_S1,2021.1.4,Win32,59.95203837,,,,,,,,,,,6,2.812,2,1.224,8,2.793,1,4.16,2,0.853,0,0,0,0,1,,,,,,,,,
,,,,,,,,,,,,,,,second,13,26,F,R,IMT,2021-07-09_13h57.09.114,ImageRatingTask_S1,2021.1.4,Win32,59.95203837,,,,,,,,,,,,,,,,,,,,,0,1,1,1,1,,,,,,,,,
,,,,,,,,,,,,,,,third,13,26,F,R,IMT,2021-07-09_13h57.09.114,ImageRatingTask_S1,2021.1.4,Win32,59.95203837,,,,,,,,,,,,,,,,,,,,,0,2,2,2,1,,,,,,,,,
,,,,,,,,,,,,,,,fourth,13,26,F,R,IMT,2021-07-09_13h57.09.114,ImageRatingTask_S1,2021.1.4,Win32,59.95203837,,,,,,,,,,,,,,,,,,,,,0,3,3,3,1,,,,,,,,,
,,,,,,,,,,,,,,,fifth,13,26,F,R,IMT,2021-07-09_13h57.09.114,ImageRatingTask_S1,2021.1.4,Win32,59.95203837,,,,,,,,,,,,,,,,,,,,,0,4,4,4,1,,,,,,,,,
,,,,,,,,,,,,,,,sixth,13,26,F,R,IMT,2021-07-09_13h57.09.114,ImageRatingTask_S1,2021.1.4,Win32,59.95203837,,,,,,,,,,,,,,,,,,,,,0,5,5,5,1,,,,,,,,,
,,,,,,,,,,,,,,,seventh,13,26,F,R,IMT,2021-07-09_13h57.09.114,ImageRatingTask_S1,2021.1.4,Win32,59.95203837,,,,,,,,,,,,,,,,,,,,,0,6,6,6,1,,,,,,,,,
,,,,,,,,,,,,,,,last,13,26,F,R,IMT,2021-07-09_13h57.09.114,ImageRatingTask_S1,2021.1.4,Win32,59.95203837,,,,,,,,,,,,,,,,,,,,,0,7,7,7,1,,,,,,,,,
,,,,,,,,,,,,,,,,13,26,F,R,IMT,2021-07-09_13h57.09.114,ImageRatingTask_S1,2021.1.4,Win32,59.95203837,,,,,,,,,,,,,,,,,,,,,,,,,,0,6,6,99,1,DreamStudyImages_rs1000x750g/Children/Faces_102_h.jpg,,,
,,,,,,,,,,,,,,,main,13,26,F,R,IMT,2021-07-09_13h57.09.114,ImageRatingTask_S1,2021.1.4,Win32,59.95203837,,,,,,,,,,,5,9.604,4,1.579,9,2.999,1,1.746,3,21.266,0,0,0,0,1,,,,,,,,,
,,,,,,,,,,,,,,,second,13,26,F,R,IMT,2021-07-09_13h57.09.114,ImageRatingTask_S1,2021.1.4,Win32,59.95203837,,,,,,,,,,,,,,,,,,,,,0,1,1,1,1,,,,,,,,,
,,,,,,,,,,,,,,,third,13,26,F,R,IMT,2021-07-09_13h57.09.114,ImageRatingTask_S1,2021.1.4,Win32,59.95203837,,,,,,,,,,,,,,,,,,,,,0,2,2,2,1,,,,,,,,,
,,,,,,,,,,,,,,,fourth,13,26,F,R,IMT,2021-07-09_13h57.09.114,ImageRatingTask_S1,2021.1.4,Win32,59.95203837,,,,,,,,,,,,,,,,,,,,,0,3,3,3,1,,,,,,,,,
,,,,,,,,,,,,,,,fifth,13,26,F,R,IMT,2021-07-09_13h57.09.114,ImageRatingTask_S1,2021.1.4,Win32,59.95203837,,,,,,,,,,,,,,,,,,,,,0,4,4,4,1,,,,,,,,,
,,,,,,,,,,,,,,,sixth,13,26,F,R,IMT,2021-07-09_13h57.09.114,ImageRatingTask_S1,2021.1.4,Win32,59.95203837,,,,,,,,,,,,,,,,,,,,,0,5,5,5,1,,,,,,,,,
,,,,,,,,,,,,,,,seventh,13,26,F,R,IMT,2021-07-09_13h57.09.114,ImageRatingTask_S1,2021.1.4,Win32,59.95203837,,,,,,,,,,,,,,,,,,,,,0,6,6,6,1,,,,,,,,,
,,,,,,,,,,,,,,,last,13,26,F,R,IMT,2021-07-09_13h57.09.114,ImageRatingTask_S1,2021.1.4,Win32,59.95203837,,,,,,,,,,,,,,,,,,,,,0,7,7,7,1,,,,,,,,,
,,,,,,,,,,,,,,,,13,26,F,R,IMT,2021-07-09_13h57.09.114,ImageRatingTask_S1,2021.1.4,Win32,59.95203837,,,,,,,,,,,,,,,,,,,,,,,,,,0,7,7,117,1,DreamStudyImages_rs1000x750g/Mammals/Animals_085_h.jpg,,,
,,,,,,,,,,,,,,,main,13,26,F,R,IMT,2021-07-09_13h57.09.114,ImageRatingTask_S1,2021.1.4,Win32,59.95203837,,,,,,,,,,,5,4.874,1,1.202,9,6.357,1,2.952,6,0.961,0,0,0,0,1,,,,,,,,,
,,,,,,,,,,,,,,,second,13,26,F,R,IMT,2021-07-09_13h57.09.114,ImageRatingTask_S1,2021.1.4,Win32,59.95203837,,,,,,,,,,,,,,,,,,,,,0,1,1,1,1,,,,,,,,,
,,,,,,,,,,,,,,,third,13,26,F,R,IMT,2021-07-09_13h57.09.114,ImageRatingTask_S1,2021.1.4,Win32,59.95203837,,,,,,,,,,,,,,,,,,,,,0,2,2,2,1,,,,,,,,,
,,,,,,,,,,,,,,,fourth,13,26,F,R,IMT,2021-07-09_13h57.09.114,ImageRatingTask_S1,2021.1.4,Win32,59.95203837,,,,,,,,,,,,,,,,,,,,,0,3,3,3,1,,,,,,,,,
,,,,,,,,,,,,,,,fifth,13,26,F,R,IMT,2021-07-09_13h57.09.114,ImageRatingTask_S1,2021.1.4,Win32,59.95203837,,,,,,,,,,,,,,,,,,,,,0,4,4,4,1,,,,,,,,,
,,,,,,,,,,,,,,,sixth,13,26,F,R,IMT,2021-07-09_13h57.09.114,ImageRatingTask_S1,2021.1.4,Win32,59.95203837,,,,,,,,,,,,,,,,,,,,,0,5,5,5,1,,,,,,,,,
,,,,,,,,,,,,,,,seventh,13,26,F,R,IMT,2021-07-09_13h57.09.114,ImageRatingTask_S1,2021.1.4,Win32,59.95203837,,,,,,,,,,,,,,,,,,,,,0,6,6,6,1,,,,,,,,,
,,,,,,,,,,,,,,,last,13,26,F,R,IMT,2021-07-09_13h57.09.114,ImageRatingTask_S1,2021.1.4,Win32,59.95203837,,,,,,,,,,,,,,,,,,,,,0,7,7,7,1,,,,,,,,,
,,,,,,,,,,,,,,,,13,26,F,R,IMT,2021-07-09_13h57.09.114,ImageRatingTask_S1,2021.1.4,Win32,59.95203837,,,,,,,,,,,,,,,,,,,,,,,,,,0,8,8,70,1,DreamStudyImages_rs1000x750g/Houses/Landscapes_035_v.jpg,,,
,,,,,,,,,,,,,,,main,13,26,F,R,IMT,2021-07-09_13h57.09.114,ImageRatingTask_S1,2021.1.4,Win32,59.95203837,,,,,,,,,,,3,6.667,5,1.482,7,2.312,1,2.036,7,0.855,0,0,0,0,1,,,,,,,,,
,,,,,,,,,,,,,,,second,13,26,F,R,IMT,2021-07-09_13h57.09.114,ImageRatingTask_S1,2021.1.4,Win32,59.95203837,,,,,,,,,,,,,,,,,,,,,0,1,1,1,1,,,,,,,,,
,,,,,,,,,,,,,,,third,13,26,F,R,IMT,2021-07-09_13h57.09.114,ImageRatingTask_S1,2021.1.4,Win32,59.95203837,,,,,,,,,,,,,,,,,,,,,0,2,2,2,1,,,,,,,,,
,,,,,,,,,,,,,,,fourth,13,26,F,R,IMT,2021-07-09_13h57.09.114,ImageRatingTask_S1,2021.1.4,Win32,59.95203837,,,,,,,,,,,,,,,,,,,,,0,3,3,3,1,,,,,,,,,
,,,,,,,,,,,,,,,fifth,13,26,F,R,IMT,2021-07-09_13h57.09.114,ImageRatingTask_S1,2021.1.4,Win32,59.95203837,,,,,,,,,,,,,,,,,,,,,0,4,4,4,1,,,,,,,,,
,,,,,,,,,,,,,,,sixth,13,26,F,R,IMT,2021-07-09_13h57.09.114,ImageRatingTask_S1,2021.1.4,Win32,59.95203837,,,,,,,,,,,,,,,,,,,,,0,5,5,5,1,,,,,,,,,
,,,,,,,,,,,,,,,seventh,13,26,F,R,IMT,2021-07-09_13h57.09.114,ImageRatingTask_S1,2021.1.4,Win32,59.95203837,,,,,,,,,,,,,,,,,,,,,0,6,6,6,1,,,,,,,,,
,,,,,,,,,,,,,,,last,13,26,F,R,IMT,2021-07-09_13h57.09.114,ImageRatingTask_S1,2021.1.4,Win32,59.95203837,,,,,,,,,,,,,,,,,,,,,0,7,7,7,1,,,,,,,,,
,,,,,,,,,,,,,,,,13,26,F,R,IMT,2021-07-09_13h57.09.114,ImageRatingTask_S1,2021.1.4,Win32,59.95203837,,,,,,,,,,,,,,,,,,,,,,,,,,0,9,9,85,1,DreamStudyImages_rs1000x750g/Vehicles/Car accident 3.jpg,,,
,,,,,,,,,,,,,,,main,13,26,F,R,IMT,2021-07-09_13h57.09.114,ImageRatingTask_S1,2021.1.4,Win32,59.95203837,,,,,,,,,,,1,3.347,6,1.414,9,4.772,1,1.652,6,1.527,0,0,0,0,1,,,,,,,,,
,,,,,,,,,,,,,,,second,13,26,F,R,IMT,2021-07-09_13h57.09.114,ImageRatingTask_S1,2021.1.4,Win32,59.95203837,,,,,,,,,,,,,,,,,,,,,0,1,1,1,1,,,,,,,,,
,,,,,,,,,,,,,,,third,13,26,F,R,IMT,2021-07-09_13h57.09.114,ImageRatingTask_S1,2021.1.4,Win32,59.95203837,,,,,,,,,,,,,,,,,,,,,0,2,2,2,1,,,,,,,,,
,,,,,,,,,,,,,,,fourth,13,26,F,R,IMT,2021-07-09_13h57.09.114,ImageRatingTask_S1,2021.1.4,Win32,59.95203837,,,,,,,,,,,,,,,,,,,,,0,3,3,3,1,,,,,,,,,
,,,,,,,,,,,,,,,fifth,13,26,F,R,IMT,2021-07-09_13h57.09.114,ImageRatingTask_S1,2021.1.4,Win32,59.95203837,,,,,,,,,,,,,,,,,,,,,0,4,4,4,1,,,,,,,,,
,,,,,,,,,,,,,,,sixth,13,26,F,R,IMT,2021-07-09_13h57.09.114,ImageRatingTask_S1,2021.1.4,Win32,59.95203837,,,,,,,,,,,,,,,,,,,,,0,5,5,5,1,,,,,,,,,
,,,,,,,,,,,,,,,seventh,13,26,F,R,IMT,2021-07-09_13h57.09.114,ImageRatingTask_S1,2021.1.4,Win32,59.95203837,,,,,,,,,,,,,,,,,,,,,0,6,6,6,1,,,,,,,,,
,,,,,,,,,,,,,,,last,13,26,F,R,IMT,2021-07-09_13h57.09.114,ImageRatingTask_S1,2021.1.4,Win32,59.95203837,,,,,,,,,,,,,,,,,,,,,0,7,7,7,1,,,,,,,,,
,,,,,,,,,,,,,,,,13,26,F,R,IMT,2021-07-09_13h57.09.114,ImageRatingTask_S1,2021.1.4,Win32,59.95203837,,,,,,,,,,,,,,,,,,,,,,,,,,0,10,10,157,1,DreamStudyImages_rs1000x750g/Houses/NDPS110_buriedhouse.jpg,,,
,,,,,,,,,,,,,,,main,13,26,F,R,IMT,2021-07-09_13h57.09.114,ImageRatingTask_S1,2021.1.4,Win32,59.95203837,,,,,,,,,,,5,3.654,1,1.4,4,2.869,1,1.499,6,1.085,0,0,0,0,1,,,,,,,,,
,,,,,,,,,,,,,,,second,13,26,F,R,IMT,2021-07-09_13h57.09.114,ImageRatingTask_S1,2021.1.4,Win32,59.95203837,,,,,,,,,,,,,,,,,,,,,0,1,1,1,1,,,,,,,,,
,,,,,,,,,,,,,,,third,13,26,F,R,IMT,2021-07-09_13h57.09.114,ImageRatingTask_S1,2021.1.4,Win32,59.95203837,,,,,,,,,,,,,,,,,,,,,0,2,2,2,1,,,,,,,,,
,,,,,,,,,,,,,,,fourth,13,26,F,R,IMT,2021-07-09_13h57.09.114,ImageRatingTask_S1,2021.1.4,Win32,59.95203837,,,,,,,,,,,,,,,,,,,,,0,3,3,3,1,,,,,,,,,
,,,,,,,,,,,,,,,fifth,13,26,F,R,IMT,2021-07-09_13h57.09.114,ImageRatingTask_S1,2021.1.4,Win32,59.95203837,,,,,,,,,,,,,,,,,,,,,0,4,4,4,1,,,,,,,,,
,,,,,,,,,,,,,,,sixth,13,26,F,R,IMT,2021-07-09_13h57.09.114,ImageRatingTask_S1,2021.1.4,Win32,59.95203837,,,,,,,,,,,,,,,,,,,,,0,5,5,5,1,,,,,,,,,
,,,,,,,,,,,,,,,seventh,13,26,F,R,IMT,2021-07-09_13h57.09.114,ImageRatingTask_S1,2021.1.4,Win32,59.95203837,,,,,,,,,,,,,,,,,,,,,0,6,6,6,1,,,,,,,,,
,,,,,,,,,,,,,,,last,13,26,F,R,IMT,2021-07-09_13h57.09.114,ImageRatingTask_S1,2021.1.4,Win32,59.95203837,,,,,,,,,,,,,,,,,,,,,0,7,7,7,1,,,,,,,,,
,,,,,,,,,,,,,,,,13,26,F,R,IMT,2021-07-09_13h57.09.114,ImageRatingTask_S1,2021.1.4,Win32,59.95203837,,,,,,,,,,,,,,,,,,,,,,,,,,0,11,11,2,1,DreamStudyImages_rs1000x750g/Houses/Landscapes_082_v_CROPPED.jpg,,,
,,,,,,,,,,,,,,,main,13,26,F,R,IMT,2021-07-09_13h57.09.114,ImageRatingTask_S1,2021.1.4,Win32,59.95203837,,,,,,,,,,,4,2.221,2,0.936,7,2.635,1,2.523,2,1.553,0,0,0,0,1,,,,,,,,,
,,,,,,,,,,,,,,,second,13,26,F,R,IMT,2021-07-09_13h57.09.114,ImageRatingTask_S1,2021.1.4,Win32,59.95203837,,,,,,,,,,,,,,,,,,,,,0,1,1,1,1,,,,,,,,,
,,,,,,,,,,,,,,,third,13,26,F,R,IMT,2021-07-09_13h57.09.114,ImageRatingTask_S1,2021.1.4,Win32,59.95203837,,,,,,,,,,,,,,,,,,,,,0,2,2,2,1,,,,,,,,,
,,,,,,,,,,,,,,,fourth,13,26,F,R,IMT,2021-07-09_13h57.09.114,ImageRatingTask_S1,2021.1.4,Win32,59.95203837,,,,,,,,,,,,,,,,,,,,,0,3,3,3,1,,,,,,,,,
,,,,,,,,,,,,,,,fifth,13,26,F,R,IMT,2021-07-09_13h57.09.114,ImageRatingTask_S1,2021.1.4,Win32,59.95203837,,,,,,,,,,,,,,,,,,,,,0,4,4,4,1,,,,,,,,,
,,,,,,,,,,,,,,,sixth,13,26,F,R,IMT,2021-07-09_13h57.09.114,ImageRatingTask_S1,2021.1.4,Win32,59.95203837,,,,,,,,,,,,,,,,,,,,,0,5,5,5,1,,,,,,,,,
,,,,,,,,,,,,,,,seventh,13,26,F,R,IMT,2021-07-09_13h57.09.114,ImageRatingTask_S1,2021.1.4,Win32,59.95203837,,,,,,,,,,,,,,,,,,,,,0,6,6,6,1,,,,,,,,,
,,,,,,,,,,,,,,,last,13,26,F,R,IMT,2021-07-09_13h57.09.114,ImageRatingTask_S1,2021.1.4,Win32,59.95203837,,,,,,,,,,,,,,,,,,,,,0,7,7,7,1,,,,,,,,,
,,,,,,,,,,,,,,,,13,26,F,R,IMT,2021-07-09_13h57.09.114,ImageRatingTask_S1,2021.1.4,Win32,59.95203837,,,,,,,,,,,,,,,,,,,,,,,,,,0,12,12,64,1,DreamStudyImages_rs1000x750g/Children/Faces_039_h.jpg,,,
,,,,,,,,,,,,,,,main,13,26,F,R,IMT,2021-07-09_13h57.09.114,ImageRatingTask_S1,2021.1.4,Win32,59.95203837,,,,,,,,,,,6,7.272,2,1.285,8,2.007,3,7.516,3,10.647,0,0,0,0,1,,,,,,,,,
,,,,,,,,,,,,,,,second,13,26,F,R,IMT,2021-07-09_13h57.09.114,ImageRatingTask_S1,2021.1.4,Win32,59.95203837,,,,,,,,,,,,,,,,,,,3,1.272,0,1,1,1,1,,,,,,,,,
,,,,,,,,,,,,,,,third,13,26,F,R,IMT,2021-07-09_13h57.09.114,ImageRatingTask_S1,2021.1.4,Win32,59.95203837,,,,,,,,,,,,,,,,,,,3,0.469,0,2,2,2,1,,,,,,,,,
,,,,,,,,,,,,,,,fourth,13,26,F,R,IMT,2021-07-09_13h57.09.114,ImageRatingTask_S1,2021.1.4,Win32,59.95203837,,,,,,,,,,,,,,,,,,,,,0,3,3,3,1,,,,,,,,,
,,,,,,,,,,,,,,,fifth,13,26,F,R,IMT,2021-07-09_13h57.09.114,ImageRatingTask_S1,2021.1.4,Win32,59.95203837,,,,,,,,,,,,,,,,,,,,,0,4,4,4,1,,,,,,,,,
,,,,,,,,,,,,,,,sixth,13,26,F,R,IMT,2021-07-09_13h57.09.114,ImageRatingTask_S1,2021.1.4,Win32,59.95203837,,,,,,,,,,,,,,,,,,,,,0,5,5,5,1,,,,,,,,,
,,,,,,,,,,,,,,,seventh,13,26,F,R,IMT,2021-07-09_13h57.09.114,ImageRatingTask_S1,2021.1.4,Win32,59.95203837,,,,,,,,,,,,,,,,,,,,,0,6,6,6,1,,,,,,,,,
,,,,,,,,,,,,,,,last,13,26,F,R,IMT,2021-07-09_13h57.09.114,ImageRatingTask_S1,2021.1.4,Win32,59.95203837,,,,,,,,,,,,,,,,,,,,,0,7,7,7,1,,,,,,,,,
,,,,,,,,,,,,,,,,13,26,F,R,IMT,2021-07-09_13h57.09.114,ImageRatingTask_S1,2021.1.4,Win32,59.95203837,,,,,,,,,,,,,,,,,,,,,,,,,,0,13,13,50,1,DreamStudyImages_rs1000x750g/Mammals/Animals_009_v.jpg,,,
,,,,,,,,,,,,,,,main,13,26,F,R,IMT,2021-07-09_13h57.09.114,ImageRatingTask_S1,2021.1.4,Win32,59.95203837,,,,,,,,,,,3,13.206,3,1.497,9,1.989,1,2.94,6,0.956,0,0,0,0,1,,,,,,,,,
,,,,,,,,,,,,,,,second,13,26,F,R,IMT,2021-07-09_13h57.09.114,ImageRatingTask_S1,2021.1.4,Win32,59.95203837,,,,,,,,,,,,,,,,,,,,,0,1,1,1,1,,,,,,,,,
,,,,,,,,,,,,,,,third,13,26,F,R,IMT,2021-07-09_13h57.09.114,ImageRatingTask_S1,2021.1.4,Win32,59.95203837,,,,,,,,,,,,,,,,,,,,,0,2,2,2,1,,,,,,,,,
,,,,,,,,,,,,,,,fourth,13,26,F,R,IMT,2021-07-09_13h57.09.114,ImageRatingTask_S1,2021.1.4,Win32,59.95203837,,,,,,,,,,,,,,,,,,,,,0,3,3,3,1,,,,,,,,,
,,,,,,,,,,,,,,,fifth,13,26,F,R,IMT,2021-07-09_13h57.09.114,ImageRatingTask_S1,2021.1.4,Win32,59.95203837,,,,,,,,,,,,,,,,,,,,,0,4,4,4,1,,,,,,,,,
,,,,,,,,,,,,,,,sixth,13,26,F,R,IMT,2021-07-09_13h57.09.114,ImageRatingTask_S1,2021.1.4,Win32,59.95203837,,,,,,,,,,,,,,,,,,,,,0,5,5,5,1,,,,,,,,,
,,,,,,,,,,,,,,,seventh,13,26,F,R,IMT,2021-07-09_13h57.09.114,ImageRatingTask_S1,2021.1.4,Win32,59.95203837,,,,,,,,,,,,,,,,,,,,,0,6,6,6,1,,,,,,,,,
,,,,,,,,,,,,,,,last,13,26,F,R,IMT,2021-07-09_13h57.09.114,ImageRatingTask_S1,2021.1.4,Win32,59.95203837,,,,,,,,,,,,,,,,,,,,,0,7,7,7,1,,,,,,,,,
,,,,,,,,,,,,,,,,13,26,F,R,IMT,2021-07-09_13h57.09.114,ImageRatingTask_S1,2021.1.4,Win32,59.95203837,,,,,,,,,,,,,,,,,,,,,,,,,,0,14,14,6,1,DreamStudyImages_rs1000x750g/Houses/Landscapes_039_v.jpg,,,
,,,,,,,,,,,,,,,main,13,26,F,R,IMT,2021-07-09_13h57.09.114,ImageRatingTask_S1,2021.1.4,Win32,59.95203837,,,,,,,,,,,6,6.075,4,1.468,7,2.065,1,2.294,7,1.742,0,0,0,0,1,,,,,,,,,
,,,,,,,,,,,,,,,second,13,26,F,R,IMT,2021-07-09_13h57.09.114,ImageRatingTask_S1,2021.1.4,Win32,59.95203837,,,,,,,,,,,,,,,,,,,,,0,1,1,1,1,,,,,,,,,
,,,,,,,,,,,,,,,third,13,26,F,R,IMT,2021-07-09_13h57.09.114,ImageRatingTask_S1,2021.1.4,Win32,59.95203837,,,,,,,,,,,,,,,,,,,,,0,2,2,2,1,,,,,,,,,
,,,,,,,,,,,,,,,fourth,13,26,F,R,IMT,2021-07-09_13h57.09.114,ImageRatingTask_S1,2021.1.4,Win32,59.95203837,,,,,,,,,,,,,,,,,,,,,0,3,3,3,1,,,,,,,,,
,,,,,,,,,,,,,,,fifth,13,26,F,R,IMT,2021-07-09_13h57.09.114,ImageRatingTask_S1,2021.1.4,Win32,59.95203837,,,,,,,,,,,,,,,,,,,,,0,4,4,4,1,,,,,,,,,
,,,,,,,,,,,,,,,sixth,13,26,F,R,IMT,2021-07-09_13h57.09.114,ImageRatingTask_S1,2021.1.4,Win32,59.95203837,,,,,,,,,,,,,,,,,,,,,0,5,5,5,1,,,,,,,,,
,,,,,,,,,,,,,,,seventh,13,26,F,R,IMT,2021-07-09_13h57.09.114,ImageRatingTask_S1,2021.1.4,Win32,59.95203837,,,,,,,,,,,,,,,,,,,,,0,6,6,6,1,,,,,,,,,
,,,,,,,,,,,,,,,last,13,26,F,R,IMT,2021-07-09_13h57.09.114,ImageRatingTask_S1,2021.1.4,Win32,59.95203837,,,,,,,,,,,,,,,,,,,,,0,7,7,7,1,,,,,,,,,
,,,,,,,,,,,,,,,,13,26,F,R,IMT,2021-07-09_13h57.09.114,ImageRatingTask_S1,2021.1.4,Win32,59.95203837,,,,,,,,,,,,,,,,,,,,,,,,,,0,15,15,135,1,DreamStudyImages_rs1000x750g/Vehicles/5450.jpg,,,
,,,,,,,,,,,,,,,main,13,26,F,R,IMT,2021-07-09_13h57.09.114,ImageRatingTask_S1,2021.1.4,Win32,59.95203837,,,,,,,,,,,2,3.305,8,1.215,9,1.975,1,7.733,3,2.155,0,0,0,0,1,,,,,,,,,
,,,,,,,,,,,,,,,second,13,26,F,R,IMT,2021-07-09_13h57.09.114,ImageRatingTask_S1,2021.1.4,Win32,59.95203837,,,,,,,,,,,,,,,,,,,,,0,1,1,1,1,,,,,,,,,
,,,,,,,,,,,,,,,third,13,26,F,R,IMT,2021-07-09_13h57.09.114,ImageRatingTask_S1,2021.1.4,Win32,59.95203837,,,,,,,,,,,,,,,,,,,,,0,2,2,2,1,,,,,,,,,
,,,,,,,,,,,,,,,fourth,13,26,F,R,IMT,2021-07-09_13h57.09.114,ImageRatingTask_S1,2021.1.4,Win32,59.95203837,,,,,,,,,,,,,,,,,,,,,0,3,3,3,1,,,,,,,,,
,,,,,,,,,,,,,,,fifth,13,26,F,R,IMT,2021-07-09_13h57.09.114,ImageRatingTask_S1,2021.1.4,Win32,59.95203837,,,,,,,,,,,,,,,,,,,,,0,4,4,4,1,,,,,,,,,
,,,,,,,,,,,,,,,sixth,13,26,F,R,IMT,2021-07-09_13h57.09.114,ImageRatingTask_S1,2021.1.4,Win32,59.95203837,,,,,,,,,,,,,,,,,,,,,0,5,5,5,1,,,,,,,,,
,,,,,,,,,,,,,,,seventh,13,26,F,R,IMT,2021-07-09_13h57.09.114,ImageRatingTask_S1,2021.1.4,Win32,59.95203837,,,,,,,,,,,,,,,,,,,,,0,6,6,6,1,,,,,,,,,
,,,,,,,,,,,,,,,last,13,26,F,R,IMT,2021-07-09_13h57.09.114,ImageRatingTask_S1,2021.1.4,Win32,59.95203837,,,,,,,,,,,,,,,,,,,,,0,7,7,7,1,,,,,,,,,
,,,,,,,,,,,,,,,,13,26,F,R,IMT,2021-07-09_13h57.09.114,ImageRatingTask_S1,2021.1.4,Win32,59.95203837,,,,,,,,,,,,,,,,,,,,,,,,,,0,16,16,150,1,DreamStudyImages_rs1000x750g/Mammals/Animals_078_h.jpg,,,
,,,,,,,,,,,,,,,main,13,26,F,R,IMT,2021-07-09_13h57.09.114,ImageRatingTask_S1,2021.1.4,Win32,59.95203837,,,,,,,,,,,4,2.891,4,1.77,9,1.543,1,2.401,2,1.139,0,0,0,0,1,,,,,,,,,
,,,,,,,,,,,,,,,second,13,26,F,R,IMT,2021-07-09_13h57.09.114,ImageRatingTask_S1,2021.1.4,Win32,59.95203837,,,,,,,,,,,,,,,,,,,,,0,1,1,1,1,,,,,,,,,
,,,,,,,,,,,,,,,third,13,26,F,R,IMT,2021-07-09_13h57.09.114,ImageRatingTask_S1,2021.1.4,Win32,59.95203837,,,,,,,,,,,,,,,,,,,,,0,2,2,2,1,,,,,,,,,
,,,,,,,,,,,,,,,fourth,13,26,F,R,IMT,2021-07-09_13h57.09.114,ImageRatingTask_S1,2021.1.4,Win32,59.95203837,,,,,,,,,,,,,,,,,,,,,0,3,3,3,1,,,,,,,,,
,,,,,,,,,,,,,,,fifth,13,26,F,R,IMT,2021-07-09_13h57.09.114,ImageRatingTask_S1,2021.1.4,Win32,59.95203837,,,,,,,,,,,,,,,,,,,,,0,4,4,4,1,,,,,,,,,
,,,,,,,,,,,,,,,sixth,13,26,F,R,IMT,2021-07-09_13h57.09.114,ImageRatingTask_S1,2021.1.4,Win32,59.95203837,,,,,,,,,,,,,,,,,,,,,0,5,5,5,1,,,,,,,,,
,,,,,,,,,,,,,,,seventh,13,26,F,R,IMT,2021-07-09_13h57.09.114,ImageRatingTask_S1,2021.1.4,Win32,59.95203837,,,,,,,,,,,,,,,,,,,,,0,6,6,6,1,,,,,,,,,
,,,,,,,,,,,,,,,last,13,26,F,R,IMT,2021-07-09_13h57.09.114,ImageRatingTask_S1,2021.1.4,Win32,59.95203837,,,,,,,,,,,,,,,,,,,,,0,7,7,7,1,,,,,,,,,
,,,,,,,,,,,,,,,,13,26,F,R,IMT,2021-07-09_13h57.09.114,ImageRatingTask_S1,2021.1.4,Win32,59.95203837,,,,,,,,,,,,,,,,,,,,,,,,,,0,17,17,111,1,DreamStudyImages_rs1000x750g/Children/Faces_033_h.jpg,,,
,,,,,,,,,,,,,,,main,13,26,F,R,IMT,2021-07-09_13h57.09.114,ImageRatingTask_S1,2021.1.4,Win32,59.95203837,,,,,,,,,,,5,4.765,7,1.208,9,3.946,1,1.299,8,2.173,0,0,0,0,1,,,,,,,,,
,,,,,,,,,,,,,,,second,13,26,F,R,IMT,2021-07-09_13h57.09.114,ImageRatingTask_S1,2021.1.4,Win32,59.95203837,,,,,,,,,,,,,,,,,,,,,0,1,1,1,1,,,,,,,,,
,,,,,,,,,,,,,,,third,13,26,F,R,IMT,2021-07-09_13h57.09.114,ImageRatingTask_S1,2021.1.4,Win32,59.95203837,,,,,,,,,,,,,,,,,,,,,0,2,2,2,1,,,,,,,,,
,,,,,,,,,,,,,,,fourth,13,26,F,R,IMT,2021-07-09_13h57.09.114,ImageRatingTask_S1,2021.1.4,Win32,59.95203837,,,,,,,,,,,,,,,,,,,,,0,3,3,3,1,,,,,,,,,
,,,,,,,,,,,,,,,fifth,13,26,F,R,IMT,2021-07-09_13h57.09.114,ImageRatingTask_S1,2021.1.4,Win32,59.95203837,,,,,,,,,,,,,,,,,,,,,0,4,4,4,1,,,,,,,,,
,,,,,,,,,,,,,,,sixth,13,26,F,R,IMT,2021-07-09_13h57.09.114,ImageRatingTask_S1,2021.1.4,Win32,59.95203837,,,,,,,,,,,,,,,,,,,,,0,5,5,5,1,,,,,,,,,
,,,,,,,,,,,,,,,seventh,13,26,F,R,IMT,2021-07-09_13h57.09.114,ImageRatingTask_S1,2021.1.4,Win32,59.95203837,,,,,,,,,,,,,,,,,,,,,0,6,6,6,1,,,,,,,,,
,,,,,,,,,,,,,,,last,13,26,F,R,IMT,2021-07-09_13h57.09.114,ImageRatingTask_S1,2021.1.4,Win32,59.95203837,,,,,,,,,,,,,,,,,,,,,0,7,7,7,1,,,,,,,,,
,,,,,,,,,,,,,,,,13,26,F,R,IMT,2021-07-09_13h57.09.114,ImageRatingTask_S1,2021.1.4,Win32,59.95203837,,,,,,,,,,,,,,,,,,,,,,,,,,0,18,18,155,1,DreamStudyImages_rs1000x750g/Water/water_neg_5.jpg,,,
,,,,,,,,,,,,,,,main,13,26,F,R,IMT,2021-07-09_13h57.09.114,ImageRatingTask_S1,2021.1.4,Win32,59.95203837,,,,,,,,,,,5,4.252,1,1.222,9,2.445,1,16.944,6,2.366,0,0,0,0,1,,,,,,,,,
,,,,,,,,,,,,,,,second,13,26,F,R,IMT,2021-07-09_13h57.09.114,ImageRatingTask_S1,2021.1.4,Win32,59.95203837,,,,,,,,,,,,,,,,,,,,,0,1,1,1,1,,,,,,,,,
,,,,,,,,,,,,,,,third,13,26,F,R,IMT,2021-07-09_13h57.09.114,ImageRatingTask_S1,2021.1.4,Win32,59.95203837,,,,,,,,,,,,,,,,,,,,,0,2,2,2,1,,,,,,,,,
,,,,,,,,,,,,,,,fourth,13,26,F,R,IMT,2021-07-09_13h57.09.114,ImageRatingTask_S1,2021.1.4,Win32,59.95203837,,,,,,,,,,,,,,,,,,,,,0,3,3,3,1,,,,,,,,,
,,,,,,,,,,,,,,,fifth,13,26,F,R,IMT,2021-07-09_13h57.09.114,ImageRatingTask_S1,2021.1.4,Win32,59.95203837,,,,,,,,,,,,,,,,,,,,,0,4,4,4,1,,,,,,,,,
,,,,,,,,,,,,,,,sixth,13,26,F,R,IMT,2021-07-09_13h57.09.114,ImageRatingTask_S1,2021.1.4,Win32,59.95203837,,,,,,,,,,,,,,,,,,,,,0,5,5,5,1,,,,,,,,,
,,,,,,,,,,,,,,,seventh,13,26,F,R,IMT,2021-07-09_13h57.09.114,ImageRatingTask_S1,2021.1.4,Win32,59.95203837,,,,,,,,,,,,,,,,,,,,,0,6,6,6,1,,,,,,,,,
,,,,,,,,,,,,,,,last,13,26,F,R,IMT,2021-07-09_13h57.09.114,ImageRatingTask_S1,2021.1.4,Win32,59.95203837,,,,,,,,,,,,,,,,,,,,,0,7,7,7,1,,,,,,,,,
,,,,,,,,,,,,,,,,13,26,F,R,IMT,2021-07-09_13h57.09.114,ImageRatingTask_S1,2021.1.4,Win32,59.95203837,,,,,,,,,,,,,,,,,,,,,,,,,,0,19,19,87,1,DreamStudyImages_rs1000x750g/Houses/Landscapes_016_h.jpg,,,
,,,,,,,,,,,,,,,main,13,26,F,R,IMT,2021-07-09_13h57.09.114,ImageRatingTask_S1,2021.1.4,Win32,59.95203837,,,,,,,,,,,6,4.467,1,1.339,8,2.315,1,2.484,6,1.076,0,0,0,0,1,,,,,,,,,
,,,,,,,,,,,,,,,second,13,26,F,R,IMT,2021-07-09_13h57.09.114,ImageRatingTask_S1,2021.1.4,Win32,59.95203837,,,,,,,,,,,,,,,,,,,,,0,1,1,1,1,,,,,,,,,
,,,,,,,,,,,,,,,third,13,26,F,R,IMT,2021-07-09_13h57.09.114,ImageRatingTask_S1,2021.1.4,Win32,59.95203837,,,,,,,,,,,,,,,,,,,,,0,2,2,2,1,,,,,,,,,
,,,,,,,,,,,,,,,fourth,13,26,F,R,IMT,2021-07-09_13h57.09.114,ImageRatingTask_S1,2021.1.4,Win32,59.95203837,,,,,,,,,,,,,,,,,,,,,0,3,3,3,1,,,,,,,,,
,,,,,,,,,,,,,,,fifth,13,26,F,R,IMT,2021-07-09_13h57.09.114,ImageRatingTask_S1,2021.1.4,Win32,59.95203837,,,,,,,,,,,,,,,,,,,,,0,4,4,4,1,,,,,,,,,
,,,,,,,,,,,,,,,sixth,13,26,F,R,IMT,2021-07-09_13h57.09.114,ImageRatingTask_S1,2021.1.4,Win32,59.95203837,,,,,,,,,,,,,,,,,,,,,0,5,5,5,1,,,,,,,,,
,,,,,,,,,,,,,,,seventh,13,26,F,R,IMT,2021-07-09_13h57.09.114,ImageRatingTask_S1,2021.1.4,Win32,59.95203837,,,,,,,,,,,,,,,,,,,,,0,6,6,6,1,,,,,,,,,
,,,,,,,,,,,,,,,last,13,26,F,R,IMT,2021-07-09_13h57.09.114,ImageRatingTask_S1,2021.1.4,Win32,59.95203837,,,,,,,,,,,,,,,,,,,,,0,7,7,7,1,,,,,,,,,
,,,,,,,,,,,,,,,,13,26,F,R,IMT,2021-07-09_13h57.09.114,ImageRatingTask_S1,2021.1.4,Win32,59.95203837,,,,,,,,,,,,,,,,,,,,,,,,,,0,20,20,13,1,DreamStudyImages_rs1000x750g/Houses/7530.jpg,,,
,,,,,,,,,,,,,,,main,13,26,F,R,IMT,2021-07-09_13h57.09.114,ImageRatingTask_S1,2021.1.4,Win32,59.95203837,,,,,,,,,,,6,2.965,2,1.168,9,1.09,1,1.39,2,0.859,0,0,0,0,1,,,,,,,,,
,,,,,,,,,,,,,,,second,13,26,F,R,IMT,2021-07-09_13h57.09.114,ImageRatingTask_S1,2021.1.4,Win32,59.95203837,,,,,,,,,,,,,,,,,,,,,0,1,1,1,1,,,,,,,,,
,,,,,,,,,,,,,,,third,13,26,F,R,IMT,2021-07-09_13h57.09.114,ImageRatingTask_S1,2021.1.4,Win32,59.95203837,,,,,,,,,,,,,,,,,,,,,0,2,2,2,1,,,,,,,,,
,,,,,,,,,,,,,,,fourth,13,26,F,R,IMT,2021-07-09_13h57.09.114,ImageRatingTask_S1,2021.1.4,Win32,59.95203837,,,,,,,,,,,,,,,,,,,,,0,3,3,3,1,,,,,,,,,
,,,,,,,,,,,,,,,fifth,13,26,F,R,IMT,2021-07-09_13h57.09.114,ImageRatingTask_S1,2021.1.4,Win32,59.95203837,,,,,,,,,,,,,,,,,,,,,0,4,4,4,1,,,,,,,,,
,,,,,,,,,,,,,,,sixth,13,26,F,R,IMT,2021-07-09_13h57.09.114,ImageRatingTask_S1,2021.1.4,Win32,59.95203837,,,,,,,,,,,,,,,,,,,,,0,5,5,5,1,,,,,,,,,
,,,,,,,,,,,,,,,seventh,13,26,F,R,IMT,2021-07-09_13h57.09.114,ImageRatingTask_S1,2021.1.4,Win32,59.95203837,,,,,,,,,,,,,,,,,,,,,0,6,6,6,1,,,,,,,,,
,,,,,,,,,,,,,,,last,13,26,F,R,IMT,2021-07-09_13h57.09.114,ImageRatingTask_S1,2021.1.4,Win32,59.95203837,,,,,,,,,,,,,,,,,,,,,0,7,7,7,1,,,,,,,,,
,,,,,,,,,,,,,,,,13,26,F,R,IMT,2021-07-09_13h57.09.114,ImageRatingTask_S1,2021.1.4,Win32,59.95203837,,,,,,,,,,,,,,,,,,,,,,,,,,0,21,21,122,1,DreamStudyImages_rs1000x750g/Children/Sleepy pose 1.jpg,,,
,,,,,,,,,,,,,,,main,13,26,F,R,IMT,2021-07-09_13h57.09.114,ImageRatingTask_S1,2021.1.4,Win32,59.95203837,,,,,,,,,,,6,2.949,2,0.761,9,1.197,1,2.014,2,0.768,0,0,0,0,1,,,,,,,,,
,,,,,,,,,,,,,,,second,13,26,F,R,IMT,2021-07-09_13h57.09.114,ImageRatingTask_S1,2021.1.4,Win32,59.95203837,,,,,,,,,,,,,,,,,,,,,0,1,1,1,1,,,,,,,,,
,,,,,,,,,,,,,,,third,13,26,F,R,IMT,2021-07-09_13h57.09.114,ImageRatingTask_S1,2021.1.4,Win32,59.95203837,,,,,,,,,,,,,,,,,,,,,0,2,2,2,1,,,,,,,,,
,,,,,,,,,,,,,,,fourth,13,26,F,R,IMT,2021-07-09_13h57.09.114,ImageRatingTask_S1,2021.1.4,Win32,59.95203837,,,,,,,,,,,,,,,,,,,,,0,3,3,3,1,,,,,,,,,
,,,,,,,,,,,,,,,fifth,13,26,F,R,IMT,2021-07-09_13h57.09.114,ImageRatingTask_S1,2021.1.4,Win32,59.95203837,,,,,,,,,,,,,,,,,,,,,0,4,4,4,1,,,,,,,,,
,,,,,,,,,,,,,,,sixth,13,26,F,R,IMT,2021-07-09_13h57.09.114,ImageRatingTask_S1,2021.1.4,Win32,59.95203837,,,,,,,,,,,,,,,,,,,,,0,5,5,5,1,,,,,,,,,
,,,,,,,,,,,,,,,seventh,13,26,F,R,IMT,2021-07-09_13h57.09.114,ImageRatingTask_S1,2021.1.4,Win32,59.95203837,,,,,,,,,,,,,,,,,,,,,0,6,6,6,1,,,,,,,,,
,,,,,,,,,,,,,,,last,13,26,F,R,IMT,2021-07-09_13h57.09.114,ImageRatingTask_S1,2021.1.4,Win32,59.95203837,,,,,,,,,,,,,,,,,,,,,0,7,7,7,1,,,,,,,,,
,,,,,,,,,,,,,,,,13,26,F,R,IMT,2021-07-09_13h57.09.114,ImageRatingTask_S1,2021.1.4,Win32,59.95203837,,,,,,,,,,,,,,,,,,,,,,,,,,0,22,22,109,1,DreamStudyImages_rs1000x750g/Children/Faces_047_h.jpg,,,
,,,,,,,,,,,,,,,main,13,26,F,R,IMT,2021-07-09_13h57.09.114,ImageRatingTask_S1,2021.1.4,Win32,59.95203837,,,,,,,,,,,3,3.272,5,1.131,6,0.003,1,4.513,1,5.081,0,0,0,0,1,,,,,,,,,
,,,,,,,,,,,,,,,second,13,26,F,R,IMT,2021-07-09_13h57.09.114,ImageRatingTask_S1,2021.1.4,Win32,59.95203837,,,,,,,,,,,,,,,,,,,,,0,1,1,1,1,,,,,,,,,
,,,,,,,,,,,,,,,third,13,26,F,R,IMT,2021-07-09_13h57.09.114,ImageRatingTask_S1,2021.1.4,Win32,59.95203837,,,,,,,,,,,,,,,,,,,,,0,2,2,2,1,,,,,,,,,
,,,,,,,,,,,,,,,fourth,13,26,F,R,IMT,2021-07-09_13h57.09.114,ImageRatingTask_S1,2021.1.4,Win32,59.95203837,,,,,,,,,,,,,,,,,,,,,0,3,3,3,1,,,,,,,,,
,,,,,,,,,,,,,,,fifth,13,26,F,R,IMT,2021-07-09_13h57.09.114,ImageRatingTask_S1,2021.1.4,Win32,59.95203837,,,,,,,,,,,,,,,,,,,,,0,4,4,4,1,,,,,,,,,
,,,,,,,,,,,,,,,sixth,13,26,F,R,IMT,2021-07-09_13h57.09.114,ImageRatingTask_S1,2021.1.4,Win32,59.95203837,,,,,,,,,,,,,,,,,,,,,0,5,5,5,1,,,,,,,,,
,,,,,,,,,,,,,,,seventh,13,26,F,R,IMT,2021-07-09_13h57.09.114,ImageRatingTask_S1,2021.1.4,Win32,59.95203837,,,,,,,,,,,,,,,,,,,,,0,6,6,6,1,,,,,,,,,
,,,,,,,,,,,,,,,last,13,26,F,R,IMT,2021-07-09_13h57.09.114,ImageRatingTask_S1,2021.1.4,Win32,59.95203837,,,,,,,,,,,,,,,,,,,,,0,7,7,7,1,,,,,,,,,
,,,,,,,,,,,,,,,,13,26,F,R,IMT,2021-07-09_13h57.09.114,ImageRatingTask_S1,2021.1.4,Win32,59.95203837,,,,,,,,,,,,,,,,,,,,,,,,,,0,23,23,73,1,DreamStudyImages_rs1000x750g/Children/IAPS9040_child8.jpg,,,
,,,,,,,,,,,,,,,main,13,26,F,R,IMT,2021-07-09_13h57.09.114,ImageRatingTask_S1,2021.1.4,Win32,59.95203837,,,,,,,,,,,5,60.757,2,45.711,7,2.468,1,1.694,5,7.398,0,0,0,0,1,,,,,,,,,
,,,,,,,,,,,,,,,second,13,26,F,R,IMT,2021-07-09_13h57.09.114,ImageRatingTask_S1,2021.1.4,Win32,59.95203837,,,,,,,,,,,,,,,,,,,,,0,1,1,1,1,,,,,,,,,
,,,,,,,,,,,,,,,third,13,26,F,R,IMT,2021-07-09_13h57.09.114,ImageRatingTask_S1,2021.1.4,Win32,59.95203837,,,,,,,,,,,,,,,,,,,,,0,2,2,2,1,,,,,,,,,
,,,,,,,,,,,,,,,fourth,13,26,F,R,IMT,2021-07-09_13h57.09.114,ImageRatingTask_S1,2021.1.4,Win32,59.95203837,,,,,,,,,,,,,,,,,,,,,0,3,3,3,1,,,,,,,,,
,,,,,,,,,,,,,,,fifth,13,26,F,R,IMT,2021-07-09_13h57.09.114,ImageRatingTask_S1,2021.1.4,Win32,59.95203837,,,,,,,,,,,,,,,,,,,,,0,4,4,4,1,,,,,,,,,
,,,,,,,,,,,,,,,sixth,13,26,F,R,IMT,2021-07-09_13h57.09.114,ImageRatingTask_S1,2021.1.4,Win32,59.95203837,,,,,,,,,,,,,,,,,,,,,0,5,5,5,1,,,,,,,,,
,,,,,,,,,,,,,,,seventh,13,26,F,R,IMT,2021-07-09_13h57.09.114,ImageRatingTask_S1,2021.1.4,Win32,59.95203837,,,,,,,,,,,,,,,,,,,,,0,6,6,6,1,,,,,,,,,
,,,,,,,,,,,,,,,last,13,26,F,R,IMT,2021-07-09_13h57.09.114,ImageRatingTask_S1,2021.1.4,Win32,59.95203837,,,,,,,,,,,,,,,,,,,,,0,7,7,7,1,,,,,,,,,
,,,,,,,,,,,,,,,,13,26,F,R,IMT,2021-07-09_13h57.09.114,ImageRatingTask_S1,2021.1.4,Win32,59.95203837,,,,,,,,,,,,,,,,,,,,,,,,,,0,24,24,108,1,DreamStudyImages_rs1000x750g/Food/Objects_054_h.jpg,,,
,,,,,,,,,,,,,,,main,13,26,F,R,IMT,2021-07-09_13h57.09.114,ImageRatingTask_S1,2021.1.4,Win32,59.95203837,,,,,,,,,,,6,4.613,1,1.257,9,1.432,1,2.2,8,3.343,0,0,0,0,1,,,,,,,,,
,,,,,,,,,,,,,,,second,13,26,F,R,IMT,2021-07-09_13h57.09.114,ImageRatingTask_S1,2021.1.4,Win32,59.95203837,,,,,,,,,,,,,,,,,,,,,0,1,1,1,1,,,,,,,,,
,,,,,,,,,,,,,,,third,13,26,F,R,IMT,2021-07-09_13h57.09.114,ImageRatingTask_S1,2021.1.4,Win32,59.95203837,,,,,,,,,,,,,,,,,,,,,0,2,2,2,1,,,,,,,,,
,,,,,,,,,,,,,,,fourth,13,26,F,R,IMT,2021-07-09_13h57.09.114,ImageRatingTask_S1,2021.1.4,Win32,59.95203837,,,,,,,,,,,,,,,,,,,,,0,3,3,3,1,,,,,,,,,
,,,,,,,,,,,,,,,fifth,13,26,F,R,IMT,2021-07-09_13h57.09.114,ImageRatingTask_S1,2021.1.4,Win32,59.95203837,,,,,,,,,,,,,,,,,,,,,0,4,4,4,1,,,,,,,,,
,,,,,,,,,,,,,,,sixth,13,26,F,R,IMT,2021-07-09_13h57.09.114,ImageRatingTask_S1,2021.1.4,Win32,59.95203837,,,,,,,,,,,,,,,,,,,,,0,5,5,5,1,,,,,,,,,
,,,,,,,,,,,,,,,seventh,13,26,F,R,IMT,2021-07-09_13h57.09.114,ImageRatingTask_S1,2021.1.4,Win32,59.95203837,,,,,,,,,,,,,,,,,,,,,0,6,6,6,1,,,,,,,,,
,,,,,,,,,,,,,,,last,13,26,F,R,IMT,2021-07-09_13h57.09.114,ImageRatingTask_S1,2021.1.4,Win32,59.95203837,,,,,,,,,,,,,,,,,,,,,0,7,7,7,1,,,,,,,,,
,,,,,,,,,,,,,,,,13,26,F,R,IMT,2021-07-09_13h57.09.114,ImageRatingTask_S1,2021.1.4,Win32,59.95203837,,,,,,,,,,,,,,,,,,,,,,,,,,0,25,25,48,1,DreamStudyImages_rs1000x750g/Water/lakepontoon2.jpg,,,
,,,,,,,,,,,,,,,main,13,26,F,R,IMT,2021-07-09_13h57.09.114,ImageRatingTask_S1,2021.1.4,Win32,59.95203837,,,,,,,,,,,5,3.586,1,1.041,7,1.771,1,2.556,7,2.89,0,0,0,0,1,,,,,,,,,
,,,,,,,,,,,,,,,second,13,26,F,R,IMT,2021-07-09_13h57.09.114,ImageRatingTask_S1,2021.1.4,Win32,59.95203837,,,,,,,,,,,,,,,,,,,,,0,1,1,1,1,,,,,,,,,
,,,,,,,,,,,,,,,third,13,26,F,R,IMT,2021-07-09_13h57.09.114,ImageRatingTask_S1,2021.1.4,Win32,59.95203837,,,,,,,,,,,,,,,,,,,,,0,2,2,2,1,,,,,,,,,
,,,,,,,,,,,,,,,fourth,13,26,F,R,IMT,2021-07-09_13h57.09.114,ImageRatingTask_S1,2021.1.4,Win32,59.95203837,,,,,,,,,,,,,,,,,,,,,0,3,3,3,1,,,,,,,,,
,,,,,,,,,,,,,,,fifth,13,26,F,R,IMT,2021-07-09_13h57.09.114,ImageRatingTask_S1,2021.1.4,Win32,59.95203837,,,,,,,,,,,,,,,,,,,,,0,4,4,4,1,,,,,,,,,
,,,,,,,,,,,,,,,sixth,13,26,F,R,IMT,2021-07-09_13h57.09.114,ImageRatingTask_S1,2021.1.4,Win32,59.95203837,,,,,,,,,,,,,,,,,,,,,0,5,5,5,1,,,,,,,,,
,,,,,,,,,,,,,,,seventh,13,26,F,R,IMT,2021-07-09_13h57.09.114,ImageRatingTask_S1,2021.1.4,Win32,59.95203837,,,,,,,,,,,,,,,,,,,,,0,6,6,6,1,,,,,,,,,
,,,,,,,,,,,,,,,last,13,26,F,R,IMT,2021-07-09_13h57.09.114,ImageRatingTask_S1,2021.1.4,Win32,59.95203837,,,,,,,,,,,,,,,,,,,,,0,7,7,7,1,,,,,,,,,
,,,,,,,,,,,,,,,,13,26,F,R,IMT,2021-07-09_13h57.09.114,ImageRatingTask_S1,2021.1.4,Win32,59.95203837,,,,,,,,,,,,,,,,,,,,,,,,,,0,26,26,72,1,DreamStudyImages_rs1000x750g/Vehicles/locomotive.jpg,,,
,,,,,,,,,,,,,,,main,13,26,F,R,IMT,2021-07-09_13h57.09.114,ImageRatingTask_S1,2021.1.4,Win32,59.95203837,,,,,,,,,,,6,4.711,3,2.362,7,1.419,1,7.87,3,2.382,0,0,0,0,1,,,,,,,,,
,,,,,,,,,,,,,,,second,13,26,F,R,IMT,2021-07-09_13h57.09.114,ImageRatingTask_S1,2021.1.4,Win32,59.95203837,,,,,,,,,,,,,,,,,,,,,0,1,1,1,1,,,,,,,,,
,,,,,,,,,,,,,,,third,13,26,F,R,IMT,2021-07-09_13h57.09.114,ImageRatingTask_S1,2021.1.4,Win32,59.95203837,,,,,,,,,,,,,,,,,,,,,0,2,2,2,1,,,,,,,,,
,,,,,,,,,,,,,,,fourth,13,26,F,R,IMT,2021-07-09_13h57.09.114,ImageRatingTask_S1,2021.1.4,Win32,59.95203837,,,,,,,,,,,,,,,,,,,,,0,3,3,3,1,,,,,,,,,
,,,,,,,,,,,,,,,fifth,13,26,F,R,IMT,2021-07-09_13h57.09.114,ImageRatingTask_S1,2021.1.4,Win32,59.95203837,,,,,,,,,,,,,,,,,,,,,0,4,4,4,1,,,,,,,,,
,,,,,,,,,,,,,,,sixth,13,26,F,R,IMT,2021-07-09_13h57.09.114,ImageRatingTask_S1,2021.1.4,Win32,59.95203837,,,,,,,,,,,,,,,,,,,,,0,5,5,5,1,,,,,,,,,
,,,,,,,,,,,,,,,seventh,13,26,F,R,IMT,2021-07-09_13h57.09.114,ImageRatingTask_S1,2021.1.4,Win32,59.95203837,,,,,,,,,,,,,,,,,,,,,0,6,6,6,1,,,,,,,,,
,,,,,,,,,,,,,,,last,13,26,F,R,IMT,2021-07-09_13h57.09.114,ImageRatingTask_S1,2021.1.4,Win32,59.95203837,,,,,,,,,,,,,,,,,,,,,0,7,7,7,1,,,,,,,,,
,,,,,,,,,,,,,,,,13,26,F,R,IMT,2021-07-09_13h57.09.114,ImageRatingTask_S1,2021.1.4,Win32,59.95203837,,,,,,,,,,,,,,,,,,,,,,,,,,0,27,27,144,1,DreamStudyImages_rs1000x750g/Mammals/IAPS1721_tiger1.jpg,,,
,,,,,,,,,,,,,,,main,13,26,F,R,IMT,2021-07-09_13h57.09.114,ImageRatingTask_S1,2021.1.4,Win32,59.95203837,,,,,,,,,,,5,4.358,1,88.2,7,1.78,1,2.614,7,6.461,0,0,0,0,1,,,,,,,,,
,,,,,,,,,,,,,,,second,13,26,F,R,IMT,2021-07-09_13h57.09.114,ImageRatingTask_S1,2021.1.4,Win32,59.95203837,,,,,,,,,,,,,,,,,,,,,0,1,1,1,1,,,,,,,,,
,,,,,,,,,,,,,,,third,13,26,F,R,IMT,2021-07-09_13h57.09.114,ImageRatingTask_S1,2021.1.4,Win32,59.95203837,,,,,,,,,,,,,,,,,,,,,0,2,2,2,1,,,,,,,,,
,,,,,,,,,,,,,,,fourth,13,26,F,R,IMT,2021-07-09_13h57.09.114,ImageRatingTask_S1,2021.1.4,Win32,59.95203837,,,,,,,,,,,,,,,,,,,,,0,3,3,3,1,,,,,,,,,
,,,,,,,,,,,,,,,fifth,13,26,F,R,IMT,2021-07-09_13h57.09.114,ImageRatingTask_S1,2021.1.4,Win32,59.95203837,,,,,,,,,,,,,,,,,,,,,0,4,4,4,1,,,,,,,,,
,,,,,,,,,,,,,,,sixth,13,26,F,R,IMT,2021-07-09_13h57.09.114,ImageRatingTask_S1,2021.1.4,Win32,59.95203837,,,,,,,,,,,,,,,,,,,,,0,5,5,5,1,,,,,,,,,
,,,,,,,,,,,,,,,seventh,13,26,F,R,IMT,2021-07-09_13h57.09.114,ImageRatingTask_S1,2021.1.4,Win32,59.95203837,,,,,,,,,,,,,,,,,,,,,0,6,6,6,1,,,,,,,,,
,,,,,,,,,,,,,,,last,13,26,F,R,IMT,2021-07-09_13h57.09.114,ImageRatingTask_S1,2021.1.4,Win32,59.95203837,,,,,,,,,,,,,,,,,,,,,0,7,7,7,1,,,,,,,,,
,,,,,,,,,,,,,,,,13,26,F,R,IMT,2021-07-09_13h57.09.114,ImageRatingTask_S1,2021.1.4,Win32,59.95203837,,,,,,,,,,,,,,,,,,,,,,,,,,0,28,28,147,1,DreamStudyImages_rs1000x750g/Vehicles/IAPS7095_carlight.jpg,,,
,,,,,,,,,,,,,,,main,13,26,F,R,IMT,2021-07-09_13h57.09.114,ImageRatingTask_S1,2021.1.4,Win32,59.95203837,,,,,,,,,,,5,5.363,1,2.553,8,2.822,1,1.338,3,1.842,0,0,0,0,1,,,,,,,,,
,,,,,,,,,,,,,,,second,13,26,F,R,IMT,2021-07-09_13h57.09.114,ImageRatingTask_S1,2021.1.4,Win32,59.95203837,,,,,,,,,,,,,,,,,,,,,0,1,1,1,1,,,,,,,,,
,,,,,,,,,,,,,,,third,13,26,F,R,IMT,2021-07-09_13h57.09.114,ImageRatingTask_S1,2021.1.4,Win32,59.95203837,,,,,,,,,,,,,,,,,,,,,0,2,2,2,1,,,,,,,,,
,,,,,,,,,,,,,,,fourth,13,26,F,R,IMT,2021-07-09_13h57.09.114,ImageRatingTask_S1,2021.1.4,Win32,59.95203837,,,,,,,,,,,,,,,,,,,,,0,3,3,3,1,,,,,,,,,
,,,,,,,,,,,,,,,fifth,13,26,F,R,IMT,2021-07-09_13h57.09.114,ImageRatingTask_S1,2021.1.4,Win32,59.95203837,,,,,,,,,,,,,,,,,,,,,0,4,4,4,1,,,,,,,,,
,,,,,,,,,,,,,,,sixth,13,26,F,R,IMT,2021-07-09_13h57.09.114,ImageRatingTask_S1,2021.1.4,Win32,59.95203837,,,,,,,,,,,,,,,,,,,,,0,5,5,5,1,,,,,,,,,
,,,,,,,,,,,,,,,seventh,13,26,F,R,IMT,2021-07-09_13h57.09.114,ImageRatingTask_S1,2021.1.4,Win32,59.95203837,,,,,,,,,,,,,,,,,,,,,0,6,6,6,1,,,,,,,,,
,,,,,,,,,,,,,,,last,13,26,F,R,IMT,2021-07-09_13h57.09.114,ImageRatingTask_S1,2021.1.4,Win32,59.95203837,,,,,,,,,,,,,,,,,,,,,0,7,7,7,1,,,,,,,,,
,,,,,,,,,,,,,,,,13,26,F,R,IMT,2021-07-09_13h57.09.114,ImageRatingTask_S1,2021.1.4,Win32,59.95203837,,,,,,,,,,,,,,,,,,,,,,,,,,0,29,29,112,1,DreamStudyImages_rs1000x750g/Mammals/IAPS1660_gorilla2.jpg,,,
,,,,,,,,,,,,,,,main,13,26,F,R,IMT,2021-07-09_13h57.09.114,ImageRatingTask_S1,2021.1.4,Win32,59.95203837,,,,,,,,,,,5,18.899,1,1.749,9,3.933,1,1.464,5,4.172,0,0,0,0,1,,,,,,,,,
,,,,,,,,,,,,,,,second,13,26,F,R,IMT,2021-07-09_13h57.09.114,ImageRatingTask_S1,2021.1.4,Win32,59.95203837,,,,,,,,,,,,,,,,,,,,,0,1,1,1,1,,,,,,,,,
,,,,,,,,,,,,,,,third,13,26,F,R,IMT,2021-07-09_13h57.09.114,ImageRatingTask_S1,2021.1.4,Win32,59.95203837,,,,,,,,,,,,,,,,,,,,,0,2,2,2,1,,,,,,,,,
,,,,,,,,,,,,,,,fourth,13,26,F,R,IMT,2021-07-09_13h57.09.114,ImageRatingTask_S1,2021.1.4,Win32,59.95203837,,,,,,,,,,,,,,,,,,,,,0,3,3,3,1,,,,,,,,,
,,,,,,,,,,,,,,,fifth,13,26,F,R,IMT,2021-07-09_13h57.09.114,ImageRatingTask_S1,2021.1.4,Win32,59.95203837,,,,,,,,,,,,,,,,,,,,,0,4,4,4,1,,,,,,,,,
,,,,,,,,,,,,,,,sixth,13,26,F,R,IMT,2021-07-09_13h57.09.114,ImageRatingTask_S1,2021.1.4,Win32,59.95203837,,,,,,,,,,,,,,,,,,,,,0,5,5,5,1,,,,,,,,,
,,,,,,,,,,,,,,,seventh,13,26,F,R,IMT,2021-07-09_13h57.09.114,ImageRatingTask_S1,2021.1.4,Win32,59.95203837,,,,,,,,,,,,,,,,,,,,,0,6,6,6,1,,,,,,,,,
,,,,,,,,,,,,,,,last,13,26,F,R,IMT,2021-07-09_13h57.09.114,ImageRatingTask_S1,2021.1.4,Win32,59.95203837,,,,,,,,,,,,,,,,,,,,,0,7,7,7,1,,,,,,,,,
,,,,,,,,,,,,,,,,13,26,F,R,IMT,2021-07-09_13h57.09.114,ImageRatingTask_S1,2021.1.4,Win32,59.95203837,,,,,,,,,,,,,,,,,,,,,,,,,,0,30,30,89,1,DreamStudyImages_rs1000x750g/Food/IAPS7460_fries.jpg,,,
,,,,,,,,,,,,,,,main,13,26,F,R,IMT,2021-07-09_13h57.09.114,ImageRatingTask_S1,2021.1.4,Win32,59.95203837,,,,,,,,,,,4,9.94,1,2.441,9,3.981,1,2.464,7,1.712,0,0,0,0,1,,,,,,,,,
,,,,,,,,,,,,,,,second,13,26,F,R,IMT,2021-07-09_13h57.09.114,ImageRatingTask_S1,2021.1.4,Win32,59.95203837,,,,,,,,,,,,,,,,,,,,,0,1,1,1,1,,,,,,,,,
,,,,,,,,,,,,,,,third,13,26,F,R,IMT,2021-07-09_13h57.09.114,ImageRatingTask_S1,2021.1.4,Win32,59.95203837,,,,,,,,,,,,,,,,,,,,,0,2,2,2,1,,,,,,,,,
,,,,,,,,,,,,,,,fourth,13,26,F,R,IMT,2021-07-09_13h57.09.114,ImageRatingTask_S1,2021.1.4,Win32,59.95203837,,,,,,,,,,,,,,,,,,,,,0,3,3,3,1,,,,,,,,,
,,,,,,,,,,,,,,,fifth,13,26,F,R,IMT,2021-07-09_13h57.09.114,ImageRatingTask_S1,2021.1.4,Win32,59.95203837,,,,,,,,,,,,,,,,,,,,,0,4,4,4,1,,,,,,,,,
,,,,,,,,,,,,,,,sixth,13,26,F,R,IMT,2021-07-09_13h57.09.114,ImageRatingTask_S1,2021.1.4,Win32,59.95203837,,,,,,,,,,,,,,,,,,,,,0,5,5,5,1,,,,,,,,,
,,,,,,,,,,,,,,,seventh,13,26,F,R,IMT,2021-07-09_13h57.09.114,ImageRatingTask_S1,2021.1.4,Win32,59.95203837,,,,,,,,,,,,,,,,,,,,,0,6,6,6,1,,,,,,,,,
,,,,,,,,,,,,,,,last,13,26,F,R,IMT,2021-07-09_13h57.09.114,ImageRatingTask_S1,2021.1.4,Win32,59.95203837,,,,,,,,,,,,,,,,,,,,,0,7,7,7,1,,,,,,,,,
,,,,,,,,,,,,,,,,13,26,F,R,IMT,2021-07-09_13h57.09.114,ImageRatingTask_S1,2021.1.4,Win32,59.95203837,,,,,,,,,,,,,,,,,,,,,,,,,,0,31,31,11,1,DreamStudyImages_rs1000x750g/Vehicles/Objects_298_h.jpg,,,
,,,,,,,,,,,,,,,main,13,26,F,R,IMT,2021-07-09_13h57.09.114,ImageRatingTask_S1,2021.1.4,Win32,59.95203837,,,,,,,,,,,5,5.303,1,21.282,4,1.975,1,2.801,7,2.281,0,0,0,0,1,,,,,,,,,
,,,,,,,,,,,,,,,second,13,26,F,R,IMT,2021-07-09_13h57.09.114,ImageRatingTask_S1,2021.1.4,Win32,59.95203837,,,,,,,,,,,,,,,,,,,,,0,1,1,1,1,,,,,,,,,
,,,,,,,,,,,,,,,third,13,26,F,R,IMT,2021-07-09_13h57.09.114,ImageRatingTask_S1,2021.1.4,Win32,59.95203837,,,,,,,,,,,,,,,,,,,,,0,2,2,2,1,,,,,,,,,
,,,,,,,,,,,,,,,fourth,13,26,F,R,IMT,2021-07-09_13h57.09.114,ImageRatingTask_S1,2021.1.4,Win32,59.95203837,,,,,,,,,,,,,,,,,,,,,0,3,3,3,1,,,,,,,,,
,,,,,,,,,,,,,,,fifth,13,26,F,R,IMT,2021-07-09_13h57.09.114,ImageRatingTask_S1,2021.1.4,Win32,59.95203837,,,,,,,,,,,,,,,,,,,,,0,4,4,4,1,,,,,,,,,
,,,,,,,,,,,,,,,sixth,13,26,F,R,IMT,2021-07-09_13h57.09.114,ImageRatingTask_S1,2021.1.4,Win32,59.95203837,,,,,,,,,,,,,,,,,,,,,0,5,5,5,1,,,,,,,,,
,,,,,,,,,,,,,,,seventh,13,26,F,R,IMT,2021-07-09_13h57.09.114,ImageRatingTask_S1,2021.1.4,Win32,59.95203837,,,,,,,,,,,,,,,,,,,,,0,6,6,6,1,,,,,,,,,
,,,,,,,,,,,,,,,last,13,26,F,R,IMT,2021-07-09_13h57.09.114,ImageRatingTask_S1,2021.1.4,Win32,59.95203837,,,,,,,,,,,,,,,,,,,,,0,7,7,7,1,,,,,,,,,
,,,,,,,,,,,,,,,,13,26,F,R,IMT,2021-07-09_13h57.09.114,ImageRatingTask_S1,2021.1.4,Win32,59.95203837,,,,,,,,,,,,,,,,,,,,,,,,,,0,32,32,67,1,DreamStudyImages_rs1000x750g/Vehicles/Thunderstorm 3.jpg,,,
,,,,,,,,,,,,,,,main,13,26,F,R,IMT,2021-07-09_13h57.09.114,ImageRatingTask_S1,2021.1.4,Win32,59.95203837,,,,,,,,,,,5,4.023,3,4.225,9,2.624,1,1.268,1,3.11,0,0,0,0,1,,,,,,,,,
,,,,,,,,,,,,,,,second,13,26,F,R,IMT,2021-07-09_13h57.09.114,ImageRatingTask_S1,2021.1.4,Win32,59.95203837,,,,,,,,,,,,,,,,,,,,,0,1,1,1,1,,,,,,,,,
,,,,,,,,,,,,,,,third,13,26,F,R,IMT,2021-07-09_13h57.09.114,ImageRatingTask_S1,2021.1.4,Win32,59.95203837,,,,,,,,,,,,,,,,,,,,,0,2,2,2,1,,,,,,,,,
,,,,,,,,,,,,,,,fourth,13,26,F,R,IMT,2021-07-09_13h57.09.114,ImageRatingTask_S1,2021.1.4,Win32,59.95203837,,,,,,,,,,,,,,,,,,,,,0,3,3,3,1,,,,,,,,,
,,,,,,,,,,,,,,,fifth,13,26,F,R,IMT,2021-07-09_13h57.09.114,ImageRatingTask_S1,2021.1.4,Win32,59.95203837,,,,,,,,,,,,,,,,,,,,,0,4,4,4,1,,,,,,,,,
,,,,,,,,,,,,,,,sixth,13,26,F,R,IMT,2021-07-09_13h57.09.114,ImageRatingTask_S1,2021.1.4,Win32,59.95203837,,,,,,,,,,,,,,,,,,,,,0,5,5,5,1,,,,,,,,,
,,,,,,,,,,,,,,,seventh,13,26,F,R,IMT,2021-07-09_13h57.09.114,ImageRatingTask_S1,2021.1.4,Win32,59.95203837,,,,,,,,,,,,,,,,,,,,,0,6,6,6,1,,,,,,,,,
,,,,,,,,,,,,,,,last,13,26,F,R,IMT,2021-07-09_13h57.09.114,ImageRatingTask_S1,2021.1.4,Win32,59.95203837,,,,,,,,,,,,,,,,,,,,,0,7,7,7,1,,,,,,,,,
,,,,,,,,,,,,,,,,13,26,F,R,IMT,2021-07-09_13h57.09.114,ImageRatingTask_S1,2021.1.4,Win32,59.95203837,,,,,,,,,,,,,,,,,,,,,,,,,,0,33,33,54,1,DreamStudyImages_rs1000x750g/Children/Faces_101_h.jpg,,,
,,,,,,,,,,,,,,,main,13,26,F,R,IMT,2021-07-09_13h57.09.114,ImageRatingTask_S1,2021.1.4,Win32,59.95203837,,,,,,,,,,,1,3.979,8,1.52,9,3.199,1,3.681,7,8.234,0,0,0,0,1,,,,,,,,,
,,,,,,,,,,,,,,,second,13,26,F,R,IMT,2021-07-09_13h57.09.114,ImageRatingTask_S1,2021.1.4,Win32,59.95203837,,,,,,,,,,,,,,,,,,,,,0,1,1,1,1,,,,,,,,,
,,,,,,,,,,,,,,,third,13,26,F,R,IMT,2021-07-09_13h57.09.114,ImageRatingTask_S1,2021.1.4,Win32,59.95203837,,,,,,,,,,,,,,,,,,,,,0,2,2,2,1,,,,,,,,,
,,,,,,,,,,,,,,,fourth,13,26,F,R,IMT,2021-07-09_13h57.09.114,ImageRatingTask_S1,2021.1.4,Win32,59.95203837,,,,,,,,,,,,,,,,,,,,,0,3,3,3,1,,,,,,,,,
,,,,,,,,,,,,,,,fifth,13,26,F,R,IMT,2021-07-09_13h57.09.114,ImageRatingTask_S1,2021.1.4,Win32,59.95203837,,,,,,,,,,,,,,,,,,,,,0,4,4,4,1,,,,,,,,,
,,,,,,,,,,,,,,,sixth,13,26,F,R,IMT,2021-07-09_13h57.09.114,ImageRatingTask_S1,2021.1.4,Win32,59.95203837,,,,,,,,,,,,,,,,,,,,,0,5,5,5,1,,,,,,,,,
,,,,,,,,,,,,,,,seventh,13,26,F,R,IMT,2021-07-09_13h57.09.114,ImageRatingTask_S1,2021.1.4,Win32,59.95203837,,,,,,,,,,,,,,,,,,,,,0,6,6,6,1,,,,,,,,,
,,,,,,,,,,,,,,,last,13,26,F,R,IMT,2021-07-09_13h57.09.114,ImageRatingTask_S1,2021.1.4,Win32,59.95203837,,,,,,,,,,,,,,,,,,,,,0,7,7,7,1,,,,,,,,,
,,,,,,,,,,,,,,,,13,26,F,R,IMT,2021-07-09_13h57.09.114,ImageRatingTask_S1,2021.1.4,Win32,59.95203837,,,,,,,,,,,,,,,,,,,,,,,,,,0,34,34,156,1,DreamStudyImages_rs1000x750g/Vehicles/Landscapes_005_h.jpg,,,
,,,,,,,,,,,,,,,main,13,26,F,R,IMT,2021-07-09_13h57.09.114,ImageRatingTask_S1,2021.1.4,Win32,59.95203837,,,,,,,,,,,4,2.57,6,1.301,7,2.703,1,1.701,3,1.145,0,0,0,0,1,,,,,,,,,
,,,,,,,,,,,,,,,second,13,26,F,R,IMT,2021-07-09_13h57.09.114,ImageRatingTask_S1,2021.1.4,Win32,59.95203837,,,,,,,,,,,,,,,,,,,,,0,1,1,1,1,,,,,,,,,
,,,,,,,,,,,,,,,third,13,26,F,R,IMT,2021-07-09_13h57.09.114,ImageRatingTask_S1,2021.1.4,Win32,59.95203837,,,,,,,,,,,,,,,,,,,,,0,2,2,2,1,,,,,,,,,
,,,,,,,,,,,,,,,fourth,13,26,F,R,IMT,2021-07-09_13h57.09.114,ImageRatingTask_S1,2021.1.4,Win32,59.95203837,,,,,,,,,,,,,,,,,,,,,0,3,3,3,1,,,,,,,,,
,,,,,,,,,,,,,,,fifth,13,26,F,R,IMT,2021-07-09_13h57.09.114,ImageRatingTask_S1,2021.1.4,Win32,59.95203837,,,,,,,,,,,,,,,,,,,,,0,4,4,4,1,,,,,,,,,
,,,,,,,,,,,,,,,sixth,13,26,F,R,IMT,2021-07-09_13h57.09.114,ImageRatingTask_S1,2021.1.4,Win32,59.95203837,,,,,,,,,,,,,,,,,,,,,0,5,5,5,1,,,,,,,,,
,,,,,,,,,,,,,,,seventh,13,26,F,R,IMT,2021-07-09_13h57.09.114,ImageRatingTask_S1,2021.1.4,Win32,59.95203837,,,,,,,,,,,,,,,,,,,,,0,6,6,6,1,,,,,,,,,
,,,,,,,,,,,,,,,last,13,26,F,R,IMT,2021-07-09_13h57.09.114,ImageRatingTask_S1,2021.1.4,Win32,59.95203837,,,,,,,,,,,,,,,,,,,,,0,7,7,7,1,,,,,,,,,
,,,,,,,,,,,,,,,,13,26,F,R,IMT,2021-07-09_13h57.09.114,ImageRatingTask_S1,2021.1.4,Win32,59.95203837,,,,,,,,,,,,,,,,,,,,,,,,,,0,35,35,132,1,DreamStudyImages_rs1000x750g/Mammals/Dog 25.jpg,,,
,,,,,,,,,,,,,,,main,13,26,F,R,IMT,2021-07-09_13h57.09.114,ImageRatingTask_S1,2021.1.4,Win32,59.95203837,,,,,,,,,,,2,10.088,8,1.366,7,6.337,1,2.676,2,1.016,0,0,0,0,1,,,,,,,,,
,,,,,,,,,,,,,,,second,13,26,F,R,IMT,2021-07-09_13h57.09.114,ImageRatingTask_S1,2021.1.4,Win32,59.95203837,,,,,,,,,,,,,,,,,,,,,0,1,1,1,1,,,,,,,,,
,,,,,,,,,,,,,,,third,13,26,F,R,IMT,2021-07-09_13h57.09.114,ImageRatingTask_S1,2021.1.4,Win32,59.95203837,,,,,,,,,,,,,,,,,,,,,0,2,2,2,1,,,,,,,,,
,,,,,,,,,,,,,,,fourth,13,26,F,R,IMT,2021-07-09_13h57.09.114,ImageRatingTask_S1,2021.1.4,Win32,59.95203837,,,,,,,,,,,,,,,,,,,,,0,3,3,3,1,,,,,,,,,
,,,,,,,,,,,,,,,fifth,13,26,F,R,IMT,2021-07-09_13h57.09.114,ImageRatingTask_S1,2021.1.4,Win32,59.95203837,,,,,,,,,,,,,,,,,,,,,0,4,4,4,1,,,,,,,,,
,,,,,,,,,,,,,,,sixth,13,26,F,R,IMT,2021-07-09_13h57.09.114,ImageRatingTask_S1,2021.1.4,Win32,59.95203837,,,,,,,,,,,,,,,,,,,,,0,5,5,5,1,,,,,,,,,
,,,,,,,,,,,,,,,seventh,13,26,F,R,IMT,2021-07-09_13h57.09.114,ImageRatingTask_S1,2021.1.4,Win32,59.95203837,,,,,,,,,,,,,,,,,,,,,0,6,6,6,1,,,,,,,,,
,,,,,,,,,,,,,,,last,13,26,F,R,IMT,2021-07-09_13h57.09.114,ImageRatingTask_S1,2021.1.4,Win32,59.95203837,,,,,,,,,,,,,,,,,,,,,0,7,7,7,1,,,,,,,,,
,,,,,,,,,,,,,,,,13,26,F,R,IMT,2021-07-09_13h57.09.114,ImageRatingTask_S1,2021.1.4,Win32,59.95203837,,,,,,,,,,,,,,,,,,,,,,,,,,0,36,36,7,1,DreamStudyImages_rs1000x750g/Children/IAPS3350_baby28.jpg,,,
,,,,,,,,,,,,,,,main,13,26,F,R,IMT,2021-07-09_13h57.09.114,ImageRatingTask_S1,2021.1.4,Win32,59.95203837,,,,,,,,,,,7,4.03,1,3.817,9,2.119,1,1.434,3,29.846,0,0,0,0,1,,,,,,,,,
,,,,,,,,,,,,,,,second,13,26,F,R,IMT,2021-07-09_13h57.09.114,ImageRatingTask_S1,2021.1.4,Win32,59.95203837,,,,,,,,,,,,,,,,,,,,,0,1,1,1,1,,,,,,,,,
,,,,,,,,,,,,,,,third,13,26,F,R,IMT,2021-07-09_13h57.09.114,ImageRatingTask_S1,2021.1.4,Win32,59.95203837,,,,,,,,,,,,,,,,,,,,,0,2,2,2,1,,,,,,,,,
,,,,,,,,,,,,,,,fourth,13,26,F,R,IMT,2021-07-09_13h57.09.114,ImageRatingTask_S1,2021.1.4,Win32,59.95203837,,,,,,,,,,,,,,,,,,,,,0,3,3,3,1,,,,,,,,,
,,,,,,,,,,,,,,,fifth,13,26,F,R,IMT,2021-07-09_13h57.09.114,ImageRatingTask_S1,2021.1.4,Win32,59.95203837,,,,,,,,,,,,,,,,,,,,,0,4,4,4,1,,,,,,,,,
,,,,,,,,,,,,,,,sixth,13,26,F,R,IMT,2021-07-09_13h57.09.114,ImageRatingTask_S1,2021.1.4,Win32,59.95203837,,,,,,,,,,,,,,,,,,,,,0,5,5,5,1,,,,,,,,,
,,,,,,,,,,,,,,,seventh,13,26,F,R,IMT,2021-07-09_13h57.09.114,ImageRatingTask_S1,2021.1.4,Win32,59.95203837,,,,,,,,,,,,,,,,,,,,,0,6,6,6,1,,,,,,,,,
,,,,,,,,,,,,,,,last,13,26,F,R,IMT,2021-07-09_13h57.09.114,ImageRatingTask_S1,2021.1.4,Win32,59.95203837,,,,,,,,,,,,,,,,,,,,,0,7,7,7,1,,,,,,,,,
,,,,,,,,,,,,,,,,13,26,F,R,IMT,2021-07-09_13h57.09.114,ImageRatingTask_S1,2021.1.4,Win32,59.95203837,,,,,,,,,,,,,,,,,,,,,,,,,,0,37,37,19,1,DreamStudyImages_rs1000x750g/Mammals/Chipmunk 3.jpg,,,
,,,,,,,,,,,,,,,main,13,26,F,R,IMT,2021-07-09_13h57.09.114,ImageRatingTask_S1,2021.1.4,Win32,59.95203837,,,,,,,,,,,4,4.545,8,17.349,9,2.11,1,12.833,6,4.491,0,0,0,0,1,,,,,,,,,
,,,,,,,,,,,,,,,second,13,26,F,R,IMT,2021-07-09_13h57.09.114,ImageRatingTask_S1,2021.1.4,Win32,59.95203837,,,,,,,,,,,,,,,,,,,,,0,1,1,1,1,,,,,,,,,
,,,,,,,,,,,,,,,third,13,26,F,R,IMT,2021-07-09_13h57.09.114,ImageRatingTask_S1,2021.1.4,Win32,59.95203837,,,,,,,,,,,,,,,,,,,,,0,2,2,2,1,,,,,,,,,
,,,,,,,,,,,,,,,fourth,13,26,F,R,IMT,2021-07-09_13h57.09.114,ImageRatingTask_S1,2021.1.4,Win32,59.95203837,,,,,,,,,,,,,,,,,,,,,0,3,3,3,1,,,,,,,,,
,,,,,,,,,,,,,,,fifth,13,26,F,R,IMT,2021-07-09_13h57.09.114,ImageRatingTask_S1,2021.1.4,Win32,59.95203837,,,,,,,,,,,,,,,,,,,,,0,4,4,4,1,,,,,,,,,
,,,,,,,,,,,,,,,sixth,13,26,F,R,IMT,2021-07-09_13h57.09.114,ImageRatingTask_S1,2021.1.4,Win32,59.95203837,,,,,,,,,,,,,,,,,,,,,0,5,5,5,1,,,,,,,,,
,,,,,,,,,,,,,,,seventh,13,26,F,R,IMT,2021-07-09_13h57.09.114,ImageRatingTask_S1,2021.1.4,Win32,59.95203837,,,,,,,,,,,,,,,,,,,,,0,6,6,6,1,,,,,,,,,
,,,,,,,,,,,,,,,last,13,26,F,R,IMT,2021-07-09_13h57.09.114,ImageRatingTask_S1,2021.1.4,Win32,59.95203837,,,,,,,,,,,,,,,,,,,,,0,7,7,7,1,,,,,,,,,
,,,,,,,,,,,,,,,,13,26,F,R,IMT,2021-07-09_13h57.09.114,ImageRatingTask_S1,2021.1.4,Win32,59.95203837,,,,,,,,,,,,,,,,,,,,,,,,,,0,38,38,28,1,DreamStudyImages_rs1000x750g/Houses/NDPS48_houses4.jpg,,,
,,,,,,,,,,,,,,,main,13,26,F,R,IMT,2021-07-09_13h57.09.114,ImageRatingTask_S1,2021.1.4,Win32,59.95203837,,,,,,,,,,,5,3.088,1,0.721,9,1.571,1,1.58,8,1.008,0,0,0,0,1,,,,,,,,,
,,,,,,,,,,,,,,,second,13,26,F,R,IMT,2021-07-09_13h57.09.114,ImageRatingTask_S1,2021.1.4,Win32,59.95203837,,,,,,,,,,,,,,,,,,,,,0,1,1,1,1,,,,,,,,,
,,,,,,,,,,,,,,,third,13,26,F,R,IMT,2021-07-09_13h57.09.114,ImageRatingTask_S1,2021.1.4,Win32,59.95203837,,,,,,,,,,,,,,,,,,,,,0,2,2,2,1,,,,,,,,,
,,,,,,,,,,,,,,,fourth,13,26,F,R,IMT,2021-07-09_13h57.09.114,ImageRatingTask_S1,2021.1.4,Win32,59.95203837,,,,,,,,,,,,,,,,,,,,,0,3,3,3,1,,,,,,,,,
,,,,,,,,,,,,,,,fifth,13,26,F,R,IMT,2021-07-09_13h57.09.114,ImageRatingTask_S1,2021.1.4,Win32,59.95203837,,,,,,,,,,,,,,,,,,,,,0,4,4,4,1,,,,,,,,,
,,,,,,,,,,,,,,,sixth,13,26,F,R,IMT,2021-07-09_13h57.09.114,ImageRatingTask_S1,2021.1.4,Win32,59.95203837,,,,,,,,,,,,,,,,,,,,,0,5,5,5,1,,,,,,,,,
,,,,,,,,,,,,,,,seventh,13,26,F,R,IMT,2021-07-09_13h57.09.114,ImageRatingTask_S1,2021.1.4,Win32,59.95203837,,,,,,,,,,,,,,,,,,,,,0,6,6,6,1,,,,,,,,,
,,,,,,,,,,,,,,,last,13,26,F,R,IMT,2021-07-09_13h57.09.114,ImageRatingTask_S1,2021.1.4,Win32,59.95203837,,,,,,,,,,,,,,,,,,,,,0,7,7,7,1,,,,,,,,,
,,,,,,,,,,,,,,,,13,26,F,R,IMT,2021-07-09_13h57.09.114,ImageRatingTask_S1,2021.1.4,Win32,59.95203837,,,,,,,,,,,,,,,,,,,,,,,,,,0,39,39,31,1,DreamStudyImages_rs1000x750g/Water/Bottle 1.jpg,,,
,,,,,,,,,,,,,,,main,13,26,F,R,IMT,2021-07-09_13h57.09.114,ImageRatingTask_S1,2021.1.4,Win32,59.95203837,,,,,,,,,,,4,3.404,5,1.368,8,1.716,1,1.061,3,0.985,0,0,0,0,1,,,,,,,,,
,,,,,,,,,,,,,,,second,13,26,F,R,IMT,2021-07-09_13h57.09.114,ImageRatingTask_S1,2021.1.4,Win32,59.95203837,,,,,,,,,,,,,,,,,,,,,0,1,1,1,1,,,,,,,,,
,,,,,,,,,,,,,,,third,13,26,F,R,IMT,2021-07-09_13h57.09.114,ImageRatingTask_S1,2021.1.4,Win32,59.95203837,,,,,,,,,,,,,,,,,,,,,0,2,2,2,1,,,,,,,,,
,,,,,,,,,,,,,,,fourth,13,26,F,R,IMT,2021-07-09_13h57.09.114,ImageRatingTask_S1,2021.1.4,Win32,59.95203837,,,,,,,,,,,,,,,,,,,,,0,3,3,3,1,,,,,,,,,
,,,,,,,,,,,,,,,fifth,13,26,F,R,IMT,2021-07-09_13h57.09.114,ImageRatingTask_S1,2021.1.4,Win32,59.95203837,,,,,,,,,,,,,,,,,,,,,0,4,4,4,1,,,,,,,,,
,,,,,,,,,,,,,,,sixth,13,26,F,R,IMT,2021-07-09_13h57.09.114,ImageRatingTask_S1,2021.1.4,Win32,59.95203837,,,,,,,,,,,,,,,,,,,,,0,5,5,5,1,,,,,,,,,
,,,,,,,,,,,,,,,seventh,13,26,F,R,IMT,2021-07-09_13h57.09.114,ImageRatingTask_S1,2021.1.4,Win32,59.95203837,,,,,,,,,,,,,,,,,,,,,0,6,6,6,1,,,,,,,,,
,,,,,,,,,,,,,,,last,13,26,F,R,IMT,2021-07-09_13h57.09.114,ImageRatingTask_S1,2021.1.4,Win32,59.95203837,,,,,,,,,,,,,,,,,,,,,0,7,7,7,1,,,,,,,,,
,,,,,,,,,,,,,,,,13,26,F,R,IMT,2021-07-09_13h57.09.114,ImageRatingTask_S1,2021.1.4,Win32,59.95203837,,,,,,,,,,,,,,,,,,,,,,,,,,0,40,40,142,1,DreamStudyImages_rs1000x750g/Mammals/IAPS1726_tiger2.jpg,,,
,,,,,,,,,,,,,,,main,13,26,F,R,IMT,2021-07-09_13h57.09.114,ImageRatingTask_S1,2021.1.4,Win32,59.95203837,,,,,,,,,,,6,6.637,4,1.27,7,1.717,1,0.999,2,0.604,0,0,0,0,1,,,,,,,,,
,,,,,,,,,,,,,,,second,13,26,F,R,IMT,2021-07-09_13h57.09.114,ImageRatingTask_S1,2021.1.4,Win32,59.95203837,,,,,,,,,,,,,,,,,,,,,0,1,1,1,1,,,,,,,,,
,,,,,,,,,,,,,,,third,13,26,F,R,IMT,2021-07-09_13h57.09.114,ImageRatingTask_S1,2021.1.4,Win32,59.95203837,,,,,,,,,,,,,,,,,,,,,0,2,2,2,1,,,,,,,,,
,,,,,,,,,,,,,,,fourth,13,26,F,R,IMT,2021-07-09_13h57.09.114,ImageRatingTask_S1,2021.1.4,Win32,59.95203837,,,,,,,,,,,,,,,,,,,,,0,3,3,3,1,,,,,,,,,
,,,,,,,,,,,,,,,fifth,13,26,F,R,IMT,2021-07-09_13h57.09.114,ImageRatingTask_S1,2021.1.4,Win32,59.95203837,,,,,,,,,,,,,,,,,,,,,0,4,4,4,1,,,,,,,,,
,,,,,,,,,,,,,,,sixth,13,26,F,R,IMT,2021-07-09_13h57.09.114,ImageRatingTask_S1,2021.1.4,Win32,59.95203837,,,,,,,,,,,,,,,,,,,,,0,5,5,5,1,,,,,,,,,
,,,,,,,,,,,,,,,seventh,13,26,F,R,IMT,2021-07-09_13h57.09.114,ImageRatingTask_S1,2021.1.4,Win32,59.95203837,,,,,,,,,,,,,,,,,,,,,0,6,6,6,1,,,,,,,,,
,,,,,,,,,,,,,,,last,13,26,F,R,IMT,2021-07-09_13h57.09.114,ImageRatingTask_S1,2021.1.4,Win32,59.95203837,,,,,,,,,,,,,,,,,,,,,0,7,7,7,1,,,,,,,,,
,,,,,,,,,,,,,,,,13,26,F,R,IMT,2021-07-09_13h57.09.114,ImageRatingTask_S1,2021.1.4,Win32,59.95203837,,,,,,,,,,,,,,,,,,,,,,,,,,0,41,41,46,1,DreamStudyImages_rs1000x750g/Children/IAPS2058_baby6.jpg,,,
,,,,,,,,,,,,,,,main,13,26,F,R,IMT,2021-07-09_13h57.09.114,ImageRatingTask_S1,2021.1.4,Win32,59.95203837,,,,,,,,,,,6,2.153,5,1.205,9,2.166,1,3.133,2,0.57,0,0,0,0,1,,,,,,,,,
,,,,,,,,,,,,,,,second,13,26,F,R,IMT,2021-07-09_13h57.09.114,ImageRatingTask_S1,2021.1.4,Win32,59.95203837,,,,,,,,,,,,,,,,,,,,,0,1,1,1,1,,,,,,,,,
,,,,,,,,,,,,,,,third,13,26,F,R,IMT,2021-07-09_13h57.09.114,ImageRatingTask_S1,2021.1.4,Win32,59.95203837,,,,,,,,,,,,,,,,,,,,,0,2,2,2,1,,,,,,,,,
,,,,,,,,,,,,,,,fourth,13,26,F,R,IMT,2021-07-09_13h57.09.114,ImageRatingTask_S1,2021.1.4,Win32,59.95203837,,,,,,,,,,,,,,,,,,,,,0,3,3,3,1,,,,,,,,,
,,,,,,,,,,,,,,,fifth,13,26,F,R,IMT,2021-07-09_13h57.09.114,ImageRatingTask_S1,2021.1.4,Win32,59.95203837,,,,,,,,,,,,,,,,,,,,,0,4,4,4,1,,,,,,,,,
,,,,,,,,,,,,,,,sixth,13,26,F,R,IMT,2021-07-09_13h57.09.114,ImageRatingTask_S1,2021.1.4,Win32,59.95203837,,,,,,,,,,,,,,,,,,,,,0,5,5,5,1,,,,,,,,,
,,,,,,,,,,,,,,,seventh,13,26,F,R,IMT,2021-07-09_13h57.09.114,ImageRatingTask_S1,2021.1.4,Win32,59.95203837,,,,,,,,,,,,,,,,,,,,,0,6,6,6,1,,,,,,,,,
,,,,,,,,,,,,,,,last,13,26,F,R,IMT,2021-07-09_13h57.09.114,ImageRatingTask_S1,2021.1.4,Win32,59.95203837,,,,,,,,,,,,,,,,,,,,,0,7,7,7,1,,,,,,,,,
,,,,,,,,,,,,,,,,13,26,F,R,IMT,2021-07-09_13h57.09.114,ImageRatingTask_S1,2021.1.4,Win32,59.95203837,,,,,,,,,,,,,,,,,,,,,,,,,,0,42,42,100,1,DreamStudyImages_rs1000x750g/Children/Siblings 1.jpg,,,
,,,,,,,,,,,,,,,main,13,26,F,R,IMT,2021-07-09_13h57.09.114,ImageRatingTask_S1,2021.1.4,Win32,59.95203837,,,,,,,,,,,3,3.356,6,1.234,8,3.082,1,0.931,2,0.673,0,0,0,0,1,,,,,,,,,
,,,,,,,,,,,,,,,second,13,26,F,R,IMT,2021-07-09_13h57.09.114,ImageRatingTask_S1,2021.1.4,Win32,59.95203837,,,,,,,,,,,,,,,,,,,,,0,1,1,1,1,,,,,,,,,
,,,,,,,,,,,,,,,third,13,26,F,R,IMT,2021-07-09_13h57.09.114,ImageRatingTask_S1,2021.1.4,Win32,59.95203837,,,,,,,,,,,,,,,,,,,,,0,2,2,2,1,,,,,,,,,
,,,,,,,,,,,,,,,fourth,13,26,F,R,IMT,2021-07-09_13h57.09.114,ImageRatingTask_S1,2021.1.4,Win32,59.95203837,,,,,,,,,,,,,,,,,,,,,0,3,3,3,1,,,,,,,,,
,,,,,,,,,,,,,,,fifth,13,26,F,R,IMT,2021-07-09_13h57.09.114,ImageRatingTask_S1,2021.1.4,Win32,59.95203837,,,,,,,,,,,,,,,,,,,,,0,4,4,4,1,,,,,,,,,
,,,,,,,,,,,,,,,sixth,13,26,F,R,IMT,2021-07-09_13h57.09.114,ImageRatingTask_S1,2021.1.4,Win32,59.95203837,,,,,,,,,,,,,,,,,,,,,0,5,5,5,1,,,,,,,,,
,,,,,,,,,,,,,,,seventh,13,26,F,R,IMT,2021-07-09_13h57.09.114,ImageRatingTask_S1,2021.1.4,Win32,59.95203837,,,,,,,,,,,,,,,,,,,,,0,6,6,6,1,,,,,,,,,
,,,,,,,,,,,,,,,last,13,26,F,R,IMT,2021-07-09_13h57.09.114,ImageRatingTask_S1,2021.1.4,Win32,59.95203837,,,,,,,,,,,,,,,,,,,,,0,7,7,7,1,,,,,,,,,
,,,,,,,,,,,,,,,,13,26,F,R,IMT,2021-07-09_13h57.09.114,ImageRatingTask_S1,2021.1.4,Win32,59.95203837,,,,,,,,,,,,,,,,,,,,,,,,,,0,43,43,154,1,DreamStudyImages_rs1000x750g/Children/IAPS2278_children6.jpg,,,
,,,,,,,,,,,,,,,main,13,26,F,R,IMT,2021-07-09_13h57.09.114,ImageRatingTask_S1,2021.1.4,Win32,59.95203837,,,,,,,,,,,5,2.887,1,0.907,5,3.089,1,1.117,6,5.313,0,0,0,0,1,,,,,,,,,
,,,,,,,,,,,,,,,second,13,26,F,R,IMT,2021-07-09_13h57.09.114,ImageRatingTask_S1,2021.1.4,Win32,59.95203837,,,,,,,,,,,,,,,,,,,,,0,1,1,1,1,,,,,,,,,
,,,,,,,,,,,,,,,third,13,26,F,R,IMT,2021-07-09_13h57.09.114,ImageRatingTask_S1,2021.1.4,Win32,59.95203837,,,,,,,,,,,,,,,,,,,,,0,2,2,2,1,,,,,,,,,
,,,,,,,,,,,,,,,fourth,13,26,F,R,IMT,2021-07-09_13h57.09.114,ImageRatingTask_S1,2021.1.4,Win32,59.95203837,,,,,,,,,,,,,,,,,,,,,0,3,3,3,1,,,,,,,,,
,,,,,,,,,,,,,,,fifth,13,26,F,R,IMT,2021-07-09_13h57.09.114,ImageRatingTask_S1,2021.1.4,Win32,59.95203837,,,,,,,,,,,,,,,,,,,,,0,4,4,4,1,,,,,,,,,
,,,,,,,,,,,,,,,sixth,13,26,F,R,IMT,2021-07-09_13h57.09.114,ImageRatingTask_S1,2021.1.4,Win32,59.95203837,,,,,,,,,,,,,,,,,,,,,0,5,5,5,1,,,,,,,,,
,,,,,,,,,,,,,,,seventh,13,26,F,R,IMT,2021-07-09_13h57.09.114,ImageRatingTask_S1,2021.1.4,Win32,59.95203837,,,,,,,,,,,,,,,,,,,,,0,6,6,6,1,,,,,,,,,
,,,,,,,,,,,,,,,last,13,26,F,R,IMT,2021-07-09_13h57.09.114,ImageRatingTask_S1,2021.1.4,Win32,59.95203837,,,,,,,,,,,,,,,,,,,,,0,7,7,7,1,,,,,,,,,
,,,,,,,,,,,,,,,,13,26,F,R,IMT,2021-07-09_13h57.09.114,ImageRatingTask_S1,2021.1.4,Win32,59.95203837,,,,,,,,,,,,,,,,,,,,,,,,,,0,44,44,88,1,DreamStudyImages_rs1000x750g/Houses/NDPS150_houses11.jpg,,,
,,,,,,,,,,,,,,,main,13,26,F,R,IMT,2021-07-09_13h57.09.114,ImageRatingTask_S1,2021.1.4,Win32,59.95203837,,,,,,,,,,,7,3.853,2,2.03,9,1.521,1,1.098,5,1.225,0,0,0,0,1,,,,,,,,,
,,,,,,,,,,,,,,,second,13,26,F,R,IMT,2021-07-09_13h57.09.114,ImageRatingTask_S1,2021.1.4,Win32,59.95203837,,,,,,,,,,,,,,,,,,,,,0,1,1,1,1,,,,,,,,,
,,,,,,,,,,,,,,,third,13,26,F,R,IMT,2021-07-09_13h57.09.114,ImageRatingTask_S1,2021.1.4,Win32,59.95203837,,,,,,,,,,,,,,,,,,,,,0,2,2,2,1,,,,,,,,,
,,,,,,,,,,,,,,,fourth,13,26,F,R,IMT,2021-07-09_13h57.09.114,ImageRatingTask_S1,2021.1.4,Win32,59.95203837,,,,,,,,,,,,,,,,,,,,,0,3,3,3,1,,,,,,,,,
,,,,,,,,,,,,,,,fifth,13,26,F,R,IMT,2021-07-09_13h57.09.114,ImageRatingTask_S1,2021.1.4,Win32,59.95203837,,,,,,,,,,,,,,,,,,,,,0,4,4,4,1,,,,,,,,,
,,,,,,,,,,,,,,,sixth,13,26,F,R,IMT,2021-07-09_13h57.09.114,ImageRatingTask_S1,2021.1.4,Win32,59.95203837,,,,,,,,,,,,,,,,,,,,,0,5,5,5,1,,,,,,,,,
,,,,,,,,,,,,,,,seventh,13,26,F,R,IMT,2021-07-09_13h57.09.114,ImageRatingTask_S1,2021.1.4,Win32,59.95203837,,,,,,,,,,,,,,,,,,,,,0,6,6,6,1,,,,,,,,,
,,,,,,,,,,,,,,,last,13,26,F,R,IMT,2021-07-09_13h57.09.114,ImageRatingTask_S1,2021.1.4,Win32,59.95203837,,,,,,,,,,,,,,,,,,,,,0,7,7,7,1,,,,,,,,,
,,,,,,,,,,,,,,,,13,26,F,R,IMT,2021-07-09_13h57.09.114,ImageRatingTask_S1,2021.1.4,Win32,59.95203837,,,,,,,,,,,,,,,,,,,,,,,,,,0,45,45,119,1,DreamStudyImages_rs1000x750g/Food/Objects_078_h.jpg,,,
,,,,,,,,,,,,,,,main,13,26,F,R,IMT,2021-07-09_13h57.09.114,ImageRatingTask_S1,2021.1.4,Win32,59.95203837,,,,,,,,,,,5,2.407,1,0.597,9,2.164,1,0.83,5,0.974,0,0,0,0,1,,,,,,,,,
,,,,,,,,,,,,,,,second,13,26,F,R,IMT,2021-07-09_13h57.09.114,ImageRatingTask_S1,2021.1.4,Win32,59.95203837,,,,,,,,,,,,,,,,,,,,,0,1,1,1,1,,,,,,,,,
,,,,,,,,,,,,,,,third,13,26,F,R,IMT,2021-07-09_13h57.09.114,ImageRatingTask_S1,2021.1.4,Win32,59.95203837,,,,,,,,,,,,,,,,,,,,,0,2,2,2,1,,,,,,,,,
,,,,,,,,,,,,,,,fourth,13,26,F,R,IMT,2021-07-09_13h57.09.114,ImageRatingTask_S1,2021.1.4,Win32,59.95203837,,,,,,,,,,,,,,,,,,,,,0,3,3,3,1,,,,,,,,,
,,,,,,,,,,,,,,,fifth,13,26,F,R,IMT,2021-07-09_13h57.09.114,ImageRatingTask_S1,2021.1.4,Win32,59.95203837,,,,,,,,,,,,,,,,,,,,,0,4,4,4,1,,,,,,,,,
,,,,,,,,,,,,,,,sixth,13,26,F,R,IMT,2021-07-09_13h57.09.114,ImageRatingTask_S1,2021.1.4,Win32,59.95203837,,,,,,,,,,,,,,,,,,,,,0,5,5,5,1,,,,,,,,,
,,,,,,,,,,,,,,,seventh,13,26,F,R,IMT,2021-07-09_13h57.09.114,ImageRatingTask_S1,2021.1.4,Win32,59.95203837,,,,,,,,,,,,,,,,,,,,,0,6,6,6,1,,,,,,,,,
,,,,,,,,,,,,,,,last,13,26,F,R,IMT,2021-07-09_13h57.09.114,ImageRatingTask_S1,2021.1.4,Win32,59.95203837,,,,,,,,,,,,,,,,,,,,,0,7,7,7,1,,,,,,,,,
,,,,,,,,,,,,,,,,13,26,F,R,IMT,2021-07-09_13h57.09.114,ImageRatingTask_S1,2021.1.4,Win32,59.95203837,,,,,,,,,,,,,,,,,,,,,,,,,,0,46,46,118,1,DreamStudyImages_rs1000x750g/Food/IAPS7476_soup.jpg,,,
,,,,,,,,,,,,,,,main,13,26,F,R,IMT,2021-07-09_13h57.09.114,ImageRatingTask_S1,2021.1.4,Win32,59.95203837,,,,,,,,,,,4,3.643,4,1.199,7,2.986,1,1.082,7,1.681,0,0,0,0,1,,,,,,,,,
,,,,,,,,,,,,,,,second,13,26,F,R,IMT,2021-07-09_13h57.09.114,ImageRatingTask_S1,2021.1.4,Win32,59.95203837,,,,,,,,,,,,,,,,,,,,,0,1,1,1,1,,,,,,,,,
,,,,,,,,,,,,,,,third,13,26,F,R,IMT,2021-07-09_13h57.09.114,ImageRatingTask_S1,2021.1.4,Win32,59.95203837,,,,,,,,,,,,,,,,,,,,,0,2,2,2,1,,,,,,,,,
,,,,,,,,,,,,,,,fourth,13,26,F,R,IMT,2021-07-09_13h57.09.114,ImageRatingTask_S1,2021.1.4,Win32,59.95203837,,,,,,,,,,,,,,,,,,,,,0,3,3,3,1,,,,,,,,,
,,,,,,,,,,,,,,,fifth,13,26,F,R,IMT,2021-07-09_13h57.09.114,ImageRatingTask_S1,2021.1.4,Win32,59.95203837,,,,,,,,,,,,,,,,,,,,,0,4,4,4,1,,,,,,,,,
,,,,,,,,,,,,,,,sixth,13,26,F,R,IMT,2021-07-09_13h57.09.114,ImageRatingTask_S1,2021.1.4,Win32,59.95203837,,,,,,,,,,,,,,,,,,,,,0,5,5,5,1,,,,,,,,,
,,,,,,,,,,,,,,,seventh,13,26,F,R,IMT,2021-07-09_13h57.09.114,ImageRatingTask_S1,2021.1.4,Win32,59.95203837,,,,,,,,,,,,,,,,,,,,,0,6,6,6,1,,,,,,,,,
,,,,,,,,,,,,,,,last,13,26,F,R,IMT,2021-07-09_13h57.09.114,ImageRatingTask_S1,2021.1.4,Win32,59.95203837,,,,,,,,,,,,,,,,,,,,,0,7,7,7,1,,,,,,,,,
,,,,,,,,,,,,,,,,13,26,F,R,IMT,2021-07-09_13h57.09.114,ImageRatingTask_S1,2021.1.4,Win32,59.95203837,,,,,,,,,,,,,,,,,,,,,,,,,,0,47,47,24,1,DreamStudyImages_rs1000x750g/Vehicles/Fire 7.jpg,,,
,,,,,,,,,,,,,,,main,13,26,F,R,IMT,2021-07-09_13h57.09.114,ImageRatingTask_S1,2021.1.4,Win32,59.95203837,,,,,,,,,,,5,3.306,1,0.515,9,2.007,1,3.186,7,0.775,0,0,0,0,1,,,,,,,,,
,,,,,,,,,,,,,,,second,13,26,F,R,IMT,2021-07-09_13h57.09.114,ImageRatingTask_S1,2021.1.4,Win32,59.95203837,,,,,,,,,,,,,,,,,,,,,0,1,1,1,1,,,,,,,,,
,,,,,,,,,,,,,,,third,13,26,F,R,IMT,2021-07-09_13h57.09.114,ImageRatingTask_S1,2021.1.4,Win32,59.95203837,,,,,,,,,,,,,,,,,,,,,0,2,2,2,1,,,,,,,,,
,,,,,,,,,,,,,,,fourth,13,26,F,R,IMT,2021-07-09_13h57.09.114,ImageRatingTask_S1,2021.1.4,Win32,59.95203837,,,,,,,,,,,,,,,,,,,,,0,3,3,3,1,,,,,,,,,
,,,,,,,,,,,,,,,fifth,13,26,F,R,IMT,2021-07-09_13h57.09.114,ImageRatingTask_S1,2021.1.4,Win32,59.95203837,,,,,,,,,,,,,,,,,,,,,0,4,4,4,1,,,,,,,,,
,,,,,,,,,,,,,,,sixth,13,26,F,R,IMT,2021-07-09_13h57.09.114,ImageRatingTask_S1,2021.1.4,Win32,59.95203837,,,,,,,,,,,,,,,,,,,,,0,5,5,5,1,,,,,,,,,
,,,,,,,,,,,,,,,seventh,13,26,F,R,IMT,2021-07-09_13h57.09.114,ImageRatingTask_S1,2021.1.4,Win32,59.95203837,,,,,,,,,,,,,,,,,,,,,0,6,6,6,1,,,,,,,,,
,,,,,,,,,,,,,,,last,13,26,F,R,IMT,2021-07-09_13h57.09.114,ImageRatingTask_S1,2021.1.4,Win32,59.95203837,,,,,,,,,,,,,,,,,,,,,0,7,7,7,1,,,,,,,,,
,,,,,,,,,,,,,,,,13,26,F,R,IMT,2021-07-09_13h57.09.114,ImageRatingTask_S1,2021.1.4,Win32,59.95203837,,,,,,,,,,,,,,,,,,,,,,,,,,0,48,48,91,1,DreamStudyImages_rs1000x750g/Vehicles/paintedvan.jpg,,,
,,,,,,,,,,,,,,,main,13,26,F,R,IMT,2021-07-09_13h57.09.114,ImageRatingTask_S1,2021.1.4,Win32,59.95203837,,,,,,,,,,,3,2.271,7,2.614,9,2.384,1,1.999,3,14.081,0,0,0,0,1,,,,,,,,,
,,,,,,,,,,,,,,,second,13,26,F,R,IMT,2021-07-09_13h57.09.114,ImageRatingTask_S1,2021.1.4,Win32,59.95203837,,,,,,,,,,,,,,,,,,,,,0,1,1,1,1,,,,,,,,,
,,,,,,,,,,,,,,,third,13,26,F,R,IMT,2021-07-09_13h57.09.114,ImageRatingTask_S1,2021.1.4,Win32,59.95203837,,,,,,,,,,,,,,,,,,,,,0,2,2,2,1,,,,,,,,,
,,,,,,,,,,,,,,,fourth,13,26,F,R,IMT,2021-07-09_13h57.09.114,ImageRatingTask_S1,2021.1.4,Win32,59.95203837,,,,,,,,,,,,,,,,,,,,,0,3,3,3,1,,,,,,,,,
,,,,,,,,,,,,,,,fifth,13,26,F,R,IMT,2021-07-09_13h57.09.114,ImageRatingTask_S1,2021.1.4,Win32,59.95203837,,,,,,,,,,,,,,,,,,,,,0,4,4,4,1,,,,,,,,,
,,,,,,,,,,,,,,,sixth,13,26,F,R,IMT,2021-07-09_13h57.09.114,ImageRatingTask_S1,2021.1.4,Win32,59.95203837,,,,,,,,,,,,,,,,,,,,,0,5,5,5,1,,,,,,,,,
,,,,,,,,,,,,,,,seventh,13,26,F,R,IMT,2021-07-09_13h57.09.114,ImageRatingTask_S1,2021.1.4,Win32,59.95203837,,,,,,,,,,,,,,,,,,,,,0,6,6,6,1,,,,,,,,,
,,,,,,,,,,,,,,,last,13,26,F,R,IMT,2021-07-09_13h57.09.114,ImageRatingTask_S1,2021.1.4,Win32,59.95203837,,,,,,,,,,,,,,,,,,,,,0,7,7,7,1,,,,,,,,,
,,,,,,,,,,,,,,,,13,26,F,R,IMT,2021-07-09_13h57.09.114,ImageRatingTask_S1,2021.1.4,Win32,59.95203837,,,,,,,,,,,,,,,,,,,,,,,,,,0,49,49,146,1,DreamStudyImages_rs1000x750g/Mammals/Animals_075_h.jpg,,,
,,,,,,,,,,,,,,,main,13,26,F,R,IMT,2021-07-09_13h57.09.114,ImageRatingTask_S1,2021.1.4,Win32,59.95203837,,,,,,,,,,,4,2.937,1,1.384,7,2.449,1,2.704,6,2.744,0,0,0,0,1,,,,,,,,,
,,,,,,,,,,,,,,,second,13,26,F,R,IMT,2021-07-09_13h57.09.114,ImageRatingTask_S1,2021.1.4,Win32,59.95203837,,,,,,,,,,,,,,,,,,,,,0,1,1,1,1,,,,,,,,,
,,,,,,,,,,,,,,,third,13,26,F,R,IMT,2021-07-09_13h57.09.114,ImageRatingTask_S1,2021.1.4,Win32,59.95203837,,,,,,,,,,,,,,,,,,,,,0,2,2,2,1,,,,,,,,,
,,,,,,,,,,,,,,,fourth,13,26,F,R,IMT,2021-07-09_13h57.09.114,ImageRatingTask_S1,2021.1.4,Win32,59.95203837,,,,,,,,,,,,,,,,,,,,,0,3,3,3,1,,,,,,,,,
,,,,,,,,,,,,,,,fifth,13,26,F,R,IMT,2021-07-09_13h57.09.114,ImageRatingTask_S1,2021.1.4,Win32,59.95203837,,,,,,,,,,,,,,,,,,,,,0,4,4,4,1,,,,,,,,,
,,,,,,,,,,,,,,,sixth,13,26,F,R,IMT,2021-07-09_13h57.09.114,ImageRatingTask_S1,2021.1.4,Win32,59.95203837,,,,,,,,,,,,,,,,,,,,,0,5,5,5,1,,,,,,,,,
,,,,,,,,,,,,,,,seventh,13,26,F,R,IMT,2021-07-09_13h57.09.114,ImageRatingTask_S1,2021.1.4,Win32,59.95203837,,,,,,,,,,,,,,,,,,,,,0,6,6,6,1,,,,,,,,,
,,,,,,,,,,,,,,,last,13,26,F,R,IMT,2021-07-09_13h57.09.114,ImageRatingTask_S1,2021.1.4,Win32,59.95203837,,,,,,,,,,,,,,,,,,,,,0,7,7,7,1,,,,,,,,,
,,,,,,,,,,,,,,,,13,26,F,R,IMT,2021-07-09_13h57.09.114,ImageRatingTask_S1,2021.1.4,Win32,59.95203837,,,,,,,,,,,,,,,,,,,,,,,,,,0,50,50,120,1,DreamStudyImages_rs1000x750g/Houses/Pollution 1.jpg,,,
,,,,,,,,,,,,,,,main,13,26,F,R,IMT,2021-07-09_13h57.09.114,ImageRatingTask_S1,2021.1.4,Win32,59.95203837,,,,,,,,,,,5,2.426,1,0.344,7,1.611,1,0.88,3,1.255,0,0,0,0,1,,,,,,,,,
,,,,,,,,,,,,,,,second,13,26,F,R,IMT,2021-07-09_13h57.09.114,ImageRatingTask_S1,2021.1.4,Win32,59.95203837,,,,,,,,,,,,,,,,,,,,,0,1,1,1,1,,,,,,,,,
,,,,,,,,,,,,,,,third,13,26,F,R,IMT,2021-07-09_13h57.09.114,ImageRatingTask_S1,2021.1.4,Win32,59.95203837,,,,,,,,,,,,,,,,,,,,,0,2,2,2,1,,,,,,,,,
,,,,,,,,,,,,,,,fourth,13,26,F,R,IMT,2021-07-09_13h57.09.114,ImageRatingTask_S1,2021.1.4,Win32,59.95203837,,,,,,,,,,,,,,,,,,,,,0,3,3,3,1,,,,,,,,,
,,,,,,,,,,,,,,,fifth,13,26,F,R,IMT,2021-07-09_13h57.09.114,ImageRatingTask_S1,2021.1.4,Win32,59.95203837,,,,,,,,,,,,,,,,,,,,,0,4,4,4,1,,,,,,,,,
,,,,,,,,,,,,,,,sixth,13,26,F,R,IMT,2021-07-09_13h57.09.114,ImageRatingTask_S1,2021.1.4,Win32,59.95203837,,,,,,,,,,,,,,,,,,,,,0,5,5,5,1,,,,,,,,,
,,,,,,,,,,,,,,,seventh,13,26,F,R,IMT,2021-07-09_13h57.09.114,ImageRatingTask_S1,2021.1.4,Win32,59.95203837,,,,,,,,,,,,,,,,,,,,,0,6,6,6,1,,,,,,,,,
,,,,,,,,,,,,,,,last,13,26,F,R,IMT,2021-07-09_13h57.09.114,ImageRatingTask_S1,2021.1.4,Win32,59.95203837,,,,,,,,,,,,,,,,,,,,,0,7,7,7,1,,,,,,,,,
,,,,,,,,,,,,,,,,13,26,F,R,IMT,2021-07-09_13h57.09.114,ImageRatingTask_S1,2021.1.4,Win32,59.95203837,,,,,,,,,,,,,,,,,,,,,,,,,,0,51,51,84,1,DreamStudyImages_rs1000x750g/Mammals/IAPS1670_cow.jpg,,,
,,,,,,,,,,,,,,,main,13,26,F,R,IMT,2021-07-09_13h57.09.114,ImageRatingTask_S1,2021.1.4,Win32,59.95203837,,,,,,,,,,,9,4.504,5,21.799,6,1.969,1,1.133,3,1.27,0,0,0,0,1,,,,,,,,,
,,,,,,,,,,,,,,,second,13,26,F,R,IMT,2021-07-09_13h57.09.114,ImageRatingTask_S1,2021.1.4,Win32,59.95203837,,,,,,,,,,,,,,,,,,,,,0,1,1,1,1,,,,,,,,,
,,,,,,,,,,,,,,,third,13,26,F,R,IMT,2021-07-09_13h57.09.114,ImageRatingTask_S1,2021.1.4,Win32,59.95203837,,,,,,,,,,,,,,,,,,,,,0,2,2,2,1,,,,,,,,,
,,,,,,,,,,,,,,,fourth,13,26,F,R,IMT,2021-07-09_13h57.09.114,ImageRatingTask_S1,2021.1.4,Win32,59.95203837,,,,,,,,,,,,,,,,,,,,,0,3,3,3,1,,,,,,,,,
,,,,,,,,,,,,,,,fifth,13,26,F,R,IMT,2021-07-09_13h57.09.114,ImageRatingTask_S1,2021.1.4,Win32,59.95203837,,,,,,,,,,,,,,,,,,,,,0,4,4,4,1,,,,,,,,,
,,,,,,,,,,,,,,,sixth,13,26,F,R,IMT,2021-07-09_13h57.09.114,ImageRatingTask_S1,2021.1.4,Win32,59.95203837,,,,,,,,,,,,,,,,,,,,,0,5,5,5,1,,,,,,,,,
,,,,,,,,,,,,,,,seventh,13,26,F,R,IMT,2021-07-09_13h57.09.114,ImageRatingTask_S1,2021.1.4,Win32,59.95203837,,,,,,,,,,,,,,,,,,,,,0,6,6,6,1,,,,,,,,,
,,,,,,,,,,,,,,,last,13,26,F,R,IMT,2021-07-09_13h57.09.114,ImageRatingTask_S1,2021.1.4,Win32,59.95203837,,,,,,,,,,,,,,,,,,,,,0,7,7,7,1,,,,,,,,,
,,,,,,,,,,,,,,,,13,26,F,R,IMT,2021-07-09_13h57.09.114,ImageRatingTask_S1,2021.1.4,Win32,59.95203837,,,,,,,,,,,,,,,,,,,,,,,,,,0,52,52,17,1,DreamStudyImages_rs1000x750g/Mammals/IAPS1811_apes.jpg,,,
,,,,,,,,,,,,,,,main,13,26,F,R,IMT,2021-07-09_13h57.09.114,ImageRatingTask_S1,2021.1.4,Win32,59.95203837,,,,,,,,,,,4,2.874,2,0.934,8,4.286,1,0.957,8,4.855,0,0,0,0,1,,,,,,,,,
,,,,,,,,,,,,,,,second,13,26,F,R,IMT,2021-07-09_13h57.09.114,ImageRatingTask_S1,2021.1.4,Win32,59.95203837,,,,,,,,,,,,,,,,,,,,,0,1,1,1,1,,,,,,,,,
,,,,,,,,,,,,,,,third,13,26,F,R,IMT,2021-07-09_13h57.09.114,ImageRatingTask_S1,2021.1.4,Win32,59.95203837,,,,,,,,,,,,,,,,,,,,,0,2,2,2,1,,,,,,,,,
,,,,,,,,,,,,,,,fourth,13,26,F,R,IMT,2021-07-09_13h57.09.114,ImageRatingTask_S1,2021.1.4,Win32,59.95203837,,,,,,,,,,,,,,,,,,,,,0,3,3,3,1,,,,,,,,,
,,,,,,,,,,,,,,,fifth,13,26,F,R,IMT,2021-07-09_13h57.09.114,ImageRatingTask_S1,2021.1.4,Win32,59.95203837,,,,,,,,,,,,,,,,,,,,,0,4,4,4,1,,,,,,,,,
,,,,,,,,,,,,,,,sixth,13,26,F,R,IMT,2021-07-09_13h57.09.114,ImageRatingTask_S1,2021.1.4,Win32,59.95203837,,,,,,,,,,,,,,,,,,,,,0,5,5,5,1,,,,,,,,,
,,,,,,,,,,,,,,,seventh,13,26,F,R,IMT,2021-07-09_13h57.09.114,ImageRatingTask_S1,2021.1.4,Win32,59.95203837,,,,,,,,,,,,,,,,,,,,,0,6,6,6,1,,,,,,,,,
,,,,,,,,,,,,,,,last,13,26,F,R,IMT,2021-07-09_13h57.09.114,ImageRatingTask_S1,2021.1.4,Win32,59.95203837,,,,,,,,,,,,,,,,,,,,,0,7,7,7,1,,,,,,,,,
,,,,,,,,,,,,,,,,13,26,F,R,IMT,2021-07-09_13h57.09.114,ImageRatingTask_S1,2021.1.4,Win32,59.95203837,,,,,,,,,,,,,,,,,,,,,,,,,,0,53,53,45,1,DreamStudyImages_rs1000x750g/Water/water_neg_bis.jpg,,,
,,,,,,,,,,,,,,,main,13,26,F,R,IMT,2021-07-09_13h57.09.114,ImageRatingTask_S1,2021.1.4,Win32,59.95203837,,,,,,,,,,,6,5.104,1,3.562,9,2.035,2,2.348,8,3.435,0,0,0,0,1,,,,,,,,,
,,,,,,,,,,,,,,,second,13,26,F,R,IMT,2021-07-09_13h57.09.114,ImageRatingTask_S1,2021.1.4,Win32,59.95203837,,,,,,,,,,,,,,,,,,,3,1.691,0,1,1,1,1,,,,,,,,,
,,,,,,,,,,,,,,,third,13,26,F,R,IMT,2021-07-09_13h57.09.114,ImageRatingTask_S1,2021.1.4,Win32,59.95203837,,,,,,,,,,,,,,,,,,,,,0,2,2,2,1,,,,,,,,,
,,,,,,,,,,,,,,,fourth,13,26,F,R,IMT,2021-07-09_13h57.09.114,ImageRatingTask_S1,2021.1.4,Win32,59.95203837,,,,,,,,,,,,,,,,,,,,,0,3,3,3,1,,,,,,,,,
,,,,,,,,,,,,,,,fifth,13,26,F,R,IMT,2021-07-09_13h57.09.114,ImageRatingTask_S1,2021.1.4,Win32,59.95203837,,,,,,,,,,,,,,,,,,,,,0,4,4,4,1,,,,,,,,,
,,,,,,,,,,,,,,,sixth,13,26,F,R,IMT,2021-07-09_13h57.09.114,ImageRatingTask_S1,2021.1.4,Win32,59.95203837,,,,,,,,,,,,,,,,,,,,,0,5,5,5,1,,,,,,,,,
,,,,,,,,,,,,,,,seventh,13,26,F,R,IMT,2021-07-09_13h57.09.114,ImageRatingTask_S1,2021.1.4,Win32,59.95203837,,,,,,,,,,,,,,,,,,,,,0,6,6,6,1,,,,,,,,,
,,,,,,,,,,,,,,,last,13,26,F,R,IMT,2021-07-09_13h57.09.114,ImageRatingTask_S1,2021.1.4,Win32,59.95203837,,,,,,,,,,,,,,,,,,,,,0,7,7,7,1,,,,,,,,,
,,,,,,,,,,,,,,,,13,26,F,R,IMT,2021-07-09_13h57.09.114,ImageRatingTask_S1,2021.1.4,Win32,59.95203837,,,,,,,,,,,,,,,,,,,,,,,,,,0,54,54,39,1,DreamStudyImages_rs1000x750g/Water/Landscapes_009_h.jpg,,,
,,,,,,,,,,,,,,,main,13,26,F,R,IMT,2021-07-09_13h57.09.114,ImageRatingTask_S1,2021.1.4,Win32,59.95203837,,,,,,,,,,,5,17.205,1,1.253,8,3.205,1,2.312,5,1.293,0,0,0,0,1,,,,,,,,,
,,,,,,,,,,,,,,,second,13,26,F,R,IMT,2021-07-09_13h57.09.114,ImageRatingTask_S1,2021.1.4,Win32,59.95203837,,,,,,,,,,,,,,,,,,,,,0,1,1,1,1,,,,,,,,,
,,,,,,,,,,,,,,,third,13,26,F,R,IMT,2021-07-09_13h57.09.114,ImageRatingTask_S1,2021.1.4,Win32,59.95203837,,,,,,,,,,,,,,,,,,,,,0,2,2,2,1,,,,,,,,,
,,,,,,,,,,,,,,,fourth,13,26,F,R,IMT,2021-07-09_13h57.09.114,ImageRatingTask_S1,2021.1.4,Win32,59.95203837,,,,,,,,,,,,,,,,,,,,,0,3,3,3,1,,,,,,,,,
,,,,,,,,,,,,,,,fifth,13,26,F,R,IMT,2021-07-09_13h57.09.114,ImageRatingTask_S1,2021.1.4,Win32,59.95203837,,,,,,,,,,,,,,,,,,,,,0,4,4,4,1,,,,,,,,,
,,,,,,,,,,,,,,,sixth,13,26,F,R,IMT,2021-07-09_13h57.09.114,ImageRatingTask_S1,2021.1.4,Win32,59.95203837,,,,,,,,,,,,,,,,,,,,,0,5,5,5,1,,,,,,,,,
,,,,,,,,,,,,,,,seventh,13,26,F,R,IMT,2021-07-09_13h57.09.114,ImageRatingTask_S1,2021.1.4,Win32,59.95203837,,,,,,,,,,,,,,,,,,,,,0,6,6,6,1,,,,,,,,,
,,,,,,,,,,,,,,,last,13,26,F,R,IMT,2021-07-09_13h57.09.114,ImageRatingTask_S1,2021.1.4,Win32,59.95203837,,,,,,,,,,,,,,,,,,,,,0,7,7,7,1,,,,,,,,,
,,,,,,,,,,,,,,,,13,26,F,R,IMT,2021-07-09_13h57.09.114,ImageRatingTask_S1,2021.1.4,Win32,59.95203837,,,,,,,,,,,,,,,,,,,,,,,,,,0,55,55,81,1,DreamStudyImages_rs1000x750g/Food/IAPS7281_skewers.jpg,,,
,,,,,,,,,,,,,,,main,13,26,F,R,IMT,2021-07-09_13h57.09.114,ImageRatingTask_S1,2021.1.4,Win32,59.95203837,,,,,,,,,,,6,22.304,6,4.237,4,2.097,1,1.028,2,1.66,0,0,0,0,1,,,,,,,,,
,,,,,,,,,,,,,,,second,13,26,F,R,IMT,2021-07-09_13h57.09.114,ImageRatingTask_S1,2021.1.4,Win32,59.95203837,,,,,,,,,,,,,,,,,,,,,0,1,1,1,1,,,,,,,,,
,,,,,,,,,,,,,,,third,13,26,F,R,IMT,2021-07-09_13h57.09.114,ImageRatingTask_S1,2021.1.4,Win32,59.95203837,,,,,,,,,,,,,,,,,,,,,0,2,2,2,1,,,,,,,,,
,,,,,,,,,,,,,,,fourth,13,26,F,R,IMT,2021-07-09_13h57.09.114,ImageRatingTask_S1,2021.1.4,Win32,59.95203837,,,,,,,,,,,,,,,,,,,,,0,3,3,3,1,,,,,,,,,
,,,,,,,,,,,,,,,fifth,13,26,F,R,IMT,2021-07-09_13h57.09.114,ImageRatingTask_S1,2021.1.4,Win32,59.95203837,,,,,,,,,,,,,,,,,,,,,0,4,4,4,1,,,,,,,,,
,,,,,,,,,,,,,,,sixth,13,26,F,R,IMT,2021-07-09_13h57.09.114,ImageRatingTask_S1,2021.1.4,Win32,59.95203837,,,,,,,,,,,,,,,,,,,,,0,5,5,5,1,,,,,,,,,
,,,,,,,,,,,,,,,seventh,13,26,F,R,IMT,2021-07-09_13h57.09.114,ImageRatingTask_S1,2021.1.4,Win32,59.95203837,,,,,,,,,,,,,,,,,,,,,0,6,6,6,1,,,,,,,,,
,,,,,,,,,,,,,,,last,13,26,F,R,IMT,2021-07-09_13h57.09.114,ImageRatingTask_S1,2021.1.4,Win32,59.95203837,,,,,,,,,,,,,,,,,,,,,0,7,7,7,1,,,,,,,,,
,,,,,,,,,,,,,,,,13,26,F,R,IMT,2021-07-09_13h57.09.114,ImageRatingTask_S1,2021.1.4,Win32,59.95203837,,,,,,,,,,,,,,,,,,,,,,,,,,0,56,56,141,1,DreamStudyImages_rs1000x750g/Children/IAPS2050_baby3.jpg,,,
,,,,,,,,,,,,,,,main,13,26,F,R,IMT,2021-07-09_13h57.09.114,ImageRatingTask_S1,2021.1.4,Win32,59.95203837,,,,,,,,,,,5,6.84,2,1.168,7,5.458,1,1.064,5,0.986,0,0,0,0,1,,,,,,,,,
,,,,,,,,,,,,,,,second,13,26,F,R,IMT,2021-07-09_13h57.09.114,ImageRatingTask_S1,2021.1.4,Win32,59.95203837,,,,,,,,,,,,,,,,,,,,,0,1,1,1,1,,,,,,,,,
,,,,,,,,,,,,,,,third,13,26,F,R,IMT,2021-07-09_13h57.09.114,ImageRatingTask_S1,2021.1.4,Win32,59.95203837,,,,,,,,,,,,,,,,,,,,,0,2,2,2,1,,,,,,,,,
,,,,,,,,,,,,,,,fourth,13,26,F,R,IMT,2021-07-09_13h57.09.114,ImageRatingTask_S1,2021.1.4,Win32,59.95203837,,,,,,,,,,,,,,,,,,,,,0,3,3,3,1,,,,,,,,,
,,,,,,,,,,,,,,,fifth,13,26,F,R,IMT,2021-07-09_13h57.09.114,ImageRatingTask_S1,2021.1.4,Win32,59.95203837,,,,,,,,,,,,,,,,,,,,,0,4,4,4,1,,,,,,,,,
,,,,,,,,,,,,,,,sixth,13,26,F,R,IMT,2021-07-09_13h57.09.114,ImageRatingTask_S1,2021.1.4,Win32,59.95203837,,,,,,,,,,,,,,,,,,,,,0,5,5,5,1,,,,,,,,,
,,,,,,,,,,,,,,,seventh,13,26,F,R,IMT,2021-07-09_13h57.09.114,ImageRatingTask_S1,2021.1.4,Win32,59.95203837,,,,,,,,,,,,,,,,,,,,,0,6,6,6,1,,,,,,,,,
,,,,,,,,,,,,,,,last,13,26,F,R,IMT,2021-07-09_13h57.09.114,ImageRatingTask_S1,2021.1.4,Win32,59.95203837,,,,,,,,,,,,,,,,,,,,,0,7,7,7,1,,,,,,,,,
,,,,,,,,,,,,,,,,13,26,F,R,IMT,2021-07-09_13h57.09.114,ImageRatingTask_S1,2021.1.4,Win32,59.95203837,,,,,,,,,,,,,,,,,,,,,,,,,,0,57,57,110,1,DreamStudyImages_rs1000x750g/Food/Objects_017_v.jpg,,,
,,,,,,,,,,,,,,,main,13,26,F,R,IMT,2021-07-09_13h57.09.114,ImageRatingTask_S1,2021.1.4,Win32,59.95203837,,,,,,,,,,,6,6.177,1,0.853,9,1.617,1,0.936,2,0.934,0,0,0,0,1,,,,,,,,,
,,,,,,,,,,,,,,,second,13,26,F,R,IMT,2021-07-09_13h57.09.114,ImageRatingTask_S1,2021.1.4,Win32,59.95203837,,,,,,,,,,,,,,,,,,,,,0,1,1,1,1,,,,,,,,,
,,,,,,,,,,,,,,,third,13,26,F,R,IMT,2021-07-09_13h57.09.114,ImageRatingTask_S1,2021.1.4,Win32,59.95203837,,,,,,,,,,,,,,,,,,,,,0,2,2,2,1,,,,,,,,,
,,,,,,,,,,,,,,,fourth,13,26,F,R,IMT,2021-07-09_13h57.09.114,ImageRatingTask_S1,2021.1.4,Win32,59.95203837,,,,,,,,,,,,,,,,,,,,,0,3,3,3,1,,,,,,,,,
,,,,,,,,,,,,,,,fifth,13,26,F,R,IMT,2021-07-09_13h57.09.114,ImageRatingTask_S1,2021.1.4,Win32,59.95203837,,,,,,,,,,,,,,,,,,,,,0,4,4,4,1,,,,,,,,,
,,,,,,,,,,,,,,,sixth,13,26,F,R,IMT,2021-07-09_13h57.09.114,ImageRatingTask_S1,2021.1.4,Win32,59.95203837,,,,,,,,,,,,,,,,,,,,,0,5,5,5,1,,,,,,,,,
,,,,,,,,,,,,,,,seventh,13,26,F,R,IMT,2021-07-09_13h57.09.114,ImageRatingTask_S1,2021.1.4,Win32,59.95203837,,,,,,,,,,,,,,,,,,,,,0,6,6,6,1,,,,,,,,,
,,,,,,,,,,,,,,,last,13,26,F,R,IMT,2021-07-09_13h57.09.114,ImageRatingTask_S1,2021.1.4,Win32,59.95203837,,,,,,,,,,,,,,,,,,,,,0,7,7,7,1,,,,,,,,,
,,,,,,,,,,,,,,,,13,26,F,R,IMT,2021-07-09_13h57.09.114,ImageRatingTask_S1,2021.1.4,Win32,59.95203837,,,,,,,,,,,,,,,,,,,,,,,,,,0,58,58,103,1,DreamStudyImages_rs1000x750g/Children/Faces_123_h.jpg,,,
,,,,,,,,,,,,,,,main,13,26,F,R,IMT,2021-07-09_13h57.09.114,ImageRatingTask_S1,2021.1.4,Win32,59.95203837,,,,,,,,,,,6,3.501,2,2.638,6,3.234,1,7.984,8,4.153,0,0,0,0,1,,,,,,,,,
,,,,,,,,,,,,,,,second,13,26,F,R,IMT,2021-07-09_13h57.09.114,ImageRatingTask_S1,2021.1.4,Win32,59.95203837,,,,,,,,,,,,,,,,,,,,,0,1,1,1,1,,,,,,,,,
,,,,,,,,,,,,,,,third,13,26,F,R,IMT,2021-07-09_13h57.09.114,ImageRatingTask_S1,2021.1.4,Win32,59.95203837,,,,,,,,,,,,,,,,,,,,,0,2,2,2,1,,,,,,,,,
,,,,,,,,,,,,,,,fourth,13,26,F,R,IMT,2021-07-09_13h57.09.114,ImageRatingTask_S1,2021.1.4,Win32,59.95203837,,,,,,,,,,,,,,,,,,,,,0,3,3,3,1,,,,,,,,,
,,,,,,,,,,,,,,,fifth,13,26,F,R,IMT,2021-07-09_13h57.09.114,ImageRatingTask_S1,2021.1.4,Win32,59.95203837,,,,,,,,,,,,,,,,,,,,,0,4,4,4,1,,,,,,,,,
,,,,,,,,,,,,,,,sixth,13,26,F,R,IMT,2021-07-09_13h57.09.114,ImageRatingTask_S1,2021.1.4,Win32,59.95203837,,,,,,,,,,,,,,,,,,,,,0,5,5,5,1,,,,,,,,,
,,,,,,,,,,,,,,,seventh,13,26,F,R,IMT,2021-07-09_13h57.09.114,ImageRatingTask_S1,2021.1.4,Win32,59.95203837,,,,,,,,,,,,,,,,,,,,,0,6,6,6,1,,,,,,,,,
,,,,,,,,,,,,,,,last,13,26,F,R,IMT,2021-07-09_13h57.09.114,ImageRatingTask_S1,2021.1.4,Win32,59.95203837,,,,,,,,,,,,,,,,,,,,,0,7,7,7,1,,,,,,,,,
,,,,,,,,,,,,,,,,13,26,F,R,IMT,2021-07-09_13h57.09.114,ImageRatingTask_S1,2021.1.4,Win32,59.95203837,,,,,,,,,,,,,,,,,,,,,,,,,,0,59,59,82,1,DreamStudyImages_rs1000x750g/Water/Lake 5.jpg,,,
,,,,,,,,,,,,,,,main,13,26,F,R,IMT,2021-07-09_13h57.09.114,ImageRatingTask_S1,2021.1.4,Win32,59.95203837,,,,,,,,,,,2,4.354,1,4.515,8,3.682,1,2.682,6,1.136,0,0,0,0,1,,,,,,,,,
,,,,,,,,,,,,,,,second,13,26,F,R,IMT,2021-07-09_13h57.09.114,ImageRatingTask_S1,2021.1.4,Win32,59.95203837,,,,,,,,,,,,,,,,,,,,,0,1,1,1,1,,,,,,,,,
,,,,,,,,,,,,,,,third,13,26,F,R,IMT,2021-07-09_13h57.09.114,ImageRatingTask_S1,2021.1.4,Win32,59.95203837,,,,,,,,,,,,,,,,,,,,,0,2,2,2,1,,,,,,,,,
,,,,,,,,,,,,,,,fourth,13,26,F,R,IMT,2021-07-09_13h57.09.114,ImageRatingTask_S1,2021.1.4,Win32,59.95203837,,,,,,,,,,,,,,,,,,,,,0,3,3,3,1,,,,,,,,,
,,,,,,,,,,,,,,,fifth,13,26,F,R,IMT,2021-07-09_13h57.09.114,ImageRatingTask_S1,2021.1.4,Win32,59.95203837,,,,,,,,,,,,,,,,,,,,,0,4,4,4,1,,,,,,,,,
,,,,,,,,,,,,,,,sixth,13,26,F,R,IMT,2021-07-09_13h57.09.114,ImageRatingTask_S1,2021.1.4,Win32,59.95203837,,,,,,,,,,,,,,,,,,,,,0,5,5,5,1,,,,,,,,,
,,,,,,,,,,,,,,,seventh,13,26,F,R,IMT,2021-07-09_13h57.09.114,ImageRatingTask_S1,2021.1.4,Win32,59.95203837,,,,,,,,,,,,,,,,,,,,,0,6,6,6,1,,,,,,,,,
,,,,,,,,,,,,,,,last,13,26,F,R,IMT,2021-07-09_13h57.09.114,ImageRatingTask_S1,2021.1.4,Win32,59.95203837,,,,,,,,,,,,,,,,,,,,,0,7,7,7,1,,,,,,,,,
,,,,,,,,,,,,,,,,13,26,F,R,IMT,2021-07-09_13h57.09.114,ImageRatingTask_S1,2021.1.4,Win32,59.95203837,,,,,,,,,,,,,,,,,,,,,,,,,,0,60,60,47,1,DreamStudyImages_rs1000x750g/Houses/Landscapes_001_h.jpg,,,
,,,,,,,,,,,,,,,main,13,26,F,R,IMT,2021-07-09_13h57.09.114,ImageRatingTask_S1,2021.1.4,Win32,59.95203837,,,,,,,,,,,4,4.416,1,0.724,9,2.259,1,2.534,3,1.355,0,0,0,0,1,,,,,,,,,
,,,,,,,,,,,,,,,second,13,26,F,R,IMT,2021-07-09_13h57.09.114,ImageRatingTask_S1,2021.1.4,Win32,59.95203837,,,,,,,,,,,,,,,,,,,,,0,1,1,1,1,,,,,,,,,
,,,,,,,,,,,,,,,third,13,26,F,R,IMT,2021-07-09_13h57.09.114,ImageRatingTask_S1,2021.1.4,Win32,59.95203837,,,,,,,,,,,,,,,,,,,,,0,2,2,2,1,,,,,,,,,
,,,,,,,,,,,,,,,fourth,13,26,F,R,IMT,2021-07-09_13h57.09.114,ImageRatingTask_S1,2021.1.4,Win32,59.95203837,,,,,,,,,,,,,,,,,,,,,0,3,3,3,1,,,,,,,,,
,,,,,,,,,,,,,,,fifth,13,26,F,R,IMT,2021-07-09_13h57.09.114,ImageRatingTask_S1,2021.1.4,Win32,59.95203837,,,,,,,,,,,,,,,,,,,,,0,4,4,4,1,,,,,,,,,
,,,,,,,,,,,,,,,sixth,13,26,F,R,IMT,2021-07-09_13h57.09.114,ImageRatingTask_S1,2021.1.4,Win32,59.95203837,,,,,,,,,,,,,,,,,,,,,0,5,5,5,1,,,,,,,,,
,,,,,,,,,,,,,,,seventh,13,26,F,R,IMT,2021-07-09_13h57.09.114,ImageRatingTask_S1,2021.1.4,Win32,59.95203837,,,,,,,,,,,,,,,,,,,,,0,6,6,6,1,,,,,,,,,
,,,,,,,,,,,,,,,last,13,26,F,R,IMT,2021-07-09_13h57.09.114,ImageRatingTask_S1,2021.1.4,Win32,59.95203837,,,,,,,,,,,,,,,,,,,,,0,7,7,7,1,,,,,,,,,
,,,,,,,,,,,,,,,,13,26,F,R,IMT,2021-07-09_13h57.09.114,ImageRatingTask_S1,2021.1.4,Win32,59.95203837,,,,,,,,,,,,,,,,,,,,,,,,,,0,61,61,44,1,DreamStudyImages_rs1000x750g/Mammals/Animals_066_h.jpg,,,
,,,,,,,,,,,,,,,main,13,26,F,R,IMT,2021-07-09_13h57.09.114,ImageRatingTask_S1,2021.1.4,Win32,59.95203837,,,,,,,,,,,5,7.317,1,0.74,9,1.345,1,1.383,6,0.9,0,0,0,0,1,,,,,,,,,
,,,,,,,,,,,,,,,second,13,26,F,R,IMT,2021-07-09_13h57.09.114,ImageRatingTask_S1,2021.1.4,Win32,59.95203837,,,,,,,,,,,,,,,,,,,,,0,1,1,1,1,,,,,,,,,
,,,,,,,,,,,,,,,third,13,26,F,R,IMT,2021-07-09_13h57.09.114,ImageRatingTask_S1,2021.1.4,Win32,59.95203837,,,,,,,,,,,,,,,,,,,,,0,2,2,2,1,,,,,,,,,
,,,,,,,,,,,,,,,fourth,13,26,F,R,IMT,2021-07-09_13h57.09.114,ImageRatingTask_S1,2021.1.4,Win32,59.95203837,,,,,,,,,,,,,,,,,,,,,0,3,3,3,1,,,,,,,,,
,,,,,,,,,,,,,,,fifth,13,26,F,R,IMT,2021-07-09_13h57.09.114,ImageRatingTask_S1,2021.1.4,Win32,59.95203837,,,,,,,,,,,,,,,,,,,,,0,4,4,4,1,,,,,,,,,
,,,,,,,,,,,,,,,sixth,13,26,F,R,IMT,2021-07-09_13h57.09.114,ImageRatingTask_S1,2021.1.4,Win32,59.95203837,,,,,,,,,,,,,,,,,,,,,0,5,5,5,1,,,,,,,,,
,,,,,,,,,,,,,,,seventh,13,26,F,R,IMT,2021-07-09_13h57.09.114,ImageRatingTask_S1,2021.1.4,Win32,59.95203837,,,,,,,,,,,,,,,,,,,,,0,6,6,6,1,,,,,,,,,
,,,,,,,,,,,,,,,last,13,26,F,R,IMT,2021-07-09_13h57.09.114,ImageRatingTask_S1,2021.1.4,Win32,59.95203837,,,,,,,,,,,,,,,,,,,,,0,7,7,7,1,,,,,,,,,
,,,,,,,,,,,,,,,,13,26,F,R,IMT,2021-07-09_13h57.09.114,ImageRatingTask_S1,2021.1.4,Win32,59.95203837,,,,,,,,,,,,,,,,,,,,,,,,,,0,62,62,102,1,DreamStudyImages_rs1000x750g/Houses/woodenshed.jpg,,,
,,,,,,,,,,,,,,,main,13,26,F,R,IMT,2021-07-09_13h57.09.114,ImageRatingTask_S1,2021.1.4,Win32,59.95203837,,,,,,,,,,,5,20.286,1,7.738,9,7.619,1,4.951,5,1.169,0,0,0,0,1,,,,,,,,,
,,,,,,,,,,,,,,,second,13,26,F,R,IMT,2021-07-09_13h57.09.114,ImageRatingTask_S1,2021.1.4,Win32,59.95203837,,,,,,,,,,,,,,,,,,,,,0,1,1,1,1,,,,,,,,,
,,,,,,,,,,,,,,,third,13,26,F,R,IMT,2021-07-09_13h57.09.114,ImageRatingTask_S1,2021.1.4,Win32,59.95203837,,,,,,,,,,,,,,,,,,,,,0,2,2,2,1,,,,,,,,,
,,,,,,,,,,,,,,,fourth,13,26,F,R,IMT,2021-07-09_13h57.09.114,ImageRatingTask_S1,2021.1.4,Win32,59.95203837,,,,,,,,,,,,,,,,,,,,,0,3,3,3,1,,,,,,,,,
,,,,,,,,,,,,,,,fifth,13,26,F,R,IMT,2021-07-09_13h57.09.114,ImageRatingTask_S1,2021.1.4,Win32,59.95203837,,,,,,,,,,,,,,,,,,,,,0,4,4,4,1,,,,,,,,,
,,,,,,,,,,,,,,,sixth,13,26,F,R,IMT,2021-07-09_13h57.09.114,ImageRatingTask_S1,2021.1.4,Win32,59.95203837,,,,,,,,,,,,,,,,,,,,,0,5,5,5,1,,,,,,,,,
,,,,,,,,,,,,,,,seventh,13,26,F,R,IMT,2021-07-09_13h57.09.114,ImageRatingTask_S1,2021.1.4,Win32,59.95203837,,,,,,,,,,,,,,,,,,,,,0,6,6,6,1,,,,,,,,,
,,,,,,,,,,,,,,,last,13,26,F,R,IMT,2021-07-09_13h57.09.114,ImageRatingTask_S1,2021.1.4,Win32,59.95203837,,,,,,,,,,,,,,,,,,,,,0,7,7,7,1,,,,,,,,,
,,,,,,,,,,,,,,,,13,26,F,R,IMT,2021-07-09_13h57.09.114,ImageRatingTask_S1,2021.1.4,Win32,59.95203837,,,,,,,,,,,,,,,,,,,,,,,,,,0,63,63,74,1,DreamStudyImages_rs1000x750g/Food/Dessert 7.jpg,,,
,,,,,,,,,,,,,,,main,13,26,F,R,IMT,2021-07-09_13h57.09.114,ImageRatingTask_S1,2021.1.4,Win32,59.95203837,,,,,,,,,,,2,4.241,8,1.265,3,2.468,1,5.514,6,1.755,0,0,0,0,1,,,,,,,,,
,,,,,,,,,,,,,,,second,13,26,F,R,IMT,2021-07-09_13h57.09.114,ImageRatingTask_S1,2021.1.4,Win32,59.95203837,,,,,,,,,,,,,,,,,,,,,0,1,1,1,1,,,,,,,,,
,,,,,,,,,,,,,,,third,13,26,F,R,IMT,2021-07-09_13h57.09.114,ImageRatingTask_S1,2021.1.4,Win32,59.95203837,,,,,,,,,,,,,,,,,,,,,0,2,2,2,1,,,,,,,,,
,,,,,,,,,,,,,,,fourth,13,26,F,R,IMT,2021-07-09_13h57.09.114,ImageRatingTask_S1,2021.1.4,Win32,59.95203837,,,,,,,,,,,,,,,,,,,,,0,3,3,3,1,,,,,,,,,
,,,,,,,,,,,,,,,fifth,13,26,F,R,IMT,2021-07-09_13h57.09.114,ImageRatingTask_S1,2021.1.4,Win32,59.95203837,,,,,,,,,,,,,,,,,,,,,0,4,4,4,1,,,,,,,,,
,,,,,,,,,,,,,,,sixth,13,26,F,R,IMT,2021-07-09_13h57.09.114,ImageRatingTask_S1,2021.1.4,Win32,59.95203837,,,,,,,,,,,,,,,,,,,,,0,5,5,5,1,,,,,,,,,
,,,,,,,,,,,,,,,seventh,13,26,F,R,IMT,2021-07-09_13h57.09.114,ImageRatingTask_S1,2021.1.4,Win32,59.95203837,,,,,,,,,,,,,,,,,,,,,0,6,6,6,1,,,,,,,,,
,,,,,,,,,,,,,,,last,13,26,F,R,IMT,2021-07-09_13h57.09.114,ImageRatingTask_S1,2021.1.4,Win32,59.95203837,,,,,,,,,,,,,,,,,,,,,0,7,7,7,1,,,,,,,,,
,,,,,,,,,,,,,,,,13,26,F,R,IMT,2021-07-09_13h57.09.114,ImageRatingTask_S1,2021.1.4,Win32,59.95203837,,,,,,,,,,,,,,,,,,,,,,,,,,0,64,64,152,1,DreamStudyImages_rs1000x750g/Houses/NDPS11_buildings4.jpg,,,
,,,,,,,,,,,,,,,main,13,26,F,R,IMT,2021-07-09_13h57.09.114,ImageRatingTask_S1,2021.1.4,Win32,59.95203837,,,,,,,,,,,2,1.853,8,0.832,9,2.585,1,3.414,2,1.303,0,0,0,0,1,,,,,,,,,
,,,,,,,,,,,,,,,second,13,26,F,R,IMT,2021-07-09_13h57.09.114,ImageRatingTask_S1,2021.1.4,Win32,59.95203837,,,,,,,,,,,,,,,,,,,,,0,1,1,1,1,,,,,,,,,
,,,,,,,,,,,,,,,third,13,26,F,R,IMT,2021-07-09_13h57.09.114,ImageRatingTask_S1,2021.1.4,Win32,59.95203837,,,,,,,,,,,,,,,,,,,,,0,2,2,2,1,,,,,,,,,
,,,,,,,,,,,,,,,fourth,13,26,F,R,IMT,2021-07-09_13h57.09.114,ImageRatingTask_S1,2021.1.4,Win32,59.95203837,,,,,,,,,,,,,,,,,,,,,0,3,3,3,1,,,,,,,,,
,,,,,,,,,,,,,,,fifth,13,26,F,R,IMT,2021-07-09_13h57.09.114,ImageRatingTask_S1,2021.1.4,Win32,59.95203837,,,,,,,,,,,,,,,,,,,,,0,4,4,4,1,,,,,,,,,
,,,,,,,,,,,,,,,sixth,13,26,F,R,IMT,2021-07-09_13h57.09.114,ImageRatingTask_S1,2021.1.4,Win32,59.95203837,,,,,,,,,,,,,,,,,,,,,0,5,5,5,1,,,,,,,,,
