slider_pre.response,slider_pre.rt,key_val.keys,key_val.rt,key_aro.keys,key_aro.rt,key_qual.keys,key_qual.rt,key_ncat.keys,key_ncat.rt,key_cats.keys,key_cats.rt,ncat_order.thisRepN,ncat_order.thisTrialN,ncat_order.thisN,ncat_order.thisIndex,ncat_order.ran,cond_cat,participant,age,gender,handedness (L/R),site (IMT/Donders),date,expName,psychopyVersion,OS,frameRate,img_trials.thisRepN,img_trials.thisTrialN,img_trials.thisN,img_trials.thisIndex,img_trials.ran,filename,slider_post.response,slider_post.rt,key_fb.keys,key_fb.rt,fb.thisRepN,fb.thisTrialN,fb.thisN,fb.thisIndex,fb.ran,fb_qst,textbox_openfb.text
5,4.577,5,5.591,1,1.095,6,1.585,1,1.671,5,2.091,0,0,0,0,1,main,13,26,F,R,IMT,2021-07-18_13h03.17.068,ImageRatingTask_S5,2021.1.4,Win32,59.95203837,,,,,,,,,,,,,,,,,
,,,,,,,,,,,,0,1,1,1,1,second,13,26,F,R,IMT,2021-07-18_13h03.17.068,ImageRatingTask_S5,2021.1.4,Win32,59.95203837,,,,,,,,,,,,,,,,,
,,,,,,,,,,,,0,2,2,2,1,third,13,26,F,R,IMT,2021-07-18_13h03.17.068,ImageRatingTask_S5,2021.1.4,Win32,59.95203837,,,,,,,,,,,,,,,,,
,,,,,,,,,,,,0,3,3,3,1,fourth,13,26,F,R,IMT,2021-07-18_13h03.17.068,ImageRatingTask_S5,2021.1.4,Win32,59.95203837,,,,,,,,,,,,,,,,,
,,,,,,,,,,,,0,4,4,4,1,fifth,13,26,F,R,IMT,2021-07-18_13h03.17.068,ImageRatingTask_S5,2021.1.4,Win32,59.95203837,,,,,,,,,,,,,,,,,
,,,,,,,,,,,,0,5,5,5,1,sixth,13,26,F,R,IMT,2021-07-18_13h03.17.068,ImageRatingTask_S5,2021.1.4,Win32,59.95203837,,,,,,,,,,,,,,,,,
,,,,,,,,,,,,0,6,6,6,1,seventh,13,26,F,R,IMT,2021-07-18_13h03.17.068,ImageRatingTask_S5,2021.1.4,Win32,59.95203837,,,,,,,,,,,,,,,,,
,,,,,,,,,,,,0,7,7,7,1,last,13,26,F,R,IMT,2021-07-18_13h03.17.068,ImageRatingTask_S5,2021.1.4,Win32,59.95203837,,,,,,,,,,,,,,,,,
,,,,,,,,,,,,,,,,,,13,26,F,R,IMT,2021-07-18_13h03.17.068,ImageRatingTask_S5,2021.1.4,Win32,59.95203837,0,0,0,58,1,DreamStudyImages_rs1000x750g/Food/7260.jpg,,,,,,,,,,,
,,5,2.623,1,0.247,6,2.017,1,0.882,6,0.744,0,0,0,0,1,main,13,26,F,R,IMT,2021-07-18_13h03.17.068,ImageRatingTask_S5,2021.1.4,Win32,59.95203837,,,,,,,,,,,,,,,,,
,,,,,,,,,,,,0,1,1,1,1,second,13,26,F,R,IMT,2021-07-18_13h03.17.068,ImageRatingTask_S5,2021.1.4,Win32,59.95203837,,,,,,,,,,,,,,,,,
,,,,,,,,,,,,0,2,2,2,1,third,13,26,F,R,IMT,2021-07-18_13h03.17.068,ImageRatingTask_S5,2021.1.4,Win32,59.95203837,,,,,,,,,,,,,,,,,
,,,,,,,,,,,,0,3,3,3,1,fourth,13,26,F,R,IMT,2021-07-18_13h03.17.068,ImageRatingTask_S5,2021.1.4,Win32,59.95203837,,,,,,,,,,,,,,,,,
,,,,,,,,,,,,0,4,4,4,1,fifth,13,26,F,R,IMT,2021-07-18_13h03.17.068,ImageRatingTask_S5,2021.1.4,Win32,59.95203837,,,,,,,,,,,,,,,,,
,,,,,,,,,,,,0,5,5,5,1,sixth,13,26,F,R,IMT,2021-07-18_13h03.17.068,ImageRatingTask_S5,2021.1.4,Win32,59.95203837,,,,,,,,,,,,,,,,,
,,,,,,,,,,,,0,6,6,6,1,seventh,13,26,F,R,IMT,2021-07-18_13h03.17.068,ImageRatingTask_S5,2021.1.4,Win32,59.95203837,,,,,,,,,,,,,,,,,
,,,,,,,,,,,,0,7,7,7,1,last,13,26,F,R,IMT,2021-07-18_13h03.17.068,ImageRatingTask_S5,2021.1.4,Win32,59.95203837,,,,,,,,,,,,,,,,,
,,,,,,,,,,,,,,,,,,13,26,F,R,IMT,2021-07-18_13h03.17.068,ImageRatingTask_S5,2021.1.4,Win32,59.95203837,0,1,1,61,1,DreamStudyImages_rs1000x750g/Houses/City 1.jpg,,,,,,,,,,,
,,5,1.402,1,0.168,5,3.134,1,1.291,7,1.72,0,0,0,0,1,main,13,26,F,R,IMT,2021-07-18_13h03.17.068,ImageRatingTask_S5,2021.1.4,Win32,59.95203837,,,,,,,,,,,,,,,,,
,,,,,,,,,,,,0,1,1,1,1,second,13,26,F,R,IMT,2021-07-18_13h03.17.068,ImageRatingTask_S5,2021.1.4,Win32,59.95203837,,,,,,,,,,,,,,,,,
,,,,,,,,,,,,0,2,2,2,1,third,13,26,F,R,IMT,2021-07-18_13h03.17.068,ImageRatingTask_S5,2021.1.4,Win32,59.95203837,,,,,,,,,,,,,,,,,
,,,,,,,,,,,,0,3,3,3,1,fourth,13,26,F,R,IMT,2021-07-18_13h03.17.068,ImageRatingTask_S5,2021.1.4,Win32,59.95203837,,,,,,,,,,,,,,,,,
,,,,,,,,,,,,0,4,4,4,1,fifth,13,26,F,R,IMT,2021-07-18_13h03.17.068,ImageRatingTask_S5,2021.1.4,Win32,59.95203837,,,,,,,,,,,,,,,,,
,,,,,,,,,,,,0,5,5,5,1,sixth,13,26,F,R,IMT,2021-07-18_13h03.17.068,ImageRatingTask_S5,2021.1.4,Win32,59.95203837,,,,,,,,,,,,,,,,,
,,,,,,,,,,,,0,6,6,6,1,seventh,13,26,F,R,IMT,2021-07-18_13h03.17.068,ImageRatingTask_S5,2021.1.4,Win32,59.95203837,,,,,,,,,,,,,,,,,
,,,,,,,,,,,,0,7,7,7,1,last,13,26,F,R,IMT,2021-07-18_13h03.17.068,ImageRatingTask_S5,2021.1.4,Win32,59.95203837,,,,,,,,,,,,,,,,,
,,,,,,,,,,,,,,,,,,13,26,F,R,IMT,2021-07-18_13h03.17.068,ImageRatingTask_S5,2021.1.4,Win32,59.95203837,0,2,2,25,1,DreamStudyImages_rs1000x750g/Vehicles/rheingoldtrain_CROPPED.jpg,,,,,,,,,,,
,,5,4.978,4,1.852,7,7.171,1,0.95,7,2.256,0,0,0,0,1,main,13,26,F,R,IMT,2021-07-18_13h03.17.068,ImageRatingTask_S5,2021.1.4,Win32,59.95203837,,,,,,,,,,,,,,,,,
,,,,,,,,,,,,0,1,1,1,1,second,13,26,F,R,IMT,2021-07-18_13h03.17.068,ImageRatingTask_S5,2021.1.4,Win32,59.95203837,,,,,,,,,,,,,,,,,
,,,,,,,,,,,,0,2,2,2,1,third,13,26,F,R,IMT,2021-07-18_13h03.17.068,ImageRatingTask_S5,2021.1.4,Win32,59.95203837,,,,,,,,,,,,,,,,,
,,,,,,,,,,,,0,3,3,3,1,fourth,13,26,F,R,IMT,2021-07-18_13h03.17.068,ImageRatingTask_S5,2021.1.4,Win32,59.95203837,,,,,,,,,,,,,,,,,
,,,,,,,,,,,,0,4,4,4,1,fifth,13,26,F,R,IMT,2021-07-18_13h03.17.068,ImageRatingTask_S5,2021.1.4,Win32,59.95203837,,,,,,,,,,,,,,,,,
,,,,,,,,,,,,0,5,5,5,1,sixth,13,26,F,R,IMT,2021-07-18_13h03.17.068,ImageRatingTask_S5,2021.1.4,Win32,59.95203837,,,,,,,,,,,,,,,,,
,,,,,,,,,,,,0,6,6,6,1,seventh,13,26,F,R,IMT,2021-07-18_13h03.17.068,ImageRatingTask_S5,2021.1.4,Win32,59.95203837,,,,,,,,,,,,,,,,,
,,,,,,,,,,,,0,7,7,7,1,last,13,26,F,R,IMT,2021-07-18_13h03.17.068,ImageRatingTask_S5,2021.1.4,Win32,59.95203837,,,,,,,,,,,,,,,,,
,,,,,,,,,,,,,,,,,,13,26,F,R,IMT,2021-07-18_13h03.17.068,ImageRatingTask_S5,2021.1.4,Win32,59.95203837,0,3,3,55,1,DreamStudyImages_rs1000x750g/Vehicles/9610.jpg,,,,,,,,,,,
,,5,8.177,2,2.037,9,4.124,1,1.016,7,1.296,0,0,0,0,1,main,13,26,F,R,IMT,2021-07-18_13h03.17.068,ImageRatingTask_S5,2021.1.4,Win32,59.95203837,,,,,,,,,,,,,,,,,
,,,,,,,,,,,,0,1,1,1,1,second,13,26,F,R,IMT,2021-07-18_13h03.17.068,ImageRatingTask_S5,2021.1.4,Win32,59.95203837,,,,,,,,,,,,,,,,,
,,,,,,,,,,,,0,2,2,2,1,third,13,26,F,R,IMT,2021-07-18_13h03.17.068,ImageRatingTask_S5,2021.1.4,Win32,59.95203837,,,,,,,,,,,,,,,,,
,,,,,,,,,,,,0,3,3,3,1,fourth,13,26,F,R,IMT,2021-07-18_13h03.17.068,ImageRatingTask_S5,2021.1.4,Win32,59.95203837,,,,,,,,,,,,,,,,,
,,,,,,,,,,,,0,4,4,4,1,fifth,13,26,F,R,IMT,2021-07-18_13h03.17.068,ImageRatingTask_S5,2021.1.4,Win32,59.95203837,,,,,,,,,,,,,,,,,
,,,,,,,,,,,,0,5,5,5,1,sixth,13,26,F,R,IMT,2021-07-18_13h03.17.068,ImageRatingTask_S5,2021.1.4,Win32,59.95203837,,,,,,,,,,,,,,,,,
,,,,,,,,,,,,0,6,6,6,1,seventh,13,26,F,R,IMT,2021-07-18_13h03.17.068,ImageRatingTask_S5,2021.1.4,Win32,59.95203837,,,,,,,,,,,,,,,,,
,,,,,,,,,,,,0,7,7,7,1,last,13,26,F,R,IMT,2021-07-18_13h03.17.068,ImageRatingTask_S5,2021.1.4,Win32,59.95203837,,,,,,,,,,,,,,,,,
,,,,,,,,,,,,,,,,,,13,26,F,R,IMT,2021-07-18_13h03.17.068,ImageRatingTask_S5,2021.1.4,Win32,59.95203837,0,4,4,44,1,DreamStudyImages_rs1000x750g/Vehicles/Objects_277_h.jpg,,,,,,,,,,,
,,5,1.207,1,0.316,9,1.702,1,0.869,7,0.82,0,0,0,0,1,main,13,26,F,R,IMT,2021-07-18_13h03.17.068,ImageRatingTask_S5,2021.1.4,Win32,59.95203837,,,,,,,,,,,,,,,,,
,,,,,,,,,,,,0,1,1,1,1,second,13,26,F,R,IMT,2021-07-18_13h03.17.068,ImageRatingTask_S5,2021.1.4,Win32,59.95203837,,,,,,,,,,,,,,,,,
,,,,,,,,,,,,0,2,2,2,1,third,13,26,F,R,IMT,2021-07-18_13h03.17.068,ImageRatingTask_S5,2021.1.4,Win32,59.95203837,,,,,,,,,,,,,,,,,
,,,,,,,,,,,,0,3,3,3,1,fourth,13,26,F,R,IMT,2021-07-18_13h03.17.068,ImageRatingTask_S5,2021.1.4,Win32,59.95203837,,,,,,,,,,,,,,,,,
,,,,,,,,,,,,0,4,4,4,1,fifth,13,26,F,R,IMT,2021-07-18_13h03.17.068,ImageRatingTask_S5,2021.1.4,Win32,59.95203837,,,,,,,,,,,,,,,,,
,,,,,,,,,,,,0,5,5,5,1,sixth,13,26,F,R,IMT,2021-07-18_13h03.17.068,ImageRatingTask_S5,2021.1.4,Win32,59.95203837,,,,,,,,,,,,,,,,,
,,,,,,,,,,,,0,6,6,6,1,seventh,13,26,F,R,IMT,2021-07-18_13h03.17.068,ImageRatingTask_S5,2021.1.4,Win32,59.95203837,,,,,,,,,,,,,,,,,
,,,,,,,,,,,,0,7,7,7,1,last,13,26,F,R,IMT,2021-07-18_13h03.17.068,ImageRatingTask_S5,2021.1.4,Win32,59.95203837,,,,,,,,,,,,,,,,,
,,,,,,,,,,,,,,,,,,13,26,F,R,IMT,2021-07-18_13h03.17.068,ImageRatingTask_S5,2021.1.4,Win32,59.95203837,0,5,5,60,1,DreamStudyImages_rs1000x750g/Vehicles/7135.jpg,,,,,,,,,,,
,,5,2.688,1,0.236,6,1.768,1,0.636,8,1.189,0,0,0,0,1,main,13,26,F,R,IMT,2021-07-18_13h03.17.068,ImageRatingTask_S5,2021.1.4,Win32,59.95203837,,,,,,,,,,,,,,,,,
,,,,,,,,,,,,0,1,1,1,1,second,13,26,F,R,IMT,2021-07-18_13h03.17.068,ImageRatingTask_S5,2021.1.4,Win32,59.95203837,,,,,,,,,,,,,,,,,
,,,,,,,,,,,,0,2,2,2,1,third,13,26,F,R,IMT,2021-07-18_13h03.17.068,ImageRatingTask_S5,2021.1.4,Win32,59.95203837,,,,,,,,,,,,,,,,,
,,,,,,,,,,,,0,3,3,3,1,fourth,13,26,F,R,IMT,2021-07-18_13h03.17.068,ImageRatingTask_S5,2021.1.4,Win32,59.95203837,,,,,,,,,,,,,,,,,
,,,,,,,,,,,,0,4,4,4,1,fifth,13,26,F,R,IMT,2021-07-18_13h03.17.068,ImageRatingTask_S5,2021.1.4,Win32,59.95203837,,,,,,,,,,,,,,,,,
,,,,,,,,,,,,0,5,5,5,1,sixth,13,26,F,R,IMT,2021-07-18_13h03.17.068,ImageRatingTask_S5,2021.1.4,Win32,59.95203837,,,,,,,,,,,,,,,,,
,,,,,,,,,,,,0,6,6,6,1,seventh,13,26,F,R,IMT,2021-07-18_13h03.17.068,ImageRatingTask_S5,2021.1.4,Win32,59.95203837,,,,,,,,,,,,,,,,,
,,,,,,,,,,,,0,7,7,7,1,last,13,26,F,R,IMT,2021-07-18_13h03.17.068,ImageRatingTask_S5,2021.1.4,Win32,59.95203837,,,,,,,,,,,,,,,,,
,,,,,,,,,,,,,,,,,,13,26,F,R,IMT,2021-07-18_13h03.17.068,ImageRatingTask_S5,2021.1.4,Win32,59.95203837,0,6,6,109,1,DreamStudyImages_rs1000x750g/Water/5270.jpg,,,,,,,,,,,
,,5,1.42,1,0.454,8,1.616,1,0.884,5,1.047,0,0,0,0,1,main,13,26,F,R,IMT,2021-07-18_13h03.17.068,ImageRatingTask_S5,2021.1.4,Win32,59.95203837,,,,,,,,,,,,,,,,,
,,,,,,,,,,,,0,1,1,1,1,second,13,26,F,R,IMT,2021-07-18_13h03.17.068,ImageRatingTask_S5,2021.1.4,Win32,59.95203837,,,,,,,,,,,,,,,,,
,,,,,,,,,,,,0,2,2,2,1,third,13,26,F,R,IMT,2021-07-18_13h03.17.068,ImageRatingTask_S5,2021.1.4,Win32,59.95203837,,,,,,,,,,,,,,,,,
,,,,,,,,,,,,0,3,3,3,1,fourth,13,26,F,R,IMT,2021-07-18_13h03.17.068,ImageRatingTask_S5,2021.1.4,Win32,59.95203837,,,,,,,,,,,,,,,,,
,,,,,,,,,,,,0,4,4,4,1,fifth,13,26,F,R,IMT,2021-07-18_13h03.17.068,ImageRatingTask_S5,2021.1.4,Win32,59.95203837,,,,,,,,,,,,,,,,,
,,,,,,,,,,,,0,5,5,5,1,sixth,13,26,F,R,IMT,2021-07-18_13h03.17.068,ImageRatingTask_S5,2021.1.4,Win32,59.95203837,,,,,,,,,,,,,,,,,
,,,,,,,,,,,,0,6,6,6,1,seventh,13,26,F,R,IMT,2021-07-18_13h03.17.068,ImageRatingTask_S5,2021.1.4,Win32,59.95203837,,,,,,,,,,,,,,,,,
,,,,,,,,,,,,0,7,7,7,1,last,13,26,F,R,IMT,2021-07-18_13h03.17.068,ImageRatingTask_S5,2021.1.4,Win32,59.95203837,,,,,,,,,,,,,,,,,
,,,,,,,,,,,,,,,,,,13,26,F,R,IMT,2021-07-18_13h03.17.068,ImageRatingTask_S5,2021.1.4,Win32,59.95203837,0,7,7,14,1,DreamStudyImages_rs1000x750g/Food/IAPS7475_curry.jpg,,,,,,,,,,,
,,7,2.502,3,0.825,5,2.17,1,0.516,2,0.654,0,0,0,0,1,main,13,26,F,R,IMT,2021-07-18_13h03.17.068,ImageRatingTask_S5,2021.1.4,Win32,59.95203837,,,,,,,,,,,,,,,,,
,,,,,,,,,,,,0,1,1,1,1,second,13,26,F,R,IMT,2021-07-18_13h03.17.068,ImageRatingTask_S5,2021.1.4,Win32,59.95203837,,,,,,,,,,,,,,,,,
,,,,,,,,,,,,0,2,2,2,1,third,13,26,F,R,IMT,2021-07-18_13h03.17.068,ImageRatingTask_S5,2021.1.4,Win32,59.95203837,,,,,,,,,,,,,,,,,
,,,,,,,,,,,,0,3,3,3,1,fourth,13,26,F,R,IMT,2021-07-18_13h03.17.068,ImageRatingTask_S5,2021.1.4,Win32,59.95203837,,,,,,,,,,,,,,,,,
,,,,,,,,,,,,0,4,4,4,1,fifth,13,26,F,R,IMT,2021-07-18_13h03.17.068,ImageRatingTask_S5,2021.1.4,Win32,59.95203837,,,,,,,,,,,,,,,,,
,,,,,,,,,,,,0,5,5,5,1,sixth,13,26,F,R,IMT,2021-07-18_13h03.17.068,ImageRatingTask_S5,2021.1.4,Win32,59.95203837,,,,,,,,,,,,,,,,,
,,,,,,,,,,,,0,6,6,6,1,seventh,13,26,F,R,IMT,2021-07-18_13h03.17.068,ImageRatingTask_S5,2021.1.4,Win32,59.95203837,,,,,,,,,,,,,,,,,
,,,,,,,,,,,,0,7,7,7,1,last,13,26,F,R,IMT,2021-07-18_13h03.17.068,ImageRatingTask_S5,2021.1.4,Win32,59.95203837,,,,,,,,,,,,,,,,,
,,,,,,,,,,,,,,,,,,13,26,F,R,IMT,2021-07-18_13h03.17.068,ImageRatingTask_S5,2021.1.4,Win32,59.95203837,0,8,8,119,1,DreamStudyImages_rs1000x750g/Children/IAPS2040_baby1.jpg,,,,,,,,,,,
,,4,2.545,7,1.336,6,2.684,1,0.448,6,3.184,0,0,0,0,1,main,13,26,F,R,IMT,2021-07-18_13h03.17.068,ImageRatingTask_S5,2021.1.4,Win32,59.95203837,,,,,,,,,,,,,,,,,
,,,,,,,,,,,,0,1,1,1,1,second,13,26,F,R,IMT,2021-07-18_13h03.17.068,ImageRatingTask_S5,2021.1.4,Win32,59.95203837,,,,,,,,,,,,,,,,,
,,,,,,,,,,,,0,2,2,2,1,third,13,26,F,R,IMT,2021-07-18_13h03.17.068,ImageRatingTask_S5,2021.1.4,Win32,59.95203837,,,,,,,,,,,,,,,,,
,,,,,,,,,,,,0,3,3,3,1,fourth,13,26,F,R,IMT,2021-07-18_13h03.17.068,ImageRatingTask_S5,2021.1.4,Win32,59.95203837,,,,,,,,,,,,,,,,,
,,,,,,,,,,,,0,4,4,4,1,fifth,13,26,F,R,IMT,2021-07-18_13h03.17.068,ImageRatingTask_S5,2021.1.4,Win32,59.95203837,,,,,,,,,,,,,,,,,
,,,,,,,,,,,,0,5,5,5,1,sixth,13,26,F,R,IMT,2021-07-18_13h03.17.068,ImageRatingTask_S5,2021.1.4,Win32,59.95203837,,,,,,,,,,,,,,,,,
,,,,,,,,,,,,0,6,6,6,1,seventh,13,26,F,R,IMT,2021-07-18_13h03.17.068,ImageRatingTask_S5,2021.1.4,Win32,59.95203837,,,,,,,,,,,,,,,,,
,,,,,,,,,,,,0,7,7,7,1,last,13,26,F,R,IMT,2021-07-18_13h03.17.068,ImageRatingTask_S5,2021.1.4,Win32,59.95203837,,,,,,,,,,,,,,,,,
,,,,,,,,,,,,,,,,,,13,26,F,R,IMT,2021-07-18_13h03.17.068,ImageRatingTask_S5,2021.1.4,Win32,59.95203837,0,9,9,4,1,DreamStudyImages_rs1000x750g/Houses/NDPS95_cityskyline.jpg,,,,,,,,,,,
,,5,2.372,1,0.254,7,3.917,1,0.566,5,2.826,0,0,0,0,1,main,13,26,F,R,IMT,2021-07-18_13h03.17.068,ImageRatingTask_S5,2021.1.4,Win32,59.95203837,,,,,,,,,,,,,,,,,
,,,,,,,,,,,,0,1,1,1,1,second,13,26,F,R,IMT,2021-07-18_13h03.17.068,ImageRatingTask_S5,2021.1.4,Win32,59.95203837,,,,,,,,,,,,,,,,,
,,,,,,,,,,,,0,2,2,2,1,third,13,26,F,R,IMT,2021-07-18_13h03.17.068,ImageRatingTask_S5,2021.1.4,Win32,59.95203837,,,,,,,,,,,,,,,,,
,,,,,,,,,,,,0,3,3,3,1,fourth,13,26,F,R,IMT,2021-07-18_13h03.17.068,ImageRatingTask_S5,2021.1.4,Win32,59.95203837,,,,,,,,,,,,,,,,,
,,,,,,,,,,,,0,4,4,4,1,fifth,13,26,F,R,IMT,2021-07-18_13h03.17.068,ImageRatingTask_S5,2021.1.4,Win32,59.95203837,,,,,,,,,,,,,,,,,
,,,,,,,,,,,,0,5,5,5,1,sixth,13,26,F,R,IMT,2021-07-18_13h03.17.068,ImageRatingTask_S5,2021.1.4,Win32,59.95203837,,,,,,,,,,,,,,,,,
,,,,,,,,,,,,0,6,6,6,1,seventh,13,26,F,R,IMT,2021-07-18_13h03.17.068,ImageRatingTask_S5,2021.1.4,Win32,59.95203837,,,,,,,,,,,,,,,,,
,,,,,,,,,,,,0,7,7,7,1,last,13,26,F,R,IMT,2021-07-18_13h03.17.068,ImageRatingTask_S5,2021.1.4,Win32,59.95203837,,,,,,,,,,,,,,,,,
,,,,,,,,,,,,,,,,,,13,26,F,R,IMT,2021-07-18_13h03.17.068,ImageRatingTask_S5,2021.1.4,Win32,59.95203837,0,10,10,45,1,DreamStudyImages_rs1000x750g/Food/Objects_042_h.jpg,,,,,,,,,,,
,,5,4.576,2,2.974,8,1.468,1,0.565,2,0.634,0,0,0,0,1,main,13,26,F,R,IMT,2021-07-18_13h03.17.068,ImageRatingTask_S5,2021.1.4,Win32,59.95203837,,,,,,,,,,,,,,,,,
,,,,,,,,,,,,0,1,1,1,1,second,13,26,F,R,IMT,2021-07-18_13h03.17.068,ImageRatingTask_S5,2021.1.4,Win32,59.95203837,,,,,,,,,,,,,,,,,
,,,,,,,,,,,,0,2,2,2,1,third,13,26,F,R,IMT,2021-07-18_13h03.17.068,ImageRatingTask_S5,2021.1.4,Win32,59.95203837,,,,,,,,,,,,,,,,,
,,,,,,,,,,,,0,3,3,3,1,fourth,13,26,F,R,IMT,2021-07-18_13h03.17.068,ImageRatingTask_S5,2021.1.4,Win32,59.95203837,,,,,,,,,,,,,,,,,
,,,,,,,,,,,,0,4,4,4,1,fifth,13,26,F,R,IMT,2021-07-18_13h03.17.068,ImageRatingTask_S5,2021.1.4,Win32,59.95203837,,,,,,,,,,,,,,,,,
,,,,,,,,,,,,0,5,5,5,1,sixth,13,26,F,R,IMT,2021-07-18_13h03.17.068,ImageRatingTask_S5,2021.1.4,Win32,59.95203837,,,,,,,,,,,,,,,,,
,,,,,,,,,,,,0,6,6,6,1,seventh,13,26,F,R,IMT,2021-07-18_13h03.17.068,ImageRatingTask_S5,2021.1.4,Win32,59.95203837,,,,,,,,,,,,,,,,,
,,,,,,,,,,,,0,7,7,7,1,last,13,26,F,R,IMT,2021-07-18_13h03.17.068,ImageRatingTask_S5,2021.1.4,Win32,59.95203837,,,,,,,,,,,,,,,,,
,,,,,,,,,,,,,,,,,,13,26,F,R,IMT,2021-07-18_13h03.17.068,ImageRatingTask_S5,2021.1.4,Win32,59.95203837,0,11,11,102,1,DreamStudyImages_rs1000x750g/Children/Baby 5.jpg,,,,,,,,,,,
,,6,3.134,1,0.403,9,1.05,1,0.347,3,1.53,0,0,0,0,1,main,13,26,F,R,IMT,2021-07-18_13h03.17.068,ImageRatingTask_S5,2021.1.4,Win32,59.95203837,,,,,,,,,,,,,,,,,
,,,,,,,,,,,,0,1,1,1,1,second,13,26,F,R,IMT,2021-07-18_13h03.17.068,ImageRatingTask_S5,2021.1.4,Win32,59.95203837,,,,,,,,,,,,,,,,,
,,,,,,,,,,,,0,2,2,2,1,third,13,26,F,R,IMT,2021-07-18_13h03.17.068,ImageRatingTask_S5,2021.1.4,Win32,59.95203837,,,,,,,,,,,,,,,,,
,,,,,,,,,,,,0,3,3,3,1,fourth,13,26,F,R,IMT,2021-07-18_13h03.17.068,ImageRatingTask_S5,2021.1.4,Win32,59.95203837,,,,,,,,,,,,,,,,,
,,,,,,,,,,,,0,4,4,4,1,fifth,13,26,F,R,IMT,2021-07-18_13h03.17.068,ImageRatingTask_S5,2021.1.4,Win32,59.95203837,,,,,,,,,,,,,,,,,
,,,,,,,,,,,,0,5,5,5,1,sixth,13,26,F,R,IMT,2021-07-18_13h03.17.068,ImageRatingTask_S5,2021.1.4,Win32,59.95203837,,,,,,,,,,,,,,,,,
,,,,,,,,,,,,0,6,6,6,1,seventh,13,26,F,R,IMT,2021-07-18_13h03.17.068,ImageRatingTask_S5,2021.1.4,Win32,59.95203837,,,,,,,,,,,,,,,,,
,,,,,,,,,,,,0,7,7,7,1,last,13,26,F,R,IMT,2021-07-18_13h03.17.068,ImageRatingTask_S5,2021.1.4,Win32,59.95203837,,,,,,,,,,,,,,,,,
,,,,,,,,,,,,,,,,,,13,26,F,R,IMT,2021-07-18_13h03.17.068,ImageRatingTask_S5,2021.1.4,Win32,59.95203837,0,12,12,154,1,DreamStudyImages_rs1000x750g/Mammals/1350.jpg,,,,,,,,,,,
,,5,1.404,1,0.685,9,0.966,1,0.535,5,2.065,0,0,0,0,1,main,13,26,F,R,IMT,2021-07-18_13h03.17.068,ImageRatingTask_S5,2021.1.4,Win32,59.95203837,,,,,,,,,,,,,,,,,
,,,,,,,,,,,,0,1,1,1,1,second,13,26,F,R,IMT,2021-07-18_13h03.17.068,ImageRatingTask_S5,2021.1.4,Win32,59.95203837,,,,,,,,,,,,,,,,,
,,,,,,,,,,,,0,2,2,2,1,third,13,26,F,R,IMT,2021-07-18_13h03.17.068,ImageRatingTask_S5,2021.1.4,Win32,59.95203837,,,,,,,,,,,,,,,,,
,,,,,,,,,,,,0,3,3,3,1,fourth,13,26,F,R,IMT,2021-07-18_13h03.17.068,ImageRatingTask_S5,2021.1.4,Win32,59.95203837,,,,,,,,,,,,,,,,,
,,,,,,,,,,,,0,4,4,4,1,fifth,13,26,F,R,IMT,2021-07-18_13h03.17.068,ImageRatingTask_S5,2021.1.4,Win32,59.95203837,,,,,,,,,,,,,,,,,
,,,,,,,,,,,,0,5,5,5,1,sixth,13,26,F,R,IMT,2021-07-18_13h03.17.068,ImageRatingTask_S5,2021.1.4,Win32,59.95203837,,,,,,,,,,,,,,,,,
,,,,,,,,,,,,0,6,6,6,1,seventh,13,26,F,R,IMT,2021-07-18_13h03.17.068,ImageRatingTask_S5,2021.1.4,Win32,59.95203837,,,,,,,,,,,,,,,,,
,,,,,,,,,,,,0,7,7,7,1,last,13,26,F,R,IMT,2021-07-18_13h03.17.068,ImageRatingTask_S5,2021.1.4,Win32,59.95203837,,,,,,,,,,,,,,,,,
,,,,,,,,,,,,,,,,,,13,26,F,R,IMT,2021-07-18_13h03.17.068,ImageRatingTask_S5,2021.1.4,Win32,59.95203837,0,13,13,116,1,DreamStudyImages_rs1000x750g/Food/Objects_083_h.jpg,,,,,,,,,,,
,,5,2.345,1,0.187,9,0.951,1,0.714,7,0.981,0,0,0,0,1,main,13,26,F,R,IMT,2021-07-18_13h03.17.068,ImageRatingTask_S5,2021.1.4,Win32,59.95203837,,,,,,,,,,,,,,,,,
,,,,,,,,,,,,0,1,1,1,1,second,13,26,F,R,IMT,2021-07-18_13h03.17.068,ImageRatingTask_S5,2021.1.4,Win32,59.95203837,,,,,,,,,,,,,,,,,
,,,,,,,,,,,,0,2,2,2,1,third,13,26,F,R,IMT,2021-07-18_13h03.17.068,ImageRatingTask_S5,2021.1.4,Win32,59.95203837,,,,,,,,,,,,,,,,,
,,,,,,,,,,,,0,3,3,3,1,fourth,13,26,F,R,IMT,2021-07-18_13h03.17.068,ImageRatingTask_S5,2021.1.4,Win32,59.95203837,,,,,,,,,,,,,,,,,
,,,,,,,,,,,,0,4,4,4,1,fifth,13,26,F,R,IMT,2021-07-18_13h03.17.068,ImageRatingTask_S5,2021.1.4,Win32,59.95203837,,,,,,,,,,,,,,,,,
,,,,,,,,,,,,0,5,5,5,1,sixth,13,26,F,R,IMT,2021-07-18_13h03.17.068,ImageRatingTask_S5,2021.1.4,Win32,59.95203837,,,,,,,,,,,,,,,,,
,,,,,,,,,,,,0,6,6,6,1,seventh,13,26,F,R,IMT,2021-07-18_13h03.17.068,ImageRatingTask_S5,2021.1.4,Win32,59.95203837,,,,,,,,,,,,,,,,,
,,,,,,,,,,,,0,7,7,7,1,last,13,26,F,R,IMT,2021-07-18_13h03.17.068,ImageRatingTask_S5,2021.1.4,Win32,59.95203837,,,,,,,,,,,,,,,,,
,,,,,,,,,,,,,,,,,,13,26,F,R,IMT,2021-07-18_13h03.17.068,ImageRatingTask_S5,2021.1.4,Win32,59.95203837,0,14,14,49,1,DreamStudyImages_rs1000x750g/Vehicles/roadrailvehicle.jpg,,,,,,,,,,,
,,4,5.521,1,0.754,9,1.45,1,0.369,6,1.175,0,0,0,0,1,main,13,26,F,R,IMT,2021-07-18_13h03.17.068,ImageRatingTask_S5,2021.1.4,Win32,59.95203837,,,,,,,,,,,,,,,,,
,,,,,,,,,,,,0,1,1,1,1,second,13,26,F,R,IMT,2021-07-18_13h03.17.068,ImageRatingTask_S5,2021.1.4,Win32,59.95203837,,,,,,,,,,,,,,,,,
,,,,,,,,,,,,0,2,2,2,1,third,13,26,F,R,IMT,2021-07-18_13h03.17.068,ImageRatingTask_S5,2021.1.4,Win32,59.95203837,,,,,,,,,,,,,,,,,
,,,,,,,,,,,,0,3,3,3,1,fourth,13,26,F,R,IMT,2021-07-18_13h03.17.068,ImageRatingTask_S5,2021.1.4,Win32,59.95203837,,,,,,,,,,,,,,,,,
,,,,,,,,,,,,0,4,4,4,1,fifth,13,26,F,R,IMT,2021-07-18_13h03.17.068,ImageRatingTask_S5,2021.1.4,Win32,59.95203837,,,,,,,,,,,,,,,,,
,,,,,,,,,,,,0,5,5,5,1,sixth,13,26,F,R,IMT,2021-07-18_13h03.17.068,ImageRatingTask_S5,2021.1.4,Win32,59.95203837,,,,,,,,,,,,,,,,,
,,,,,,,,,,,,0,6,6,6,1,seventh,13,26,F,R,IMT,2021-07-18_13h03.17.068,ImageRatingTask_S5,2021.1.4,Win32,59.95203837,,,,,,,,,,,,,,,,,
,,,,,,,,,,,,0,7,7,7,1,last,13,26,F,R,IMT,2021-07-18_13h03.17.068,ImageRatingTask_S5,2021.1.4,Win32,59.95203837,,,,,,,,,,,,,,,,,
,,,,,,,,,,,,,,,,,,13,26,F,R,IMT,2021-07-18_13h03.17.068,ImageRatingTask_S5,2021.1.4,Win32,59.95203837,0,15,15,65,1,DreamStudyImages_rs1000x750g/Houses/Landscapes_079_v.jpg,,,,,,,,,,,
,,5,2.601,1,0.269,8,2.319,1,0.312,6,1.83,0,0,0,0,1,main,13,26,F,R,IMT,2021-07-18_13h03.17.068,ImageRatingTask_S5,2021.1.4,Win32,59.95203837,,,,,,,,,,,,,,,,,
,,,,,,,,,,,,0,1,1,1,1,second,13,26,F,R,IMT,2021-07-18_13h03.17.068,ImageRatingTask_S5,2021.1.4,Win32,59.95203837,,,,,,,,,,,,,,,,,
,,,,,,,,,,,,0,2,2,2,1,third,13,26,F,R,IMT,2021-07-18_13h03.17.068,ImageRatingTask_S5,2021.1.4,Win32,59.95203837,,,,,,,,,,,,,,,,,
,,,,,,,,,,,,0,3,3,3,1,fourth,13,26,F,R,IMT,2021-07-18_13h03.17.068,ImageRatingTask_S5,2021.1.4,Win32,59.95203837,,,,,,,,,,,,,,,,,
,,,,,,,,,,,,0,4,4,4,1,fifth,13,26,F,R,IMT,2021-07-18_13h03.17.068,ImageRatingTask_S5,2021.1.4,Win32,59.95203837,,,,,,,,,,,,,,,,,
,,,,,,,,,,,,0,5,5,5,1,sixth,13,26,F,R,IMT,2021-07-18_13h03.17.068,ImageRatingTask_S5,2021.1.4,Win32,59.95203837,,,,,,,,,,,,,,,,,
,,,,,,,,,,,,0,6,6,6,1,seventh,13,26,F,R,IMT,2021-07-18_13h03.17.068,ImageRatingTask_S5,2021.1.4,Win32,59.95203837,,,,,,,,,,,,,,,,,
,,,,,,,,,,,,0,7,7,7,1,last,13,26,F,R,IMT,2021-07-18_13h03.17.068,ImageRatingTask_S5,2021.1.4,Win32,59.95203837,,,,,,,,,,,,,,,,,
,,,,,,,,,,,,,,,,,,13,26,F,R,IMT,2021-07-18_13h03.17.068,ImageRatingTask_S5,2021.1.4,Win32,59.95203837,0,16,16,141,1,DreamStudyImages_rs1000x750g/Houses/whitehouse.jpg,,,,,,,,,,,
,,4,2.437,3,1.342,9,1.279,1,0.853,2,0.595,0,0,0,0,1,main,13,26,F,R,IMT,2021-07-18_13h03.17.068,ImageRatingTask_S5,2021.1.4,Win32,59.95203837,,,,,,,,,,,,,,,,,
,,,,,,,,,,,,0,1,1,1,1,second,13,26,F,R,IMT,2021-07-18_13h03.17.068,ImageRatingTask_S5,2021.1.4,Win32,59.95203837,,,,,,,,,,,,,,,,,
,,,,,,,,,,,,0,2,2,2,1,third,13,26,F,R,IMT,2021-07-18_13h03.17.068,ImageRatingTask_S5,2021.1.4,Win32,59.95203837,,,,,,,,,,,,,,,,,
,,,,,,,,,,,,0,3,3,3,1,fourth,13,26,F,R,IMT,2021-07-18_13h03.17.068,ImageRatingTask_S5,2021.1.4,Win32,59.95203837,,,,,,,,,,,,,,,,,
,,,,,,,,,,,,0,4,4,4,1,fifth,13,26,F,R,IMT,2021-07-18_13h03.17.068,ImageRatingTask_S5,2021.1.4,Win32,59.95203837,,,,,,,,,,,,,,,,,
,,,,,,,,,,,,0,5,5,5,1,sixth,13,26,F,R,IMT,2021-07-18_13h03.17.068,ImageRatingTask_S5,2021.1.4,Win32,59.95203837,,,,,,,,,,,,,,,,,
,,,,,,,,,,,,0,6,6,6,1,seventh,13,26,F,R,IMT,2021-07-18_13h03.17.068,ImageRatingTask_S5,2021.1.4,Win32,59.95203837,,,,,,,,,,,,,,,,,
,,,,,,,,,,,,0,7,7,7,1,last,13,26,F,R,IMT,2021-07-18_13h03.17.068,ImageRatingTask_S5,2021.1.4,Win32,59.95203837,,,,,,,,,,,,,,,,,
,,,,,,,,,,,,,,,,,,13,26,F,R,IMT,2021-07-18_13h03.17.068,ImageRatingTask_S5,2021.1.4,Win32,59.95203837,0,17,17,13,1,DreamStudyImages_rs1000x750g/Children/People_040_h.jpg,,,,,,,,,,,
,,3,3.521,5,0.99,8,3.517,2,1.084,8,3.713,0,0,0,0,1,main,13,26,F,R,IMT,2021-07-18_13h03.17.068,ImageRatingTask_S5,2021.1.4,Win32,59.95203837,,,,,,,,,,,,,,,,,
,,,,,,,,,,6,0.418,0,1,1,1,1,second,13,26,F,R,IMT,2021-07-18_13h03.17.068,ImageRatingTask_S5,2021.1.4,Win32,59.95203837,,,,,,,,,,,,,,,,,
,,,,,,,,,,,,0,2,2,2,1,third,13,26,F,R,IMT,2021-07-18_13h03.17.068,ImageRatingTask_S5,2021.1.4,Win32,59.95203837,,,,,,,,,,,,,,,,,
,,,,,,,,,,,,0,3,3,3,1,fourth,13,26,F,R,IMT,2021-07-18_13h03.17.068,ImageRatingTask_S5,2021.1.4,Win32,59.95203837,,,,,,,,,,,,,,,,,
,,,,,,,,,,,,0,4,4,4,1,fifth,13,26,F,R,IMT,2021-07-18_13h03.17.068,ImageRatingTask_S5,2021.1.4,Win32,59.95203837,,,,,,,,,,,,,,,,,
,,,,,,,,,,,,0,5,5,5,1,sixth,13,26,F,R,IMT,2021-07-18_13h03.17.068,ImageRatingTask_S5,2021.1.4,Win32,59.95203837,,,,,,,,,,,,,,,,,
,,,,,,,,,,,,0,6,6,6,1,seventh,13,26,F,R,IMT,2021-07-18_13h03.17.068,ImageRatingTask_S5,2021.1.4,Win32,59.95203837,,,,,,,,,,,,,,,,,
,,,,,,,,,,,,0,7,7,7,1,last,13,26,F,R,IMT,2021-07-18_13h03.17.068,ImageRatingTask_S5,2021.1.4,Win32,59.95203837,,,,,,,,,,,,,,,,,
,,,,,,,,,,,,,,,,,,13,26,F,R,IMT,2021-07-18_13h03.17.068,ImageRatingTask_S5,2021.1.4,Win32,59.95203837,0,18,18,125,1,DreamStudyImages_rs1000x750g/Water/16_CHECK.jpg,,,,,,,,,,,
,,5,1.674,1,0.153,8,1.131,1,0.365,3,4.278,0,0,0,0,1,main,13,26,F,R,IMT,2021-07-18_13h03.17.068,ImageRatingTask_S5,2021.1.4,Win32,59.95203837,,,,,,,,,,,,,,,,,
,,,,,,,,,,,,0,1,1,1,1,second,13,26,F,R,IMT,2021-07-18_13h03.17.068,ImageRatingTask_S5,2021.1.4,Win32,59.95203837,,,,,,,,,,,,,,,,,
,,,,,,,,,,,,0,2,2,2,1,third,13,26,F,R,IMT,2021-07-18_13h03.17.068,ImageRatingTask_S5,2021.1.4,Win32,59.95203837,,,,,,,,,,,,,,,,,
,,,,,,,,,,,,0,3,3,3,1,fourth,13,26,F,R,IMT,2021-07-18_13h03.17.068,ImageRatingTask_S5,2021.1.4,Win32,59.95203837,,,,,,,,,,,,,,,,,
,,,,,,,,,,,,0,4,4,4,1,fifth,13,26,F,R,IMT,2021-07-18_13h03.17.068,ImageRatingTask_S5,2021.1.4,Win32,59.95203837,,,,,,,,,,,,,,,,,
,,,,,,,,,,,,0,5,5,5,1,sixth,13,26,F,R,IMT,2021-07-18_13h03.17.068,ImageRatingTask_S5,2021.1.4,Win32,59.95203837,,,,,,,,,,,,,,,,,
,,,,,,,,,,,,0,6,6,6,1,seventh,13,26,F,R,IMT,2021-07-18_13h03.17.068,ImageRatingTask_S5,2021.1.4,Win32,59.95203837,,,,,,,,,,,,,,,,,
,,,,,,,,,,,,0,7,7,7,1,last,13,26,F,R,IMT,2021-07-18_13h03.17.068,ImageRatingTask_S5,2021.1.4,Win32,59.95203837,,,,,,,,,,,,,,,,,
,,,,,,,,,,,,,,,,,,13,26,F,R,IMT,2021-07-18_13h03.17.068,ImageRatingTask_S5,2021.1.4,Win32,59.95203837,0,19,19,72,1,DreamStudyImages_rs1000x750g/Mammals/Cat 10.jpg,,,,,,,,,,,
,,5,2.964,2,1.438,9,1.898,1,0.716,6,0.85,0,0,0,0,1,main,13,26,F,R,IMT,2021-07-18_13h03.17.068,ImageRatingTask_S5,2021.1.4,Win32,59.95203837,,,,,,,,,,,,,,,,,
,,,,,,,,,,,,0,1,1,1,1,second,13,26,F,R,IMT,2021-07-18_13h03.17.068,ImageRatingTask_S5,2021.1.4,Win32,59.95203837,,,,,,,,,,,,,,,,,
,,,,,,,,,,,,0,2,2,2,1,third,13,26,F,R,IMT,2021-07-18_13h03.17.068,ImageRatingTask_S5,2021.1.4,Win32,59.95203837,,,,,,,,,,,,,,,,,
,,,,,,,,,,,,0,3,3,3,1,fourth,13,26,F,R,IMT,2021-07-18_13h03.17.068,ImageRatingTask_S5,2021.1.4,Win32,59.95203837,,,,,,,,,,,,,,,,,
,,,,,,,,,,,,0,4,4,4,1,fifth,13,26,F,R,IMT,2021-07-18_13h03.17.068,ImageRatingTask_S5,2021.1.4,Win32,59.95203837,,,,,,,,,,,,,,,,,
,,,,,,,,,,,,0,5,5,5,1,sixth,13,26,F,R,IMT,2021-07-18_13h03.17.068,ImageRatingTask_S5,2021.1.4,Win32,59.95203837,,,,,,,,,,,,,,,,,
,,,,,,,,,,,,0,6,6,6,1,seventh,13,26,F,R,IMT,2021-07-18_13h03.17.068,ImageRatingTask_S5,2021.1.4,Win32,59.95203837,,,,,,,,,,,,,,,,,
,,,,,,,,,,,,0,7,7,7,1,last,13,26,F,R,IMT,2021-07-18_13h03.17.068,ImageRatingTask_S5,2021.1.4,Win32,59.95203837,,,,,,,,,,,,,,,,,
,,,,,,,,,,,,,,,,,,13,26,F,R,IMT,2021-07-18_13h03.17.068,ImageRatingTask_S5,2021.1.4,Win32,59.95203837,0,20,20,71,1,DreamStudyImages_rs1000x750g/Houses/abandonedhouse.jpg,,,,,,,,,,,
,,4,1.419,2,0.838,7,1.098,1,0.434,3,3.028,0,0,0,0,1,main,13,26,F,R,IMT,2021-07-18_13h03.17.068,ImageRatingTask_S5,2021.1.4,Win32,59.95203837,,,,,,,,,,,,,,,,,
,,,,,,,,,,,,0,1,1,1,1,second,13,26,F,R,IMT,2021-07-18_13h03.17.068,ImageRatingTask_S5,2021.1.4,Win32,59.95203837,,,,,,,,,,,,,,,,,
,,,,,,,,,,,,0,2,2,2,1,third,13,26,F,R,IMT,2021-07-18_13h03.17.068,ImageRatingTask_S5,2021.1.4,Win32,59.95203837,,,,,,,,,,,,,,,,,
,,,,,,,,,,,,0,3,3,3,1,fourth,13,26,F,R,IMT,2021-07-18_13h03.17.068,ImageRatingTask_S5,2021.1.4,Win32,59.95203837,,,,,,,,,,,,,,,,,
,,,,,,,,,,,,0,4,4,4,1,fifth,13,26,F,R,IMT,2021-07-18_13h03.17.068,ImageRatingTask_S5,2021.1.4,Win32,59.95203837,,,,,,,,,,,,,,,,,
,,,,,,,,,,,,0,5,5,5,1,sixth,13,26,F,R,IMT,2021-07-18_13h03.17.068,ImageRatingTask_S5,2021.1.4,Win32,59.95203837,,,,,,,,,,,,,,,,,
,,,,,,,,,,,,0,6,6,6,1,seventh,13,26,F,R,IMT,2021-07-18_13h03.17.068,ImageRatingTask_S5,2021.1.4,Win32,59.95203837,,,,,,,,,,,,,,,,,
,,,,,,,,,,,,0,7,7,7,1,last,13,26,F,R,IMT,2021-07-18_13h03.17.068,ImageRatingTask_S5,2021.1.4,Win32,59.95203837,,,,,,,,,,,,,,,,,
,,,,,,,,,,,,,,,,,,13,26,F,R,IMT,2021-07-18_13h03.17.068,ImageRatingTask_S5,2021.1.4,Win32,59.95203837,0,21,21,105,1,DreamStudyImages_rs1000x750g/Mammals/IAPS1302_dog3.jpg,,,,,,,,,,,
,,5,1.685,1,0.718,8,0.92,1,0.584,5,0.647,0,0,0,0,1,main,13,26,F,R,IMT,2021-07-18_13h03.17.068,ImageRatingTask_S5,2021.1.4,Win32,59.95203837,,,,,,,,,,,,,,,,,
,,,,,,,,,,,,0,1,1,1,1,second,13,26,F,R,IMT,2021-07-18_13h03.17.068,ImageRatingTask_S5,2021.1.4,Win32,59.95203837,,,,,,,,,,,,,,,,,
,,,,,,,,,,,,0,2,2,2,1,third,13,26,F,R,IMT,2021-07-18_13h03.17.068,ImageRatingTask_S5,2021.1.4,Win32,59.95203837,,,,,,,,,,,,,,,,,
,,,,,,,,,,,,0,3,3,3,1,fourth,13,26,F,R,IMT,2021-07-18_13h03.17.068,ImageRatingTask_S5,2021.1.4,Win32,59.95203837,,,,,,,,,,,,,,,,,
,,,,,,,,,,,,0,4,4,4,1,fifth,13,26,F,R,IMT,2021-07-18_13h03.17.068,ImageRatingTask_S5,2021.1.4,Win32,59.95203837,,,,,,,,,,,,,,,,,
,,,,,,,,,,,,0,5,5,5,1,sixth,13,26,F,R,IMT,2021-07-18_13h03.17.068,ImageRatingTask_S5,2021.1.4,Win32,59.95203837,,,,,,,,,,,,,,,,,
,,,,,,,,,,,,0,6,6,6,1,seventh,13,26,F,R,IMT,2021-07-18_13h03.17.068,ImageRatingTask_S5,2021.1.4,Win32,59.95203837,,,,,,,,,,,,,,,,,
,,,,,,,,,,,,0,7,7,7,1,last,13,26,F,R,IMT,2021-07-18_13h03.17.068,ImageRatingTask_S5,2021.1.4,Win32,59.95203837,,,,,,,,,,,,,,,,,
,,,,,,,,,,,,,,,,,,13,26,F,R,IMT,2021-07-18_13h03.17.068,ImageRatingTask_S5,2021.1.4,Win32,59.95203837,0,22,22,110,1,DreamStudyImages_rs1000x750g/Food/Objects_082_h.jpg,,,,,,,,,,,
,,5,0.983,2,1.087,9,1.998,1,0.766,6,0.763,0,0,0,0,1,main,13,26,F,R,IMT,2021-07-18_13h03.17.068,ImageRatingTask_S5,2021.1.4,Win32,59.95203837,,,,,,,,,,,,,,,,,
,,,,,,,,,,,,0,1,1,1,1,second,13,26,F,R,IMT,2021-07-18_13h03.17.068,ImageRatingTask_S5,2021.1.4,Win32,59.95203837,,,,,,,,,,,,,,,,,
,,,,,,,,,,,,0,2,2,2,1,third,13,26,F,R,IMT,2021-07-18_13h03.17.068,ImageRatingTask_S5,2021.1.4,Win32,59.95203837,,,,,,,,,,,,,,,,,
,,,,,,,,,,,,0,3,3,3,1,fourth,13,26,F,R,IMT,2021-07-18_13h03.17.068,ImageRatingTask_S5,2021.1.4,Win32,59.95203837,,,,,,,,,,,,,,,,,
,,,,,,,,,,,,0,4,4,4,1,fifth,13,26,F,R,IMT,2021-07-18_13h03.17.068,ImageRatingTask_S5,2021.1.4,Win32,59.95203837,,,,,,,,,,,,,,,,,
,,,,,,,,,,,,0,5,5,5,1,sixth,13,26,F,R,IMT,2021-07-18_13h03.17.068,ImageRatingTask_S5,2021.1.4,Win32,59.95203837,,,,,,,,,,,,,,,,,
,,,,,,,,,,,,0,6,6,6,1,seventh,13,26,F,R,IMT,2021-07-18_13h03.17.068,ImageRatingTask_S5,2021.1.4,Win32,59.95203837,,,,,,,,,,,,,,,,,
,,,,,,,,,,,,0,7,7,7,1,last,13,26,F,R,IMT,2021-07-18_13h03.17.068,ImageRatingTask_S5,2021.1.4,Win32,59.95203837,,,,,,,,,,,,,,,,,
,,,,,,,,,,,,,,,,,,13,26,F,R,IMT,2021-07-18_13h03.17.068,ImageRatingTask_S5,2021.1.4,Win32,59.95203837,0,23,23,104,1,DreamStudyImages_rs1000x750g/Houses/Landscapes_092_h.jpg,,,,,,,,,,,
,,5,1.689,1,1.224,8,2.299,1,0.648,7,1.325,0,0,0,0,1,main,13,26,F,R,IMT,2021-07-18_13h03.17.068,ImageRatingTask_S5,2021.1.4,Win32,59.95203837,,,,,,,,,,,,,,,,,
,,,,,,,,,,,,0,1,1,1,1,second,13,26,F,R,IMT,2021-07-18_13h03.17.068,ImageRatingTask_S5,2021.1.4,Win32,59.95203837,,,,,,,,,,,,,,,,,
,,,,,,,,,,,,0,2,2,2,1,third,13,26,F,R,IMT,2021-07-18_13h03.17.068,ImageRatingTask_S5,2021.1.4,Win32,59.95203837,,,,,,,,,,,,,,,,,
,,,,,,,,,,,,0,3,3,3,1,fourth,13,26,F,R,IMT,2021-07-18_13h03.17.068,ImageRatingTask_S5,2021.1.4,Win32,59.95203837,,,,,,,,,,,,,,,,,
,,,,,,,,,,,,0,4,4,4,1,fifth,13,26,F,R,IMT,2021-07-18_13h03.17.068,ImageRatingTask_S5,2021.1.4,Win32,59.95203837,,,,,,,,,,,,,,,,,
,,,,,,,,,,,,0,5,5,5,1,sixth,13,26,F,R,IMT,2021-07-18_13h03.17.068,ImageRatingTask_S5,2021.1.4,Win32,59.95203837,,,,,,,,,,,,,,,,,
,,,,,,,,,,,,0,6,6,6,1,seventh,13,26,F,R,IMT,2021-07-18_13h03.17.068,ImageRatingTask_S5,2021.1.4,Win32,59.95203837,,,,,,,,,,,,,,,,,
,,,,,,,,,,,,0,7,7,7,1,last,13,26,F,R,IMT,2021-07-18_13h03.17.068,ImageRatingTask_S5,2021.1.4,Win32,59.95203837,,,,,,,,,,,,,,,,,
,,,,,,,,,,,,,,,,,,13,26,F,R,IMT,2021-07-18_13h03.17.068,ImageRatingTask_S5,2021.1.4,Win32,59.95203837,0,24,24,120,1,DreamStudyImages_rs1000x750g/Vehicles/Ambulance 2.jpg,,,,,,,,,,,
,,3,2.657,7,1.787,8,5.318,1,0.667,8,1.478,0,0,0,0,1,main,13,26,F,R,IMT,2021-07-18_13h03.17.068,ImageRatingTask_S5,2021.1.4,Win32,59.95203837,,,,,,,,,,,,,,,,,
,,,,,,,,,,,,0,1,1,1,1,second,13,26,F,R,IMT,2021-07-18_13h03.17.068,ImageRatingTask_S5,2021.1.4,Win32,59.95203837,,,,,,,,,,,,,,,,,
,,,,,,,,,,,,0,2,2,2,1,third,13,26,F,R,IMT,2021-07-18_13h03.17.068,ImageRatingTask_S5,2021.1.4,Win32,59.95203837,,,,,,,,,,,,,,,,,
,,,,,,,,,,,,0,3,3,3,1,fourth,13,26,F,R,IMT,2021-07-18_13h03.17.068,ImageRatingTask_S5,2021.1.4,Win32,59.95203837,,,,,,,,,,,,,,,,,
,,,,,,,,,,,,0,4,4,4,1,fifth,13,26,F,R,IMT,2021-07-18_13h03.17.068,ImageRatingTask_S5,2021.1.4,Win32,59.95203837,,,,,,,,,,,,,,,,,
,,,,,,,,,,,,0,5,5,5,1,sixth,13,26,F,R,IMT,2021-07-18_13h03.17.068,ImageRatingTask_S5,2021.1.4,Win32,59.95203837,,,,,,,,,,,,,,,,,
,,,,,,,,,,,,0,6,6,6,1,seventh,13,26,F,R,IMT,2021-07-18_13h03.17.068,ImageRatingTask_S5,2021.1.4,Win32,59.95203837,,,,,,,,,,,,,,,,,
,,,,,,,,,,,,0,7,7,7,1,last,13,26,F,R,IMT,2021-07-18_13h03.17.068,ImageRatingTask_S5,2021.1.4,Win32,59.95203837,,,,,,,,,,,,,,,,,
,,,,,,,,,,,,,,,,,,13,26,F,R,IMT,2021-07-18_13h03.17.068,ImageRatingTask_S5,2021.1.4,Win32,59.95203837,0,25,25,12,1,DreamStudyImages_rs1000x750g/Water/99_CHECK.jpg,,,,,,,,,,,
,,6,1.959,5,1.683,9,4.083,1,0.302,3,2.363,0,0,0,0,1,main,13,26,F,R,IMT,2021-07-18_13h03.17.068,ImageRatingTask_S5,2021.1.4,Win32,59.95203837,,,,,,,,,,,,,,,,,
,,,,,,,,,,,,0,1,1,1,1,second,13,26,F,R,IMT,2021-07-18_13h03.17.068,ImageRatingTask_S5,2021.1.4,Win32,59.95203837,,,,,,,,,,,,,,,,,
,,,,,,,,,,,,0,2,2,2,1,third,13,26,F,R,IMT,2021-07-18_13h03.17.068,ImageRatingTask_S5,2021.1.4,Win32,59.95203837,,,,,,,,,,,,,,,,,
,,,,,,,,,,,,0,3,3,3,1,fourth,13,26,F,R,IMT,2021-07-18_13h03.17.068,ImageRatingTask_S5,2021.1.4,Win32,59.95203837,,,,,,,,,,,,,,,,,
,,,,,,,,,,,,0,4,4,4,1,fifth,13,26,F,R,IMT,2021-07-18_13h03.17.068,ImageRatingTask_S5,2021.1.4,Win32,59.95203837,,,,,,,,,,,,,,,,,
,,,,,,,,,,,,0,5,5,5,1,sixth,13,26,F,R,IMT,2021-07-18_13h03.17.068,ImageRatingTask_S5,2021.1.4,Win32,59.95203837,,,,,,,,,,,,,,,,,
,,,,,,,,,,,,0,6,6,6,1,seventh,13,26,F,R,IMT,2021-07-18_13h03.17.068,ImageRatingTask_S5,2021.1.4,Win32,59.95203837,,,,,,,,,,,,,,,,,
,,,,,,,,,,,,0,7,7,7,1,last,13,26,F,R,IMT,2021-07-18_13h03.17.068,ImageRatingTask_S5,2021.1.4,Win32,59.95203837,,,,,,,,,,,,,,,,,
,,,,,,,,,,,,,,,,,,13,26,F,R,IMT,2021-07-18_13h03.17.068,ImageRatingTask_S5,2021.1.4,Win32,59.95203837,0,26,26,112,1,DreamStudyImages_rs1000x750g/Mammals/Animals_191_h.jpg,,,,,,,,,,,
,,5,3.858,1,0.372,9,1.75,1,0.882,7,0.931,0,0,0,0,1,main,13,26,F,R,IMT,2021-07-18_13h03.17.068,ImageRatingTask_S5,2021.1.4,Win32,59.95203837,,,,,,,,,,,,,,,,,
,,,,,,,,,,,,0,1,1,1,1,second,13,26,F,R,IMT,2021-07-18_13h03.17.068,ImageRatingTask_S5,2021.1.4,Win32,59.95203837,,,,,,,,,,,,,,,,,
,,,,,,,,,,,,0,2,2,2,1,third,13,26,F,R,IMT,2021-07-18_13h03.17.068,ImageRatingTask_S5,2021.1.4,Win32,59.95203837,,,,,,,,,,,,,,,,,
,,,,,,,,,,,,0,3,3,3,1,fourth,13,26,F,R,IMT,2021-07-18_13h03.17.068,ImageRatingTask_S5,2021.1.4,Win32,59.95203837,,,,,,,,,,,,,,,,,
,,,,,,,,,,,,0,4,4,4,1,fifth,13,26,F,R,IMT,2021-07-18_13h03.17.068,ImageRatingTask_S5,2021.1.4,Win32,59.95203837,,,,,,,,,,,,,,,,,
,,,,,,,,,,,,0,5,5,5,1,sixth,13,26,F,R,IMT,2021-07-18_13h03.17.068,ImageRatingTask_S5,2021.1.4,Win32,59.95203837,,,,,,,,,,,,,,,,,
,,,,,,,,,,,,0,6,6,6,1,seventh,13,26,F,R,IMT,2021-07-18_13h03.17.068,ImageRatingTask_S5,2021.1.4,Win32,59.95203837,,,,,,,,,,,,,,,,,
,,,,,,,,,,,,0,7,7,7,1,last,13,26,F,R,IMT,2021-07-18_13h03.17.068,ImageRatingTask_S5,2021.1.4,Win32,59.95203837,,,,,,,,,,,,,,,,,
,,,,,,,,,,,,,,,,,,13,26,F,R,IMT,2021-07-18_13h03.17.068,ImageRatingTask_S5,2021.1.4,Win32,59.95203837,0,27,27,6,1,DreamStudyImages_rs1000x750g/Vehicles/Objects_282_h.jpg,,,,,,,,,,,
,,6,2.016,2,0.738,8,1.872,1,0.404,3,0.696,0,0,0,0,1,main,13,26,F,R,IMT,2021-07-18_13h03.17.068,ImageRatingTask_S5,2021.1.4,Win32,59.95203837,,,,,,,,,,,,,,,,,
,,,,,,,,,,,,0,1,1,1,1,second,13,26,F,R,IMT,2021-07-18_13h03.17.068,ImageRatingTask_S5,2021.1.4,Win32,59.95203837,,,,,,,,,,,,,,,,,
,,,,,,,,,,,,0,2,2,2,1,third,13,26,F,R,IMT,2021-07-18_13h03.17.068,ImageRatingTask_S5,2021.1.4,Win32,59.95203837,,,,,,,,,,,,,,,,,
,,,,,,,,,,,,0,3,3,3,1,fourth,13,26,F,R,IMT,2021-07-18_13h03.17.068,ImageRatingTask_S5,2021.1.4,Win32,59.95203837,,,,,,,,,,,,,,,,,
,,,,,,,,,,,,0,4,4,4,1,fifth,13,26,F,R,IMT,2021-07-18_13h03.17.068,ImageRatingTask_S5,2021.1.4,Win32,59.95203837,,,,,,,,,,,,,,,,,
,,,,,,,,,,,,0,5,5,5,1,sixth,13,26,F,R,IMT,2021-07-18_13h03.17.068,ImageRatingTask_S5,2021.1.4,Win32,59.95203837,,,,,,,,,,,,,,,,,
,,,,,,,,,,,,0,6,6,6,1,seventh,13,26,F,R,IMT,2021-07-18_13h03.17.068,ImageRatingTask_S5,2021.1.4,Win32,59.95203837,,,,,,,,,,,,,,,,,
,,,,,,,,,,,,0,7,7,7,1,last,13,26,F,R,IMT,2021-07-18_13h03.17.068,ImageRatingTask_S5,2021.1.4,Win32,59.95203837,,,,,,,,,,,,,,,,,
,,,,,,,,,,,,,,,,,,13,26,F,R,IMT,2021-07-18_13h03.17.068,ImageRatingTask_S5,2021.1.4,Win32,59.95203837,0,28,28,41,1,DreamStudyImages_rs1000x750g/Mammals/Monkey 3.jpg,,,,,,,,,,,
,,3,3.066,5,1.054,9,1.865,1,0.298,4,6.13,0,0,0,0,1,main,13,26,F,R,IMT,2021-07-18_13h03.17.068,ImageRatingTask_S5,2021.1.4,Win32,59.95203837,,,,,,,,,,,,,,,,,
,,,,,,,,,,,,0,1,1,1,1,second,13,26,F,R,IMT,2021-07-18_13h03.17.068,ImageRatingTask_S5,2021.1.4,Win32,59.95203837,,,,,,,,,,,,,,,,,
,,,,,,,,,,,,0,2,2,2,1,third,13,26,F,R,IMT,2021-07-18_13h03.17.068,ImageRatingTask_S5,2021.1.4,Win32,59.95203837,,,,,,,,,,,,,,,,,
,,,,,,,,,,,,0,3,3,3,1,fourth,13,26,F,R,IMT,2021-07-18_13h03.17.068,ImageRatingTask_S5,2021.1.4,Win32,59.95203837,,,,,,,,,,,,,,,,,
,,,,,,,,,,,,0,4,4,4,1,fifth,13,26,F,R,IMT,2021-07-18_13h03.17.068,ImageRatingTask_S5,2021.1.4,Win32,59.95203837,,,,,,,,,,,,,,,,,
,,,,,,,,,,,,0,5,5,5,1,sixth,13,26,F,R,IMT,2021-07-18_13h03.17.068,ImageRatingTask_S5,2021.1.4,Win32,59.95203837,,,,,,,,,,,,,,,,,
,,,,,,,,,,,,0,6,6,6,1,seventh,13,26,F,R,IMT,2021-07-18_13h03.17.068,ImageRatingTask_S5,2021.1.4,Win32,59.95203837,,,,,,,,,,,,,,,,,
,,,,,,,,,,,,0,7,7,7,1,last,13,26,F,R,IMT,2021-07-18_13h03.17.068,ImageRatingTask_S5,2021.1.4,Win32,59.95203837,,,,,,,,,,,,,,,,,
,,,,,,,,,,,,,,,,,,13,26,F,R,IMT,2021-07-18_13h03.17.068,ImageRatingTask_S5,2021.1.4,Win32,59.95203837,0,29,29,36,1,DreamStudyImages_rs1000x750g/Food/Objects_088_h.jpg,,,,,,,,,,,
,,6,4.522,1,0.657,9,3.267,1,0.565,3,0.514,0,0,0,0,1,main,13,26,F,R,IMT,2021-07-18_13h03.17.068,ImageRatingTask_S5,2021.1.4,Win32,59.95203837,,,,,,,,,,,,,,,,,
,,,,,,,,,,,,0,1,1,1,1,second,13,26,F,R,IMT,2021-07-18_13h03.17.068,ImageRatingTask_S5,2021.1.4,Win32,59.95203837,,,,,,,,,,,,,,,,,
,,,,,,,,,,,,0,2,2,2,1,third,13,26,F,R,IMT,2021-07-18_13h03.17.068,ImageRatingTask_S5,2021.1.4,Win32,59.95203837,,,,,,,,,,,,,,,,,
,,,,,,,,,,,,0,3,3,3,1,fourth,13,26,F,R,IMT,2021-07-18_13h03.17.068,ImageRatingTask_S5,2021.1.4,Win32,59.95203837,,,,,,,,,,,,,,,,,
,,,,,,,,,,,,0,4,4,4,1,fifth,13,26,F,R,IMT,2021-07-18_13h03.17.068,ImageRatingTask_S5,2021.1.4,Win32,59.95203837,,,,,,,,,,,,,,,,,
,,,,,,,,,,,,0,5,5,5,1,sixth,13,26,F,R,IMT,2021-07-18_13h03.17.068,ImageRatingTask_S5,2021.1.4,Win32,59.95203837,,,,,,,,,,,,,,,,,
,,,,,,,,,,,,0,6,6,6,1,seventh,13,26,F,R,IMT,2021-07-18_13h03.17.068,ImageRatingTask_S5,2021.1.4,Win32,59.95203837,,,,,,,,,,,,,,,,,
,,,,,,,,,,,,0,7,7,7,1,last,13,26,F,R,IMT,2021-07-18_13h03.17.068,ImageRatingTask_S5,2021.1.4,Win32,59.95203837,,,,,,,,,,,,,,,,,
,,,,,,,,,,,,,,,,,,13,26,F,R,IMT,2021-07-18_13h03.17.068,ImageRatingTask_S5,2021.1.4,Win32,59.95203837,0,30,30,148,1,DreamStudyImages_rs1000x750g/Mammals/Animals_202_h.jpg,,,,,,,,,,,
,,2,2.618,5,0.889,9,1.282,1,0.269,3,1.278,0,0,0,0,1,main,13,26,F,R,IMT,2021-07-18_13h03.17.068,ImageRatingTask_S5,2021.1.4,Win32,59.95203837,,,,,,,,,,,,,,,,,
,,,,,,,,,,,,0,1,1,1,1,second,13,26,F,R,IMT,2021-07-18_13h03.17.068,ImageRatingTask_S5,2021.1.4,Win32,59.95203837,,,,,,,,,,,,,,,,,
,,,,,,,,,,,,0,2,2,2,1,third,13,26,F,R,IMT,2021-07-18_13h03.17.068,ImageRatingTask_S5,2021.1.4,Win32,59.95203837,,,,,,,,,,,,,,,,,
,,,,,,,,,,,,0,3,3,3,1,fourth,13,26,F,R,IMT,2021-07-18_13h03.17.068,ImageRatingTask_S5,2021.1.4,Win32,59.95203837,,,,,,,,,,,,,,,,,
,,,,,,,,,,,,0,4,4,4,1,fifth,13,26,F,R,IMT,2021-07-18_13h03.17.068,ImageRatingTask_S5,2021.1.4,Win32,59.95203837,,,,,,,,,,,,,,,,,
,,,,,,,,,,,,0,5,5,5,1,sixth,13,26,F,R,IMT,2021-07-18_13h03.17.068,ImageRatingTask_S5,2021.1.4,Win32,59.95203837,,,,,,,,,,,,,,,,,
,,,,,,,,,,,,0,6,6,6,1,seventh,13,26,F,R,IMT,2021-07-18_13h03.17.068,ImageRatingTask_S5,2021.1.4,Win32,59.95203837,,,,,,,,,,,,,,,,,
,,,,,,,,,,,,0,7,7,7,1,last,13,26,F,R,IMT,2021-07-18_13h03.17.068,ImageRatingTask_S5,2021.1.4,Win32,59.95203837,,,,,,,,,,,,,,,,,
,,,,,,,,,,,,,,,,,,13,26,F,R,IMT,2021-07-18_13h03.17.068,ImageRatingTask_S5,2021.1.4,Win32,59.95203837,0,31,31,83,1,DreamStudyImages_rs1000x750g/Food/Objects_013_h.jpg,,,,,,,,,,,
,,5,4.32,1,0.265,9,0.916,1,0.349,5,1.072,0,0,0,0,1,main,13,26,F,R,IMT,2021-07-18_13h03.17.068,ImageRatingTask_S5,2021.1.4,Win32,59.95203837,,,,,,,,,,,,,,,,,
,,,,,,,,,,,,0,1,1,1,1,second,13,26,F,R,IMT,2021-07-18_13h03.17.068,ImageRatingTask_S5,2021.1.4,Win32,59.95203837,,,,,,,,,,,,,,,,,
,,,,,,,,,,,,0,2,2,2,1,third,13,26,F,R,IMT,2021-07-18_13h03.17.068,ImageRatingTask_S5,2021.1.4,Win32,59.95203837,,,,,,,,,,,,,,,,,
,,,,,,,,,,,,0,3,3,3,1,fourth,13,26,F,R,IMT,2021-07-18_13h03.17.068,ImageRatingTask_S5,2021.1.4,Win32,59.95203837,,,,,,,,,,,,,,,,,
,,,,,,,,,,,,0,4,4,4,1,fifth,13,26,F,R,IMT,2021-07-18_13h03.17.068,ImageRatingTask_S5,2021.1.4,Win32,59.95203837,,,,,,,,,,,,,,,,,
,,,,,,,,,,,,0,5,5,5,1,sixth,13,26,F,R,IMT,2021-07-18_13h03.17.068,ImageRatingTask_S5,2021.1.4,Win32,59.95203837,,,,,,,,,,,,,,,,,
,,,,,,,,,,,,0,6,6,6,1,seventh,13,26,F,R,IMT,2021-07-18_13h03.17.068,ImageRatingTask_S5,2021.1.4,Win32,59.95203837,,,,,,,,,,,,,,,,,
,,,,,,,,,,,,0,7,7,7,1,last,13,26,F,R,IMT,2021-07-18_13h03.17.068,ImageRatingTask_S5,2021.1.4,Win32,59.95203837,,,,,,,,,,,,,,,,,
,,,,,,,,,,,,,,,,,,13,26,F,R,IMT,2021-07-18_13h03.17.068,ImageRatingTask_S5,2021.1.4,Win32,59.95203837,0,32,32,8,1,DreamStudyImages_rs1000x750g/Food/Objects_091_h.jpg,,,,,,,,,,,
,,5,1.688,1,0.702,7,1.582,1,0.383,5,0.978,0,0,0,0,1,main,13,26,F,R,IMT,2021-07-18_13h03.17.068,ImageRatingTask_S5,2021.1.4,Win32,59.95203837,,,,,,,,,,,,,,,,,
,,,,,,,,,,,,0,1,1,1,1,second,13,26,F,R,IMT,2021-07-18_13h03.17.068,ImageRatingTask_S5,2021.1.4,Win32,59.95203837,,,,,,,,,,,,,,,,,
,,,,,,,,,,,,0,2,2,2,1,third,13,26,F,R,IMT,2021-07-18_13h03.17.068,ImageRatingTask_S5,2021.1.4,Win32,59.95203837,,,,,,,,,,,,,,,,,
,,,,,,,,,,,,0,3,3,3,1,fourth,13,26,F,R,IMT,2021-07-18_13h03.17.068,ImageRatingTask_S5,2021.1.4,Win32,59.95203837,,,,,,,,,,,,,,,,,
,,,,,,,,,,,,0,4,4,4,1,fifth,13,26,F,R,IMT,2021-07-18_13h03.17.068,ImageRatingTask_S5,2021.1.4,Win32,59.95203837,,,,,,,,,,,,,,,,,
,,,,,,,,,,,,0,5,5,5,1,sixth,13,26,F,R,IMT,2021-07-18_13h03.17.068,ImageRatingTask_S5,2021.1.4,Win32,59.95203837,,,,,,,,,,,,,,,,,
,,,,,,,,,,,,0,6,6,6,1,seventh,13,26,F,R,IMT,2021-07-18_13h03.17.068,ImageRatingTask_S5,2021.1.4,Win32,59.95203837,,,,,,,,,,,,,,,,,
,,,,,,,,,,,,0,7,7,7,1,last,13,26,F,R,IMT,2021-07-18_13h03.17.068,ImageRatingTask_S5,2021.1.4,Win32,59.95203837,,,,,,,,,,,,,,,,,
,,,,,,,,,,,,,,,,,,13,26,F,R,IMT,2021-07-18_13h03.17.068,ImageRatingTask_S5,2021.1.4,Win32,59.95203837,0,33,33,138,1,DreamStudyImages_rs1000x750g/Food/IAPS7352_pizza2.jpg,,,,,,,,,,,
,,5,1.457,1,0.276,8,1.367,1,0.65,5,0.517,0,0,0,0,1,main,13,26,F,R,IMT,2021-07-18_13h03.17.068,ImageRatingTask_S5,2021.1.4,Win32,59.95203837,,,,,,,,,,,,,,,,,
,,,,,,,,,,,,0,1,1,1,1,second,13,26,F,R,IMT,2021-07-18_13h03.17.068,ImageRatingTask_S5,2021.1.4,Win32,59.95203837,,,,,,,,,,,,,,,,,
,,,,,,,,,,,,0,2,2,2,1,third,13,26,F,R,IMT,2021-07-18_13h03.17.068,ImageRatingTask_S5,2021.1.4,Win32,59.95203837,,,,,,,,,,,,,,,,,
,,,,,,,,,,,,0,3,3,3,1,fourth,13,26,F,R,IMT,2021-07-18_13h03.17.068,ImageRatingTask_S5,2021.1.4,Win32,59.95203837,,,,,,,,,,,,,,,,,
,,,,,,,,,,,,0,4,4,4,1,fifth,13,26,F,R,IMT,2021-07-18_13h03.17.068,ImageRatingTask_S5,2021.1.4,Win32,59.95203837,,,,,,,,,,,,,,,,,
,,,,,,,,,,,,0,5,5,5,1,sixth,13,26,F,R,IMT,2021-07-18_13h03.17.068,ImageRatingTask_S5,2021.1.4,Win32,59.95203837,,,,,,,,,,,,,,,,,
,,,,,,,,,,,,0,6,6,6,1,seventh,13,26,F,R,IMT,2021-07-18_13h03.17.068,ImageRatingTask_S5,2021.1.4,Win32,59.95203837,,,,,,,,,,,,,,,,,
,,,,,,,,,,,,0,7,7,7,1,last,13,26,F,R,IMT,2021-07-18_13h03.17.068,ImageRatingTask_S5,2021.1.4,Win32,59.95203837,,,,,,,,,,,,,,,,,
,,,,,,,,,,,,,,,,,,13,26,F,R,IMT,2021-07-18_13h03.17.068,ImageRatingTask_S5,2021.1.4,Win32,59.95203837,0,34,34,107,1,DreamStudyImages_rs1000x750g/Food/Objects_009_h.jpg,,,,,,,,,,,
,,5,2.334,1,0.164,7,1.951,1,0.917,5,1.517,0,0,0,0,1,main,13,26,F,R,IMT,2021-07-18_13h03.17.068,ImageRatingTask_S5,2021.1.4,Win32,59.95203837,,,,,,,,,,,,,,,,,
,,,,,,,,,,,,0,1,1,1,1,second,13,26,F,R,IMT,2021-07-18_13h03.17.068,ImageRatingTask_S5,2021.1.4,Win32,59.95203837,,,,,,,,,,,,,,,,,
,,,,,,,,,,,,0,2,2,2,1,third,13,26,F,R,IMT,2021-07-18_13h03.17.068,ImageRatingTask_S5,2021.1.4,Win32,59.95203837,,,,,,,,,,,,,,,,,
,,,,,,,,,,,,0,3,3,3,1,fourth,13,26,F,R,IMT,2021-07-18_13h03.17.068,ImageRatingTask_S5,2021.1.4,Win32,59.95203837,,,,,,,,,,,,,,,,,
,,,,,,,,,,,,0,4,4,4,1,fifth,13,26,F,R,IMT,2021-07-18_13h03.17.068,ImageRatingTask_S5,2021.1.4,Win32,59.95203837,,,,,,,,,,,,,,,,,
,,,,,,,,,,,,0,5,5,5,1,sixth,13,26,F,R,IMT,2021-07-18_13h03.17.068,ImageRatingTask_S5,2021.1.4,Win32,59.95203837,,,,,,,,,,,,,,,,,
,,,,,,,,,,,,0,6,6,6,1,seventh,13,26,F,R,IMT,2021-07-18_13h03.17.068,ImageRatingTask_S5,2021.1.4,Win32,59.95203837,,,,,,,,,,,,,,,,,
,,,,,,,,,,,,0,7,7,7,1,last,13,26,F,R,IMT,2021-07-18_13h03.17.068,ImageRatingTask_S5,2021.1.4,Win32,59.95203837,,,,,,,,,,,,,,,,,
,,,,,,,,,,,,,,,,,,13,26,F,R,IMT,2021-07-18_13h03.17.068,ImageRatingTask_S5,2021.1.4,Win32,59.95203837,0,35,35,57,1,DreamStudyImages_rs1000x750g/Food/Objects_058_h.jpg,,,,,,,,,,,
,,3,2.587,4,1.106,8,2.688,1,0.481,3,2.011,0,0,0,0,1,main,13,26,F,R,IMT,2021-07-18_13h03.17.068,ImageRatingTask_S5,2021.1.4,Win32,59.95203837,,,,,,,,,,,,,,,,,
,,,,,,,,,,,,0,1,1,1,1,second,13,26,F,R,IMT,2021-07-18_13h03.17.068,ImageRatingTask_S5,2021.1.4,Win32,59.95203837,,,,,,,,,,,,,,,,,
,,,,,,,,,,,,0,2,2,2,1,third,13,26,F,R,IMT,2021-07-18_13h03.17.068,ImageRatingTask_S5,2021.1.4,Win32,59.95203837,,,,,,,,,,,,,,,,,
,,,,,,,,,,,,0,3,3,3,1,fourth,13,26,F,R,IMT,2021-07-18_13h03.17.068,ImageRatingTask_S5,2021.1.4,Win32,59.95203837,,,,,,,,,,,,,,,,,
,,,,,,,,,,,,0,4,4,4,1,fifth,13,26,F,R,IMT,2021-07-18_13h03.17.068,ImageRatingTask_S5,2021.1.4,Win32,59.95203837,,,,,,,,,,,,,,,,,
,,,,,,,,,,,,0,5,5,5,1,sixth,13,26,F,R,IMT,2021-07-18_13h03.17.068,ImageRatingTask_S5,2021.1.4,Win32,59.95203837,,,,,,,,,,,,,,,,,
,,,,,,,,,,,,0,6,6,6,1,seventh,13,26,F,R,IMT,2021-07-18_13h03.17.068,ImageRatingTask_S5,2021.1.4,Win32,59.95203837,,,,,,,,,,,,,,,,,
,,,,,,,,,,,,0,7,7,7,1,last,13,26,F,R,IMT,2021-07-18_13h03.17.068,ImageRatingTask_S5,2021.1.4,Win32,59.95203837,,,,,,,,,,,,,,,,,
,,,,,,,,,,,,,,,,,,13,26,F,R,IMT,2021-07-18_13h03.17.068,ImageRatingTask_S5,2021.1.4,Win32,59.95203837,0,36,36,77,1,DreamStudyImages_rs1000x750g/Mammals/Animal carcass 4.jpg,,,,,,,,,,,
,,5,2.038,1,0.272,6,3.248,1,0.849,5,0.81,0,0,0,0,1,main,13,26,F,R,IMT,2021-07-18_13h03.17.068,ImageRatingTask_S5,2021.1.4,Win32,59.95203837,,,,,,,,,,,,,,,,,
,,,,,,,,,,,,0,1,1,1,1,second,13,26,F,R,IMT,2021-07-18_13h03.17.068,ImageRatingTask_S5,2021.1.4,Win32,59.95203837,,,,,,,,,,,,,,,,,
,,,,,,,,,,,,0,2,2,2,1,third,13,26,F,R,IMT,2021-07-18_13h03.17.068,ImageRatingTask_S5,2021.1.4,Win32,59.95203837,,,,,,,,,,,,,,,,,
,,,,,,,,,,,,0,3,3,3,1,fourth,13,26,F,R,IMT,2021-07-18_13h03.17.068,ImageRatingTask_S5,2021.1.4,Win32,59.95203837,,,,,,,,,,,,,,,,,
,,,,,,,,,,,,0,4,4,4,1,fifth,13,26,F,R,IMT,2021-07-18_13h03.17.068,ImageRatingTask_S5,2021.1.4,Win32,59.95203837,,,,,,,,,,,,,,,,,
,,,,,,,,,,,,0,5,5,5,1,sixth,13,26,F,R,IMT,2021-07-18_13h03.17.068,ImageRatingTask_S5,2021.1.4,Win32,59.95203837,,,,,,,,,,,,,,,,,
,,,,,,,,,,,,0,6,6,6,1,seventh,13,26,F,R,IMT,2021-07-18_13h03.17.068,ImageRatingTask_S5,2021.1.4,Win32,59.95203837,,,,,,,,,,,,,,,,,
,,,,,,,,,,,,0,7,7,7,1,last,13,26,F,R,IMT,2021-07-18_13h03.17.068,ImageRatingTask_S5,2021.1.4,Win32,59.95203837,,,,,,,,,,,,,,,,,
,,,,,,,,,,,,,,,,,,13,26,F,R,IMT,2021-07-18_13h03.17.068,ImageRatingTask_S5,2021.1.4,Win32,59.95203837,0,37,37,32,1,DreamStudyImages_rs1000x750g/Food/Wedding 4.jpg,,,,,,,,,,,
,,4,2.307,2,1.227,6,2.667,1,0.368,7,1.279,0,0,0,0,1,main,13,26,F,R,IMT,2021-07-18_13h03.17.068,ImageRatingTask_S5,2021.1.4,Win32,59.95203837,,,,,,,,,,,,,,,,,
,,,,,,,,,,,,0,1,1,1,1,second,13,26,F,R,IMT,2021-07-18_13h03.17.068,ImageRatingTask_S5,2021.1.4,Win32,59.95203837,,,,,,,,,,,,,,,,,
,,,,,,,,,,,,0,2,2,2,1,third,13,26,F,R,IMT,2021-07-18_13h03.17.068,ImageRatingTask_S5,2021.1.4,Win32,59.95203837,,,,,,,,,,,,,,,,,
,,,,,,,,,,,,0,3,3,3,1,fourth,13,26,F,R,IMT,2021-07-18_13h03.17.068,ImageRatingTask_S5,2021.1.4,Win32,59.95203837,,,,,,,,,,,,,,,,,
,,,,,,,,,,,,0,4,4,4,1,fifth,13,26,F,R,IMT,2021-07-18_13h03.17.068,ImageRatingTask_S5,2021.1.4,Win32,59.95203837,,,,,,,,,,,,,,,,,
,,,,,,,,,,,,0,5,5,5,1,sixth,13,26,F,R,IMT,2021-07-18_13h03.17.068,ImageRatingTask_S5,2021.1.4,Win32,59.95203837,,,,,,,,,,,,,,,,,
,,,,,,,,,,,,0,6,6,6,1,seventh,13,26,F,R,IMT,2021-07-18_13h03.17.068,ImageRatingTask_S5,2021.1.4,Win32,59.95203837,,,,,,,,,,,,,,,,,
,,,,,,,,,,,,0,7,7,7,1,last,13,26,F,R,IMT,2021-07-18_13h03.17.068,ImageRatingTask_S5,2021.1.4,Win32,59.95203837,,,,,,,,,,,,,,,,,
,,,,,,,,,,,,,,,,,,13,26,F,R,IMT,2021-07-18_13h03.17.068,ImageRatingTask_S5,2021.1.4,Win32,59.95203837,0,38,38,0,1,DreamStudyImages_rs1000x750g/Vehicles/IAPS9912_abandonedcar.jpg,,,,,,,,,,,
,,5,1.166,1,0.187,9,1.597,1,0.315,2,0.915,0,0,0,0,1,main,13,26,F,R,IMT,2021-07-18_13h03.17.068,ImageRatingTask_S5,2021.1.4,Win32,59.95203837,,,,,,,,,,,,,,,,,
,,,,,,,,,,,,0,1,1,1,1,second,13,26,F,R,IMT,2021-07-18_13h03.17.068,ImageRatingTask_S5,2021.1.4,Win32,59.95203837,,,,,,,,,,,,,,,,,
,,,,,,,,,,,,0,2,2,2,1,third,13,26,F,R,IMT,2021-07-18_13h03.17.068,ImageRatingTask_S5,2021.1.4,Win32,59.95203837,,,,,,,,,,,,,,,,,
,,,,,,,,,,,,0,3,3,3,1,fourth,13,26,F,R,IMT,2021-07-18_13h03.17.068,ImageRatingTask_S5,2021.1.4,Win32,59.95203837,,,,,,,,,,,,,,,,,
,,,,,,,,,,,,0,4,4,4,1,fifth,13,26,F,R,IMT,2021-07-18_13h03.17.068,ImageRatingTask_S5,2021.1.4,Win32,59.95203837,,,,,,,,,,,,,,,,,
,,,,,,,,,,,,0,5,5,5,1,sixth,13,26,F,R,IMT,2021-07-18_13h03.17.068,ImageRatingTask_S5,2021.1.4,Win32,59.95203837,,,,,,,,,,,,,,,,,
,,,,,,,,,,,,0,6,6,6,1,seventh,13,26,F,R,IMT,2021-07-18_13h03.17.068,ImageRatingTask_S5,2021.1.4,Win32,59.95203837,,,,,,,,,,,,,,,,,
,,,,,,,,,,,,0,7,7,7,1,last,13,26,F,R,IMT,2021-07-18_13h03.17.068,ImageRatingTask_S5,2021.1.4,Win32,59.95203837,,,,,,,,,,,,,,,,,
,,,,,,,,,,,,,,,,,,13,26,F,R,IMT,2021-07-18_13h03.17.068,ImageRatingTask_S5,2021.1.4,Win32,59.95203837,0,39,39,113,1,DreamStudyImages_rs1000x750g/Children/Faces_044_h.jpg,,,,,,,,,,,
,,1,2.46,8,0.782,8,3.146,1,0.267,2,0.642,0,0,0,0,1,main,13,26,F,R,IMT,2021-07-18_13h03.17.068,ImageRatingTask_S5,2021.1.4,Win32,59.95203837,,,,,,,,,,,,,,,,,
,,,,,,,,,,,,0,1,1,1,1,second,13,26,F,R,IMT,2021-07-18_13h03.17.068,ImageRatingTask_S5,2021.1.4,Win32,59.95203837,,,,,,,,,,,,,,,,,
,,,,,,,,,,,,0,2,2,2,1,third,13,26,F,R,IMT,2021-07-18_13h03.17.068,ImageRatingTask_S5,2021.1.4,Win32,59.95203837,,,,,,,,,,,,,,,,,
,,,,,,,,,,,,0,3,3,3,1,fourth,13,26,F,R,IMT,2021-07-18_13h03.17.068,ImageRatingTask_S5,2021.1.4,Win32,59.95203837,,,,,,,,,,,,,,,,,
,,,,,,,,,,,,0,4,4,4,1,fifth,13,26,F,R,IMT,2021-07-18_13h03.17.068,ImageRatingTask_S5,2021.1.4,Win32,59.95203837,,,,,,,,,,,,,,,,,
,,,,,,,,,,,,0,5,5,5,1,sixth,13,26,F,R,IMT,2021-07-18_13h03.17.068,ImageRatingTask_S5,2021.1.4,Win32,59.95203837,,,,,,,,,,,,,,,,,
,,,,,,,,,,,,0,6,6,6,1,seventh,13,26,F,R,IMT,2021-07-18_13h03.17.068,ImageRatingTask_S5,2021.1.4,Win32,59.95203837,,,,,,,,,,,,,,,,,
,,,,,,,,,,,,0,7,7,7,1,last,13,26,F,R,IMT,2021-07-18_13h03.17.068,ImageRatingTask_S5,2021.1.4,Win32,59.95203837,,,,,,,,,,,,,,,,,
,,,,,,,,,,,,,,,,,,13,26,F,R,IMT,2021-07-18_13h03.17.068,ImageRatingTask_S5,2021.1.4,Win32,59.95203837,0,40,40,9,1,DreamStudyImages_rs1000x750g/Children/People_031_v.jpg,,,,,,,,,,,
,,3,1.955,7,0.811,8,2.307,1,0.707,2,0.595,0,0,0,0,1,main,13,26,F,R,IMT,2021-07-18_13h03.17.068,ImageRatingTask_S5,2021.1.4,Win32,59.95203837,,,,,,,,,,,,,,,,,
,,,,,,,,,,,,0,1,1,1,1,second,13,26,F,R,IMT,2021-07-18_13h03.17.068,ImageRatingTask_S5,2021.1.4,Win32,59.95203837,,,,,,,,,,,,,,,,,
,,,,,,,,,,,,0,2,2,2,1,third,13,26,F,R,IMT,2021-07-18_13h03.17.068,ImageRatingTask_S5,2021.1.4,Win32,59.95203837,,,,,,,,,,,,,,,,,
,,,,,,,,,,,,0,3,3,3,1,fourth,13,26,F,R,IMT,2021-07-18_13h03.17.068,ImageRatingTask_S5,2021.1.4,Win32,59.95203837,,,,,,,,,,,,,,,,,
,,,,,,,,,,,,0,4,4,4,1,fifth,13,26,F,R,IMT,2021-07-18_13h03.17.068,ImageRatingTask_S5,2021.1.4,Win32,59.95203837,,,,,,,,,,,,,,,,,
,,,,,,,,,,,,0,5,5,5,1,sixth,13,26,F,R,IMT,2021-07-18_13h03.17.068,ImageRatingTask_S5,2021.1.4,Win32,59.95203837,,,,,,,,,,,,,,,,,
,,,,,,,,,,,,0,6,6,6,1,seventh,13,26,F,R,IMT,2021-07-18_13h03.17.068,ImageRatingTask_S5,2021.1.4,Win32,59.95203837,,,,,,,,,,,,,,,,,
,,,,,,,,,,,,0,7,7,7,1,last,13,26,F,R,IMT,2021-07-18_13h03.17.068,ImageRatingTask_S5,2021.1.4,Win32,59.95203837,,,,,,,,,,,,,,,,,
,,,,,,,,,,,,,,,,,,13,26,F,R,IMT,2021-07-18_13h03.17.068,ImageRatingTask_S5,2021.1.4,Win32,59.95203837,0,41,41,111,1,DreamStudyImages_rs1000x750g/Children/Faces_029_h.jpg,,,,,,,,,,,
,,5,3.336,1,0.315,9,1.416,1,0.519,7,0.958,0,0,0,0,1,main,13,26,F,R,IMT,2021-07-18_13h03.17.068,ImageRatingTask_S5,2021.1.4,Win32,59.95203837,,,,,,,,,,,,,,,,,
,,,,,,,,,,,,0,1,1,1,1,second,13,26,F,R,IMT,2021-07-18_13h03.17.068,ImageRatingTask_S5,2021.1.4,Win32,59.95203837,,,,,,,,,,,,,,,,,
,,,,,,,,,,,,0,2,2,2,1,third,13,26,F,R,IMT,2021-07-18_13h03.17.068,ImageRatingTask_S5,2021.1.4,Win32,59.95203837,,,,,,,,,,,,,,,,,
,,,,,,,,,,,,0,3,3,3,1,fourth,13,26,F,R,IMT,2021-07-18_13h03.17.068,ImageRatingTask_S5,2021.1.4,Win32,59.95203837,,,,,,,,,,,,,,,,,
,,,,,,,,,,,,0,4,4,4,1,fifth,13,26,F,R,IMT,2021-07-18_13h03.17.068,ImageRatingTask_S5,2021.1.4,Win32,59.95203837,,,,,,,,,,,,,,,,,
,,,,,,,,,,,,0,5,5,5,1,sixth,13,26,F,R,IMT,2021-07-18_13h03.17.068,ImageRatingTask_S5,2021.1.4,Win32,59.95203837,,,,,,,,,,,,,,,,,
,,,,,,,,,,,,0,6,6,6,1,seventh,13,26,F,R,IMT,2021-07-18_13h03.17.068,ImageRatingTask_S5,2021.1.4,Win32,59.95203837,,,,,,,,,,,,,,,,,
,,,,,,,,,,,,0,7,7,7,1,last,13,26,F,R,IMT,2021-07-18_13h03.17.068,ImageRatingTask_S5,2021.1.4,Win32,59.95203837,,,,,,,,,,,,,,,,,
,,,,,,,,,,,,,,,,,,13,26,F,R,IMT,2021-07-18_13h03.17.068,ImageRatingTask_S5,2021.1.4,Win32,59.95203837,0,42,42,21,1,DreamStudyImages_rs1000x750g/Vehicles/Objects_296_h.jpg,,,,,,,,,,,
,,5,1.594,2,0.797,9,1.7,1,0.483,3,0.93,0,0,0,0,1,main,13,26,F,R,IMT,2021-07-18_13h03.17.068,ImageRatingTask_S5,2021.1.4,Win32,59.95203837,,,,,,,,,,,,,,,,,
,,,,,,,,,,,,0,1,1,1,1,second,13,26,F,R,IMT,2021-07-18_13h03.17.068,ImageRatingTask_S5,2021.1.4,Win32,59.95203837,,,,,,,,,,,,,,,,,
,,,,,,,,,,,,0,2,2,2,1,third,13,26,F,R,IMT,2021-07-18_13h03.17.068,ImageRatingTask_S5,2021.1.4,Win32,59.95203837,,,,,,,,,,,,,,,,,
,,,,,,,,,,,,0,3,3,3,1,fourth,13,26,F,R,IMT,2021-07-18_13h03.17.068,ImageRatingTask_S5,2021.1.4,Win32,59.95203837,,,,,,,,,,,,,,,,,
,,,,,,,,,,,,0,4,4,4,1,fifth,13,26,F,R,IMT,2021-07-18_13h03.17.068,ImageRatingTask_S5,2021.1.4,Win32,59.95203837,,,,,,,,,,,,,,,,,
,,,,,,,,,,,,0,5,5,5,1,sixth,13,26,F,R,IMT,2021-07-18_13h03.17.068,ImageRatingTask_S5,2021.1.4,Win32,59.95203837,,,,,,,,,,,,,,,,,
,,,,,,,,,,,,0,6,6,6,1,seventh,13,26,F,R,IMT,2021-07-18_13h03.17.068,ImageRatingTask_S5,2021.1.4,Win32,59.95203837,,,,,,,,,,,,,,,,,
,,,,,,,,,,,,0,7,7,7,1,last,13,26,F,R,IMT,2021-07-18_13h03.17.068,ImageRatingTask_S5,2021.1.4,Win32,59.95203837,,,,,,,,,,,,,,,,,
,,,,,,,,,,,,,,,,,,13,26,F,R,IMT,2021-07-18_13h03.17.068,ImageRatingTask_S5,2021.1.4,Win32,59.95203837,0,43,43,48,1,DreamStudyImages_rs1000x750g/Mammals/Animals_002_v.jpg,,,,,,,,,,,
,,4,1.924,3,1.166,6,1.384,1,0.465,7,0.907,0,0,0,0,1,main,13,26,F,R,IMT,2021-07-18_13h03.17.068,ImageRatingTask_S5,2021.1.4,Win32,59.95203837,,,,,,,,,,,,,,,,,
,,,,,,,,,,,,0,1,1,1,1,second,13,26,F,R,IMT,2021-07-18_13h03.17.068,ImageRatingTask_S5,2021.1.4,Win32,59.95203837,,,,,,,,,,,,,,,,,
,,,,,,,,,,,,0,2,2,2,1,third,13,26,F,R,IMT,2021-07-18_13h03.17.068,ImageRatingTask_S5,2021.1.4,Win32,59.95203837,,,,,,,,,,,,,,,,,
,,,,,,,,,,,,0,3,3,3,1,fourth,13,26,F,R,IMT,2021-07-18_13h03.17.068,ImageRatingTask_S5,2021.1.4,Win32,59.95203837,,,,,,,,,,,,,,,,,
,,,,,,,,,,,,0,4,4,4,1,fifth,13,26,F,R,IMT,2021-07-18_13h03.17.068,ImageRatingTask_S5,2021.1.4,Win32,59.95203837,,,,,,,,,,,,,,,,,
,,,,,,,,,,,,0,5,5,5,1,sixth,13,26,F,R,IMT,2021-07-18_13h03.17.068,ImageRatingTask_S5,2021.1.4,Win32,59.95203837,,,,,,,,,,,,,,,,,
,,,,,,,,,,,,0,6,6,6,1,seventh,13,26,F,R,IMT,2021-07-18_13h03.17.068,ImageRatingTask_S5,2021.1.4,Win32,59.95203837,,,,,,,,,,,,,,,,,
,,,,,,,,,,,,0,7,7,7,1,last,13,26,F,R,IMT,2021-07-18_13h03.17.068,ImageRatingTask_S5,2021.1.4,Win32,59.95203837,,,,,,,,,,,,,,,,,
,,,,,,,,,,,,,,,,,,13,26,F,R,IMT,2021-07-18_13h03.17.068,ImageRatingTask_S5,2021.1.4,Win32,59.95203837,0,44,44,69,1,DreamStudyImages_rs1000x750g/Vehicles/IAPS9622_planecrash2.jpg,,,,,,,,,,,
,,5,2.205,1,0.134,8,1.746,1,0.212,5,1.181,0,0,0,0,1,main,13,26,F,R,IMT,2021-07-18_13h03.17.068,ImageRatingTask_S5,2021.1.4,Win32,59.95203837,,,,,,,,,,,,,,,,,
,,,,,,,,,,,,0,1,1,1,1,second,13,26,F,R,IMT,2021-07-18_13h03.17.068,ImageRatingTask_S5,2021.1.4,Win32,59.95203837,,,,,,,,,,,,,,,,,
,,,,,,,,,,,,0,2,2,2,1,third,13,26,F,R,IMT,2021-07-18_13h03.17.068,ImageRatingTask_S5,2021.1.4,Win32,59.95203837,,,,,,,,,,,,,,,,,
,,,,,,,,,,,,0,3,3,3,1,fourth,13,26,F,R,IMT,2021-07-18_13h03.17.068,ImageRatingTask_S5,2021.1.4,Win32,59.95203837,,,,,,,,,,,,,,,,,
,,,,,,,,,,,,0,4,4,4,1,fifth,13,26,F,R,IMT,2021-07-18_13h03.17.068,ImageRatingTask_S5,2021.1.4,Win32,59.95203837,,,,,,,,,,,,,,,,,
,,,,,,,,,,,,0,5,5,5,1,sixth,13,26,F,R,IMT,2021-07-18_13h03.17.068,ImageRatingTask_S5,2021.1.4,Win32,59.95203837,,,,,,,,,,,,,,,,,
,,,,,,,,,,,,0,6,6,6,1,seventh,13,26,F,R,IMT,2021-07-18_13h03.17.068,ImageRatingTask_S5,2021.1.4,Win32,59.95203837,,,,,,,,,,,,,,,,,
,,,,,,,,,,,,0,7,7,7,1,last,13,26,F,R,IMT,2021-07-18_13h03.17.068,ImageRatingTask_S5,2021.1.4,Win32,59.95203837,,,,,,,,,,,,,,,,,
,,,,,,,,,,,,,,,,,,13,26,F,R,IMT,2021-07-18_13h03.17.068,ImageRatingTask_S5,2021.1.4,Win32,59.95203837,0,45,45,108,1,DreamStudyImages_rs1000x750g/Food/Objects_038_v.jpg,,,,,,,,,,,
,,4,2.17,2,1.236,7,3.213,1,0.665,7,1.93,0,0,0,0,1,main,13,26,F,R,IMT,2021-07-18_13h03.17.068,ImageRatingTask_S5,2021.1.4,Win32,59.95203837,,,,,,,,,,,,,,,,,
,,,,,,,,,,,,0,1,1,1,1,second,13,26,F,R,IMT,2021-07-18_13h03.17.068,ImageRatingTask_S5,2021.1.4,Win32,59.95203837,,,,,,,,,,,,,,,,,
,,,,,,,,,,,,0,2,2,2,1,third,13,26,F,R,IMT,2021-07-18_13h03.17.068,ImageRatingTask_S5,2021.1.4,Win32,59.95203837,,,,,,,,,,,,,,,,,
,,,,,,,,,,,,0,3,3,3,1,fourth,13,26,F,R,IMT,2021-07-18_13h03.17.068,ImageRatingTask_S5,2021.1.4,Win32,59.95203837,,,,,,,,,,,,,,,,,
,,,,,,,,,,,,0,4,4,4,1,fifth,13,26,F,R,IMT,2021-07-18_13h03.17.068,ImageRatingTask_S5,2021.1.4,Win32,59.95203837,,,,,,,,,,,,,,,,,
,,,,,,,,,,,,0,5,5,5,1,sixth,13,26,F,R,IMT,2021-07-18_13h03.17.068,ImageRatingTask_S5,2021.1.4,Win32,59.95203837,,,,,,,,,,,,,,,,,
,,,,,,,,,,,,0,6,6,6,1,seventh,13,26,F,R,IMT,2021-07-18_13h03.17.068,ImageRatingTask_S5,2021.1.4,Win32,59.95203837,,,,,,,,,,,,,,,,,
,,,,,,,,,,,,0,7,7,7,1,last,13,26,F,R,IMT,2021-07-18_13h03.17.068,ImageRatingTask_S5,2021.1.4,Win32,59.95203837,,,,,,,,,,,,,,,,,
,,,,,,,,,,,,,,,,,,13,26,F,R,IMT,2021-07-18_13h03.17.068,ImageRatingTask_S5,2021.1.4,Win32,59.95203837,0,46,46,114,1,DreamStudyImages_rs1000x750g/Water/Weapon 1.jpg,,,,,,,,,,,
,,6,2.688,2,0.325,9,2.598,1,0.681,3,1.249,0,0,0,0,1,main,13,26,F,R,IMT,2021-07-18_13h03.17.068,ImageRatingTask_S5,2021.1.4,Win32,59.95203837,,,,,,,,,,,,,,,,,
,,,,,,,,,,,,0,1,1,1,1,second,13,26,F,R,IMT,2021-07-18_13h03.17.068,ImageRatingTask_S5,2021.1.4,Win32,59.95203837,,,,,,,,,,,,,,,,,
,,,,,,,,,,,,0,2,2,2,1,third,13,26,F,R,IMT,2021-07-18_13h03.17.068,ImageRatingTask_S5,2021.1.4,Win32,59.95203837,,,,,,,,,,,,,,,,,
,,,,,,,,,,,,0,3,3,3,1,fourth,13,26,F,R,IMT,2021-07-18_13h03.17.068,ImageRatingTask_S5,2021.1.4,Win32,59.95203837,,,,,,,,,,,,,,,,,
,,,,,,,,,,,,0,4,4,4,1,fifth,13,26,F,R,IMT,2021-07-18_13h03.17.068,ImageRatingTask_S5,2021.1.4,Win32,59.95203837,,,,,,,,,,,,,,,,,
,,,,,,,,,,,,0,5,5,5,1,sixth,13,26,F,R,IMT,2021-07-18_13h03.17.068,ImageRatingTask_S5,2021.1.4,Win32,59.95203837,,,,,,,,,,,,,,,,,
,,,,,,,,,,,,0,6,6,6,1,seventh,13,26,F,R,IMT,2021-07-18_13h03.17.068,ImageRatingTask_S5,2021.1.4,Win32,59.95203837,,,,,,,,,,,,,,,,,
,,,,,,,,,,,,0,7,7,7,1,last,13,26,F,R,IMT,2021-07-18_13h03.17.068,ImageRatingTask_S5,2021.1.4,Win32,59.95203837,,,,,,,,,,,,,,,,,
,,,,,,,,,,,,,,,,,,13,26,F,R,IMT,2021-07-18_13h03.17.068,ImageRatingTask_S5,2021.1.4,Win32,59.95203837,0,47,47,82,1,DreamStudyImages_rs1000x750g/Mammals/Couple 5.jpg,,,,,,,,,,,
,,5,0.992,1,0.459,9,0.867,1,0.748,5,0.68,0,0,0,0,1,main,13,26,F,R,IMT,2021-07-18_13h03.17.068,ImageRatingTask_S5,2021.1.4,Win32,59.95203837,,,,,,,,,,,,,,,,,
,,,,,,,,,,,,0,1,1,1,1,second,13,26,F,R,IMT,2021-07-18_13h03.17.068,ImageRatingTask_S5,2021.1.4,Win32,59.95203837,,,,,,,,,,,,,,,,,
,,,,,,,,,,,,0,2,2,2,1,third,13,26,F,R,IMT,2021-07-18_13h03.17.068,ImageRatingTask_S5,2021.1.4,Win32,59.95203837,,,,,,,,,,,,,,,,,
,,,,,,,,,,,,0,3,3,3,1,fourth,13,26,F,R,IMT,2021-07-18_13h03.17.068,ImageRatingTask_S5,2021.1.4,Win32,59.95203837,,,,,,,,,,,,,,,,,
,,,,,,,,,,,,0,4,4,4,1,fifth,13,26,F,R,IMT,2021-07-18_13h03.17.068,ImageRatingTask_S5,2021.1.4,Win32,59.95203837,,,,,,,,,,,,,,,,,
,,,,,,,,,,,,0,5,5,5,1,sixth,13,26,F,R,IMT,2021-07-18_13h03.17.068,ImageRatingTask_S5,2021.1.4,Win32,59.95203837,,,,,,,,,,,,,,,,,
,,,,,,,,,,,,0,6,6,6,1,seventh,13,26,F,R,IMT,2021-07-18_13h03.17.068,ImageRatingTask_S5,2021.1.4,Win32,59.95203837,,,,,,,,,,,,,,,,,
,,,,,,,,,,,,0,7,7,7,1,last,13,26,F,R,IMT,2021-07-18_13h03.17.068,ImageRatingTask_S5,2021.1.4,Win32,59.95203837,,,,,,,,,,,,,,,,,
,,,,,,,,,,,,,,,,,,13,26,F,R,IMT,2021-07-18_13h03.17.068,ImageRatingTask_S5,2021.1.4,Win32,59.95203837,0,48,48,151,1,DreamStudyImages_rs1000x750g/Food/Objects_102_v.jpg,,,,,,,,,,,
,,5,2.814,1,0.12,9,2.753,1,0.197,8,1.88,0,0,0,0,1,main,13,26,F,R,IMT,2021-07-18_13h03.17.068,ImageRatingTask_S5,2021.1.4,Win32,59.95203837,,,,,,,,,,,,,,,,,
,,,,,,,,,,,,0,1,1,1,1,second,13,26,F,R,IMT,2021-07-18_13h03.17.068,ImageRatingTask_S5,2021.1.4,Win32,59.95203837,,,,,,,,,,,,,,,,,
,,,,,,,,,,,,0,2,2,2,1,third,13,26,F,R,IMT,2021-07-18_13h03.17.068,ImageRatingTask_S5,2021.1.4,Win32,59.95203837,,,,,,,,,,,,,,,,,
,,,,,,,,,,,,0,3,3,3,1,fourth,13,26,F,R,IMT,2021-07-18_13h03.17.068,ImageRatingTask_S5,2021.1.4,Win32,59.95203837,,,,,,,,,,,,,,,,,
,,,,,,,,,,,,0,4,4,4,1,fifth,13,26,F,R,IMT,2021-07-18_13h03.17.068,ImageRatingTask_S5,2021.1.4,Win32,59.95203837,,,,,,,,,,,,,,,,,
,,,,,,,,,,,,0,5,5,5,1,sixth,13,26,F,R,IMT,2021-07-18_13h03.17.068,ImageRatingTask_S5,2021.1.4,Win32,59.95203837,,,,,,,,,,,,,,,,,
,,,,,,,,,,,,0,6,6,6,1,seventh,13,26,F,R,IMT,2021-07-18_13h03.17.068,ImageRatingTask_S5,2021.1.4,Win32,59.95203837,,,,,,,,,,,,,,,,,
,,,,,,,,,,,,0,7,7,7,1,last,13,26,F,R,IMT,2021-07-18_13h03.17.068,ImageRatingTask_S5,2021.1.4,Win32,59.95203837,,,,,,,,,,,,,,,,,
,,,,,,,,,,,,,,,,,,13,26,F,R,IMT,2021-07-18_13h03.17.068,ImageRatingTask_S5,2021.1.4,Win32,59.95203837,0,49,49,95,1,DreamStudyImages_rs1000x750g/Water/waterneutral4.jpg,,,,,,,,,,,
,,5,1.292,1,0.15,8,1.232,1,0.288,6,1.091,0,0,0,0,1,main,13,26,F,R,IMT,2021-07-18_13h03.17.068,ImageRatingTask_S5,2021.1.4,Win32,59.95203837,,,,,,,,,,,,,,,,,
,,,,,,,,,,,,0,1,1,1,1,second,13,26,F,R,IMT,2021-07-18_13h03.17.068,ImageRatingTask_S5,2021.1.4,Win32,59.95203837,,,,,,,,,,,,,,,,,
,,,,,,,,,,,,0,2,2,2,1,third,13,26,F,R,IMT,2021-07-18_13h03.17.068,ImageRatingTask_S5,2021.1.4,Win32,59.95203837,,,,,,,,,,,,,,,,,
,,,,,,,,,,,,0,3,3,3,1,fourth,13,26,F,R,IMT,2021-07-18_13h03.17.068,ImageRatingTask_S5,2021.1.4,Win32,59.95203837,,,,,,,,,,,,,,,,,
,,,,,,,,,,,,0,4,4,4,1,fifth,13,26,F,R,IMT,2021-07-18_13h03.17.068,ImageRatingTask_S5,2021.1.4,Win32,59.95203837,,,,,,,,,,,,,,,,,
,,,,,,,,,,,,0,5,5,5,1,sixth,13,26,F,R,IMT,2021-07-18_13h03.17.068,ImageRatingTask_S5,2021.1.4,Win32,59.95203837,,,,,,,,,,,,,,,,,
,,,,,,,,,,,,0,6,6,6,1,seventh,13,26,F,R,IMT,2021-07-18_13h03.17.068,ImageRatingTask_S5,2021.1.4,Win32,59.95203837,,,,,,,,,,,,,,,,,
,,,,,,,,,,,,0,7,7,7,1,last,13,26,F,R,IMT,2021-07-18_13h03.17.068,ImageRatingTask_S5,2021.1.4,Win32,59.95203837,,,,,,,,,,,,,,,,,
,,,,,,,,,,,,,,,,,,13,26,F,R,IMT,2021-07-18_13h03.17.068,ImageRatingTask_S5,2021.1.4,Win32,59.95203837,0,50,50,133,1,DreamStudyImages_rs1000x750g/Houses/Landscapes_038_h.jpg,,,,,,,,,,,
,,4,1.064,2,0.85,8,3.067,1,0.288,2,0.698,0,0,0,0,1,main,13,26,F,R,IMT,2021-07-18_13h03.17.068,ImageRatingTask_S5,2021.1.4,Win32,59.95203837,,,,,,,,,,,,,,,,,
,,,,,,,,,,,,0,1,1,1,1,second,13,26,F,R,IMT,2021-07-18_13h03.17.068,ImageRatingTask_S5,2021.1.4,Win32,59.95203837,,,,,,,,,,,,,,,,,
,,,,,,,,,,,,0,2,2,2,1,third,13,26,F,R,IMT,2021-07-18_13h03.17.068,ImageRatingTask_S5,2021.1.4,Win32,59.95203837,,,,,,,,,,,,,,,,,
,,,,,,,,,,,,0,3,3,3,1,fourth,13,26,F,R,IMT,2021-07-18_13h03.17.068,ImageRatingTask_S5,2021.1.4,Win32,59.95203837,,,,,,,,,,,,,,,,,
,,,,,,,,,,,,0,4,4,4,1,fifth,13,26,F,R,IMT,2021-07-18_13h03.17.068,ImageRatingTask_S5,2021.1.4,Win32,59.95203837,,,,,,,,,,,,,,,,,
,,,,,,,,,,,,0,5,5,5,1,sixth,13,26,F,R,IMT,2021-07-18_13h03.17.068,ImageRatingTask_S5,2021.1.4,Win32,59.95203837,,,,,,,,,,,,,,,,,
,,,,,,,,,,,,0,6,6,6,1,seventh,13,26,F,R,IMT,2021-07-18_13h03.17.068,ImageRatingTask_S5,2021.1.4,Win32,59.95203837,,,,,,,,,,,,,,,,,
,,,,,,,,,,,,0,7,7,7,1,last,13,26,F,R,IMT,2021-07-18_13h03.17.068,ImageRatingTask_S5,2021.1.4,Win32,59.95203837,,,,,,,,,,,,,,,,,
,,,,,,,,,,,,,,,,,,13,26,F,R,IMT,2021-07-18_13h03.17.068,ImageRatingTask_S5,2021.1.4,Win32,59.95203837,0,51,51,81,1,DreamStudyImages_rs1000x750g/Children/Faces_024_h.jpg,,,,,,,,,,,
,,5,1.141,1,0.121,6,1.786,1,0.32,2,3.762,0,0,0,0,1,main,13,26,F,R,IMT,2021-07-18_13h03.17.068,ImageRatingTask_S5,2021.1.4,Win32,59.95203837,,,,,,,,,,,,,,,,,
,,,,,,,,,,,,0,1,1,1,1,second,13,26,F,R,IMT,2021-07-18_13h03.17.068,ImageRatingTask_S5,2021.1.4,Win32,59.95203837,,,,,,,,,,,,,,,,,
,,,,,,,,,,,,0,2,2,2,1,third,13,26,F,R,IMT,2021-07-18_13h03.17.068,ImageRatingTask_S5,2021.1.4,Win32,59.95203837,,,,,,,,,,,,,,,,,
,,,,,,,,,,,,0,3,3,3,1,fourth,13,26,F,R,IMT,2021-07-18_13h03.17.068,ImageRatingTask_S5,2021.1.4,Win32,59.95203837,,,,,,,,,,,,,,,,,
,,,,,,,,,,,,0,4,4,4,1,fifth,13,26,F,R,IMT,2021-07-18_13h03.17.068,ImageRatingTask_S5,2021.1.4,Win32,59.95203837,,,,,,,,,,,,,,,,,
,,,,,,,,,,,,0,5,5,5,1,sixth,13,26,F,R,IMT,2021-07-18_13h03.17.068,ImageRatingTask_S5,2021.1.4,Win32,59.95203837,,,,,,,,,,,,,,,,,
,,,,,,,,,,,,0,6,6,6,1,seventh,13,26,F,R,IMT,2021-07-18_13h03.17.068,ImageRatingTask_S5,2021.1.4,Win32,59.95203837,,,,,,,,,,,,,,,,,
,,,,,,,,,,,,0,7,7,7,1,last,13,26,F,R,IMT,2021-07-18_13h03.17.068,ImageRatingTask_S5,2021.1.4,Win32,59.95203837,,,,,,,,,,,,,,,,,
,,,,,,,,,,,,,,,,,,13,26,F,R,IMT,2021-07-18_13h03.17.068,ImageRatingTask_S5,2021.1.4,Win32,59.95203837,0,52,52,128,1,DreamStudyImages_rs1000x750g/Children/IAPS2260_baby20.jpg,,,,,,,,,,,
,,5,1.552,1,0.286,5,1.248,1,0.291,2,3.295,0,0,0,0,1,main,13,26,F,R,IMT,2021-07-18_13h03.17.068,ImageRatingTask_S5,2021.1.4,Win32,59.95203837,,,,,,,,,,,,,,,,,
,,,,,,,,,,,,0,1,1,1,1,second,13,26,F,R,IMT,2021-07-18_13h03.17.068,ImageRatingTask_S5,2021.1.4,Win32,59.95203837,,,,,,,,,,,,,,,,,
,,,,,,,,,,,,0,2,2,2,1,third,13,26,F,R,IMT,2021-07-18_13h03.17.068,ImageRatingTask_S5,2021.1.4,Win32,59.95203837,,,,,,,,,,,,,,,,,
,,,,,,,,,,,,0,3,3,3,1,fourth,13,26,F,R,IMT,2021-07-18_13h03.17.068,ImageRatingTask_S5,2021.1.4,Win32,59.95203837,,,,,,,,,,,,,,,,,
,,,,,,,,,,,,0,4,4,4,1,fifth,13,26,F,R,IMT,2021-07-18_13h03.17.068,ImageRatingTask_S5,2021.1.4,Win32,59.95203837,,,,,,,,,,,,,,,,,
,,,,,,,,,,,,0,5,5,5,1,sixth,13,26,F,R,IMT,2021-07-18_13h03.17.068,ImageRatingTask_S5,2021.1.4,Win32,59.95203837,,,,,,,,,,,,,,,,,
,,,,,,,,,,,,0,6,6,6,1,seventh,13,26,F,R,IMT,2021-07-18_13h03.17.068,ImageRatingTask_S5,2021.1.4,Win32,59.95203837,,,,,,,,,,,,,,,,,
,,,,,,,,,,,,0,7,7,7,1,last,13,26,F,R,IMT,2021-07-18_13h03.17.068,ImageRatingTask_S5,2021.1.4,Win32,59.95203837,,,,,,,,,,,,,,,,,
,,,,,,,,,,,,,,,,,,13,26,F,R,IMT,2021-07-18_13h03.17.068,ImageRatingTask_S5,2021.1.4,Win32,59.95203837,0,53,53,34,1,DreamStudyImages_rs1000x750g/Mammals/IAPS1590_horse1.jpg,,,,,,,,,,,
,,5,1.621,1,0.652,9,1.548,1,0.664,7,2.432,0,0,0,0,1,main,13,26,F,R,IMT,2021-07-18_13h03.17.068,ImageRatingTask_S5,2021.1.4,Win32,59.95203837,,,,,,,,,,,,,,,,,
,,,,,,,,,,,,0,1,1,1,1,second,13,26,F,R,IMT,2021-07-18_13h03.17.068,ImageRatingTask_S5,2021.1.4,Win32,59.95203837,,,,,,,,,,,,,,,,,
,,,,,,,,,,,,0,2,2,2,1,third,13,26,F,R,IMT,2021-07-18_13h03.17.068,ImageRatingTask_S5,2021.1.4,Win32,59.95203837,,,,,,,,,,,,,,,,,
,,,,,,,,,,,,0,3,3,3,1,fourth,13,26,F,R,IMT,2021-07-18_13h03.17.068,ImageRatingTask_S5,2021.1.4,Win32,59.95203837,,,,,,,,,,,,,,,,,
,,,,,,,,,,,,0,4,4,4,1,fifth,13,26,F,R,IMT,2021-07-18_13h03.17.068,ImageRatingTask_S5,2021.1.4,Win32,59.95203837,,,,,,,,,,,,,,,,,
,,,,,,,,,,,,0,5,5,5,1,sixth,13,26,F,R,IMT,2021-07-18_13h03.17.068,ImageRatingTask_S5,2021.1.4,Win32,59.95203837,,,,,,,,,,,,,,,,,
,,,,,,,,,,,,0,6,6,6,1,seventh,13,26,F,R,IMT,2021-07-18_13h03.17.068,ImageRatingTask_S5,2021.1.4,Win32,59.95203837,,,,,,,,,,,,,,,,,
,,,,,,,,,,,,0,7,7,7,1,last,13,26,F,R,IMT,2021-07-18_13h03.17.068,ImageRatingTask_S5,2021.1.4,Win32,59.95203837,,,,,,,,,,,,,,,,,
,,,,,,,,,,,,,,,,,,13,26,F,R,IMT,2021-07-18_13h03.17.068,ImageRatingTask_S5,2021.1.4,Win32,59.95203837,0,54,54,84,1,DreamStudyImages_rs1000x750g/Vehicles/Objects_305_h.jpg,,,,,,,,,,,
,,5,1.408,1,0.501,6,3.232,1,0.632,3,0.82,0,0,0,0,1,main,13,26,F,R,IMT,2021-07-18_13h03.17.068,ImageRatingTask_S5,2021.1.4,Win32,59.95203837,,,,,,,,,,,,,,,,,
,,,,,,,,,,,,0,1,1,1,1,second,13,26,F,R,IMT,2021-07-18_13h03.17.068,ImageRatingTask_S5,2021.1.4,Win32,59.95203837,,,,,,,,,,,,,,,,,
,,,,,,,,,,,,0,2,2,2,1,third,13,26,F,R,IMT,2021-07-18_13h03.17.068,ImageRatingTask_S5,2021.1.4,Win32,59.95203837,,,,,,,,,,,,,,,,,
,,,,,,,,,,,,0,3,3,3,1,fourth,13,26,F,R,IMT,2021-07-18_13h03.17.068,ImageRatingTask_S5,2021.1.4,Win32,59.95203837,,,,,,,,,,,,,,,,,
,,,,,,,,,,,,0,4,4,4,1,fifth,13,26,F,R,IMT,2021-07-18_13h03.17.068,ImageRatingTask_S5,2021.1.4,Win32,59.95203837,,,,,,,,,,,,,,,,,
,,,,,,,,,,,,0,5,5,5,1,sixth,13,26,F,R,IMT,2021-07-18_13h03.17.068,ImageRatingTask_S5,2021.1.4,Win32,59.95203837,,,,,,,,,,,,,,,,,
,,,,,,,,,,,,0,6,6,6,1,seventh,13,26,F,R,IMT,2021-07-18_13h03.17.068,ImageRatingTask_S5,2021.1.4,Win32,59.95203837,,,,,,,,,,,,,,,,,
,,,,,,,,,,,,0,7,7,7,1,last,13,26,F,R,IMT,2021-07-18_13h03.17.068,ImageRatingTask_S5,2021.1.4,Win32,59.95203837,,,,,,,,,,,,,,,,,
,,,,,,,,,,,,,,,,,,13,26,F,R,IMT,2021-07-18_13h03.17.068,ImageRatingTask_S5,2021.1.4,Win32,59.95203837,0,55,55,147,1,DreamStudyImages_rs1000x750g/Mammals/Goat 1.jpg,,,,,,,,,,,
,,5,0.702,1,0.536,6,3.773,1,0.499,3,0.983,0,0,0,0,1,main,13,26,F,R,IMT,2021-07-18_13h03.17.068,ImageRatingTask_S5,2021.1.4,Win32,59.95203837,,,,,,,,,,,,,,,,,
,,,,,,,,,,,,0,1,1,1,1,second,13,26,F,R,IMT,2021-07-18_13h03.17.068,ImageRatingTask_S5,2021.1.4,Win32,59.95203837,,,,,,,,,,,,,,,,,
,,,,,,,,,,,,0,2,2,2,1,third,13,26,F,R,IMT,2021-07-18_13h03.17.068,ImageRatingTask_S5,2021.1.4,Win32,59.95203837,,,,,,,,,,,,,,,,,
,,,,,,,,,,,,0,3,3,3,1,fourth,13,26,F,R,IMT,2021-07-18_13h03.17.068,ImageRatingTask_S5,2021.1.4,Win32,59.95203837,,,,,,,,,,,,,,,,,
,,,,,,,,,,,,0,4,4,4,1,fifth,13,26,F,R,IMT,2021-07-18_13h03.17.068,ImageRatingTask_S5,2021.1.4,Win32,59.95203837,,,,,,,,,,,,,,,,,
,,,,,,,,,,,,0,5,5,5,1,sixth,13,26,F,R,IMT,2021-07-18_13h03.17.068,ImageRatingTask_S5,2021.1.4,Win32,59.95203837,,,,,,,,,,,,,,,,,
,,,,,,,,,,,,0,6,6,6,1,seventh,13,26,F,R,IMT,2021-07-18_13h03.17.068,ImageRatingTask_S5,2021.1.4,Win32,59.95203837,,,,,,,,,,,,,,,,,
,,,,,,,,,,,,0,7,7,7,1,last,13,26,F,R,IMT,2021-07-18_13h03.17.068,ImageRatingTask_S5,2021.1.4,Win32,59.95203837,,,,,,,,,,,,,,,,,
,,,,,,,,,,,,,,,,,,13,26,F,R,IMT,2021-07-18_13h03.17.068,ImageRatingTask_S5,2021.1.4,Win32,59.95203837,0,56,56,143,1,DreamStudyImages_rs1000x750g/Mammals/Elephant 1.jpg,,,,,,,,,,,
,,5,0.985,1,0.235,8,2.752,1,0.214,5,1.145,0,0,0,0,1,main,13,26,F,R,IMT,2021-07-18_13h03.17.068,ImageRatingTask_S5,2021.1.4,Win32,59.95203837,,,,,,,,,,,,,,,,,
,,,,,,,,,,,,0,1,1,1,1,second,13,26,F,R,IMT,2021-07-18_13h03.17.068,ImageRatingTask_S5,2021.1.4,Win32,59.95203837,,,,,,,,,,,,,,,,,
,,,,,,,,,,,,0,2,2,2,1,third,13,26,F,R,IMT,2021-07-18_13h03.17.068,ImageRatingTask_S5,2021.1.4,Win32,59.95203837,,,,,,,,,,,,,,,,,
,,,,,,,,,,,,0,3,3,3,1,fourth,13,26,F,R,IMT,2021-07-18_13h03.17.068,ImageRatingTask_S5,2021.1.4,Win32,59.95203837,,,,,,,,,,,,,,,,,
,,,,,,,,,,,,0,4,4,4,1,fifth,13,26,F,R,IMT,2021-07-18_13h03.17.068,ImageRatingTask_S5,2021.1.4,Win32,59.95203837,,,,,,,,,,,,,,,,,
,,,,,,,,,,,,0,5,5,5,1,sixth,13,26,F,R,IMT,2021-07-18_13h03.17.068,ImageRatingTask_S5,2021.1.4,Win32,59.95203837,,,,,,,,,,,,,,,,,
,,,,,,,,,,,,0,6,6,6,1,seventh,13,26,F,R,IMT,2021-07-18_13h03.17.068,ImageRatingTask_S5,2021.1.4,Win32,59.95203837,,,,,,,,,,,,,,,,,
,,,,,,,,,,,,0,7,7,7,1,last,13,26,F,R,IMT,2021-07-18_13h03.17.068,ImageRatingTask_S5,2021.1.4,Win32,59.95203837,,,,,,,,,,,,,,,,,
,,,,,,,,,,,,,,,,,,13,26,F,R,IMT,2021-07-18_13h03.17.068,ImageRatingTask_S5,2021.1.4,Win32,59.95203837,0,57,57,39,1,DreamStudyImages_rs1000x750g/Food/Objects_025_h.jpg,,,,,,,,,,,
,,5,1.923,1,0.264,9,1.07,1,0.2,2,1.745,0,0,0,0,1,main,13,26,F,R,IMT,2021-07-18_13h03.17.068,ImageRatingTask_S5,2021.1.4,Win32,59.95203837,,,,,,,,,,,,,,,,,
,,,,,,,,,,,,0,1,1,1,1,second,13,26,F,R,IMT,2021-07-18_13h03.17.068,ImageRatingTask_S5,2021.1.4,Win32,59.95203837,,,,,,,,,,,,,,,,,
,,,,,,,,,,,,0,2,2,2,1,third,13,26,F,R,IMT,2021-07-18_13h03.17.068,ImageRatingTask_S5,2021.1.4,Win32,59.95203837,,,,,,,,,,,,,,,,,
,,,,,,,,,,,,0,3,3,3,1,fourth,13,26,F,R,IMT,2021-07-18_13h03.17.068,ImageRatingTask_S5,2021.1.4,Win32,59.95203837,,,,,,,,,,,,,,,,,
,,,,,,,,,,,,0,4,4,4,1,fifth,13,26,F,R,IMT,2021-07-18_13h03.17.068,ImageRatingTask_S5,2021.1.4,Win32,59.95203837,,,,,,,,,,,,,,,,,
,,,,,,,,,,,,0,5,5,5,1,sixth,13,26,F,R,IMT,2021-07-18_13h03.17.068,ImageRatingTask_S5,2021.1.4,Win32,59.95203837,,,,,,,,,,,,,,,,,
,,,,,,,,,,,,0,6,6,6,1,seventh,13,26,F,R,IMT,2021-07-18_13h03.17.068,ImageRatingTask_S5,2021.1.4,Win32,59.95203837,,,,,,,,,,,,,,,,,
,,,,,,,,,,,,0,7,7,7,1,last,13,26,F,R,IMT,2021-07-18_13h03.17.068,ImageRatingTask_S5,2021.1.4,Win32,59.95203837,,,,,,,,,,,,,,,,,
,,,,,,,,,,,,,,,,,,13,26,F,R,IMT,2021-07-18_13h03.17.068,ImageRatingTask_S5,2021.1.4,Win32,59.95203837,0,58,58,5,1,DreamStudyImages_rs1000x750g/Children/People_043_h.jpg,,,,,,,,,,,
,,5,37.435,1,0.164,8,0.847,1,0.302,6,2.232,0,0,0,0,1,main,13,26,F,R,IMT,2021-07-18_13h03.17.068,ImageRatingTask_S5,2021.1.4,Win32,59.95203837,,,,,,,,,,,,,,,,,
,,,,,,,,,,,,0,1,1,1,1,second,13,26,F,R,IMT,2021-07-18_13h03.17.068,ImageRatingTask_S5,2021.1.4,Win32,59.95203837,,,,,,,,,,,,,,,,,
,,,,,,,,,,,,0,2,2,2,1,third,13,26,F,R,IMT,2021-07-18_13h03.17.068,ImageRatingTask_S5,2021.1.4,Win32,59.95203837,,,,,,,,,,,,,,,,,
,,,,,,,,,,,,0,3,3,3,1,fourth,13,26,F,R,IMT,2021-07-18_13h03.17.068,ImageRatingTask_S5,2021.1.4,Win32,59.95203837,,,,,,,,,,,,,,,,,
,,,,,,,,,,,,0,4,4,4,1,fifth,13,26,F,R,IMT,2021-07-18_13h03.17.068,ImageRatingTask_S5,2021.1.4,Win32,59.95203837,,,,,,,,,,,,,,,,,
,,,,,,,,,,,,0,5,5,5,1,sixth,13,26,F,R,IMT,2021-07-18_13h03.17.068,ImageRatingTask_S5,2021.1.4,Win32,59.95203837,,,,,,,,,,,,,,,,,
,,,,,,,,,,,,0,6,6,6,1,seventh,13,26,F,R,IMT,2021-07-18_13h03.17.068,ImageRatingTask_S5,2021.1.4,Win32,59.95203837,,,,,,,,,,,,,,,,,
,,,,,,,,,,,,0,7,7,7,1,last,13,26,F,R,IMT,2021-07-18_13h03.17.068,ImageRatingTask_S5,2021.1.4,Win32,59.95203837,,,,,,,,,,,,,,,,,
,,,,,,,,,,,,,,,,,,13,26,F,R,IMT,2021-07-18_13h03.17.068,ImageRatingTask_S5,2021.1.4,Win32,59.95203837,0,59,59,87,1,DreamStudyImages_rs1000x750g/Houses/Landscapes_034_h.jpg,,,,,,,,,,,
,,5,2.037,1,0.426,9,0.885,1,0.182,6,1.159,0,0,0,0,1,main,13,26,F,R,IMT,2021-07-18_13h03.17.068,ImageRatingTask_S5,2021.1.4,Win32,59.95203837,,,,,,,,,,,,,,,,,
,,,,,,,,,,,,0,1,1,1,1,second,13,26,F,R,IMT,2021-07-18_13h03.17.068,ImageRatingTask_S5,2021.1.4,Win32,59.95203837,,,,,,,,,,,,,,,,,
,,,,,,,,,,,,0,2,2,2,1,third,13,26,F,R,IMT,2021-07-18_13h03.17.068,ImageRatingTask_S5,2021.1.4,Win32,59.95203837,,,,,,,,,,,,,,,,,
,,,,,,,,,,,,0,3,3,3,1,fourth,13,26,F,R,IMT,2021-07-18_13h03.17.068,ImageRatingTask_S5,2021.1.4,Win32,59.95203837,,,,,,,,,,,,,,,,,
,,,,,,,,,,,,0,4,4,4,1,fifth,13,26,F,R,IMT,2021-07-18_13h03.17.068,ImageRatingTask_S5,2021.1.4,Win32,59.95203837,,,,,,,,,,,,,,,,,
,,,,,,,,,,,,0,5,5,5,1,sixth,13,26,F,R,IMT,2021-07-18_13h03.17.068,ImageRatingTask_S5,2021.1.4,Win32,59.95203837,,,,,,,,,,,,,,,,,
,,,,,,,,,,,,0,6,6,6,1,seventh,13,26,F,R,IMT,2021-07-18_13h03.17.068,ImageRatingTask_S5,2021.1.4,Win32,59.95203837,,,,,,,,,,,,,,,,,
,,,,,,,,,,,,0,7,7,7,1,last,13,26,F,R,IMT,2021-07-18_13h03.17.068,ImageRatingTask_S5,2021.1.4,Win32,59.95203837,,,,,,,,,,,,,,,,,
,,,,,,,,,,,,,,,,,,13,26,F,R,IMT,2021-07-18_13h03.17.068,ImageRatingTask_S5,2021.1.4,Win32,59.95203837,0,60,60,11,1,DreamStudyImages_rs1000x750g/Houses/Landscapes_044_h.jpg,,,,,,,,,,,
,,5,1.428,2,1.343,9,1.453,1,0.266,3,1.11,0,0,0,0,1,main,13,26,F,R,IMT,2021-07-18_13h03.17.068,ImageRatingTask_S5,2021.1.4,Win32,59.95203837,,,,,,,,,,,,,,,,,
,,,,,,,,,,,,0,1,1,1,1,second,13,26,F,R,IMT,2021-07-18_13h03.17.068,ImageRatingTask_S5,2021.1.4,Win32,59.95203837,,,,,,,,,,,,,,,,,
,,,,,,,,,,,,0,2,2,2,1,third,13,26,F,R,IMT,2021-07-18_13h03.17.068,ImageRatingTask_S5,2021.1.4,Win32,59.95203837,,,,,,,,,,,,,,,,,
,,,,,,,,,,,,0,3,3,3,1,fourth,13,26,F,R,IMT,2021-07-18_13h03.17.068,ImageRatingTask_S5,2021.1.4,Win32,59.95203837,,,,,,,,,,,,,,,,,
,,,,,,,,,,,,0,4,4,4,1,fifth,13,26,F,R,IMT,2021-07-18_13h03.17.068,ImageRatingTask_S5,2021.1.4,Win32,59.95203837,,,,,,,,,,,,,,,,,
,,,,,,,,,,,,0,5,5,5,1,sixth,13,26,F,R,IMT,2021-07-18_13h03.17.068,ImageRatingTask_S5,2021.1.4,Win32,59.95203837,,,,,,,,,,,,,,,,,
,,,,,,,,,,,,0,6,6,6,1,seventh,13,26,F,R,IMT,2021-07-18_13h03.17.068,ImageRatingTask_S5,2021.1.4,Win32,59.95203837,,,,,,,,,,,,,,,,,
,,,,,,,,,,,,0,7,7,7,1,last,13,26,F,R,IMT,2021-07-18_13h03.17.068,ImageRatingTask_S5,2021.1.4,Win32,59.95203837,,,,,,,,,,,,,,,,,
,,,,,,,,,,,,,,,,,,13,26,F,R,IMT,2021-07-18_13h03.17.068,ImageRatingTask_S5,2021.1.4,Win32,59.95203837,0,61,61,75,1,DreamStudyImages_rs1000x750g/Mammals/IAPS1661_orangutan.jpg,,,,,,,,,,,
,,5,1.6,1,0.349,7,2.968,1,0.883,5,0.859,0,0,0,0,1,main,13,26,F,R,IMT,2021-07-18_13h03.17.068,ImageRatingTask_S5,2021.1.4,Win32,59.95203837,,,,,,,,,,,,,,,,,
,,,,,,,,,,,,0,1,1,1,1,second,13,26,F,R,IMT,2021-07-18_13h03.17.068,ImageRatingTask_S5,2021.1.4,Win32,59.95203837,,,,,,,,,,,,,,,,,
,,,,,,,,,,,,0,2,2,2,1,third,13,26,F,R,IMT,2021-07-18_13h03.17.068,ImageRatingTask_S5,2021.1.4,Win32,59.95203837,,,,,,,,,,,,,,,,,
,,,,,,,,,,,,0,3,3,3,1,fourth,13,26,F,R,IMT,2021-07-18_13h03.17.068,ImageRatingTask_S5,2021.1.4,Win32,59.95203837,,,,,,,,,,,,,,,,,
,,,,,,,,,,,,0,4,4,4,1,fifth,13,26,F,R,IMT,2021-07-18_13h03.17.068,ImageRatingTask_S5,2021.1.4,Win32,59.95203837,,,,,,,,,,,,,,,,,
,,,,,,,,,,,,0,5,5,5,1,sixth,13,26,F,R,IMT,2021-07-18_13h03.17.068,ImageRatingTask_S5,2021.1.4,Win32,59.95203837,,,,,,,,,,,,,,,,,
,,,,,,,,,,,,0,6,6,6,1,seventh,13,26,F,R,IMT,2021-07-18_13h03.17.068,ImageRatingTask_S5,2021.1.4,Win32,59.95203837,,,,,,,,,,,,,,,,,
,,,,,,,,,,,,0,7,7,7,1,last,13,26,F,R,IMT,2021-07-18_13h03.17.068,ImageRatingTask_S5,2021.1.4,Win32,59.95203837,,,,,,,,,,,,,,,,,
,,,,,,,,,,,,,,,,,,13,26,F,R,IMT,2021-07-18_13h03.17.068,ImageRatingTask_S5,2021.1.4,Win32,59.95203837,0,62,62,73,1,DreamStudyImages_rs1000x750g/Food/Objects_095_h.jpg,,,,,,,,,,,
,,3,1.601,5,1.068,9,1.5,1,0.115,2,0.728,0,0,0,0,1,main,13,26,F,R,IMT,2021-07-18_13h03.17.068,ImageRatingTask_S5,2021.1.4,Win32,59.95203837,,,,,,,,,,,,,,,,,
,,,,,,,,,,,,0,1,1,1,1,second,13,26,F,R,IMT,2021-07-18_13h03.17.068,ImageRatingTask_S5,2021.1.4,Win32,59.95203837,,,,,,,,,,,,,,,,,
,,,,,,,,,,,,0,2,2,2,1,third,13,26,F,R,IMT,2021-07-18_13h03.17.068,ImageRatingTask_S5,2021.1.4,Win32,59.95203837,,,,,,,,,,,,,,,,,
,,,,,,,,,,,,0,3,3,3,1,fourth,13,26,F,R,IMT,2021-07-18_13h03.17.068,ImageRatingTask_S5,2021.1.4,Win32,59.95203837,,,,,,,,,,,,,,,,,
,,,,,,,,,,,,0,4,4,4,1,fifth,13,26,F,R,IMT,2021-07-18_13h03.17.068,ImageRatingTask_S5,2021.1.4,Win32,59.95203837,,,,,,,,,,,,,,,,,
,,,,,,,,,,,,0,5,5,5,1,sixth,13,26,F,R,IMT,2021-07-18_13h03.17.068,ImageRatingTask_S5,2021.1.4,Win32,59.95203837,,,,,,,,,,,,,,,,,
,,,,,,,,,,,,0,6,6,6,1,seventh,13,26,F,R,IMT,2021-07-18_13h03.17.068,ImageRatingTask_S5,2021.1.4,Win32,59.95203837,,,,,,,,,,,,,,,,,
,,,,,,,,,,,,0,7,7,7,1,last,13,26,F,R,IMT,2021-07-18_13h03.17.068,ImageRatingTask_S5,2021.1.4,Win32,59.95203837,,,,,,,,,,,,,,,,,
,,,,,,,,,,,,,,,,,,13,26,F,R,IMT,2021-07-18_13h03.17.068,ImageRatingTask_S5,2021.1.4,Win32,59.95203837,0,63,63,155,1,DreamStudyImages_rs1000x750g/Children/Faces_011_h.jpg,,,,,,,,,,,
,,4,1.29,7,1.72,8,2.087,1,0.203,6,1.211,0,0,0,0,1,main,13,26,F,R,IMT,2021-07-18_13h03.17.068,ImageRatingTask_S5,2021.1.4,Win32,59.95203837,,,,,,,,,,,,,,,,,
,,,,,,,,,,,,0,1,1,1,1,second,13,26,F,R,IMT,2021-07-18_13h03.17.068,ImageRatingTask_S5,2021.1.4,Win32,59.95203837,,,,,,,,,,,,,,,,,
,,,,,,,,,,,,0,2,2,2,1,third,13,26,F,R,IMT,2021-07-18_13h03.17.068,ImageRatingTask_S5,2021.1.4,Win32,59.95203837,,,,,,,,,,,,,,,,,
,,,,,,,,,,,,0,3,3,3,1,fourth,13,26,F,R,IMT,2021-07-18_13h03.17.068,ImageRatingTask_S5,2021.1.4,Win32,59.95203837,,,,,,,,,,,,,,,,,
,,,,,,,,,,,,0,4,4,4,1,fifth,13,26,F,R,IMT,2021-07-18_13h03.17.068,ImageRatingTask_S5,2021.1.4,Win32,59.95203837,,,,,,,,,,,,,,,,,
,,,,,,,,,,,,0,5,5,5,1,sixth,13,26,F,R,IMT,2021-07-18_13h03.17.068,ImageRatingTask_S5,2021.1.4,Win32,59.95203837,,,,,,,,,,,,,,,,,
,,,,,,,,,,,,0,6,6,6,1,seventh,13,26,F,R,IMT,2021-07-18_13h03.17.068,ImageRatingTask_S5,2021.1.4,Win32,59.95203837,,,,,,,,,,,,,,,,,
,,,,,,,,,,,,0,7,7,7,1,last,13,26,F,R,IMT,2021-07-18_13h03.17.068,ImageRatingTask_S5,2021.1.4,Win32,59.95203837,,,,,,,,,,,,,,,,,
,,,,,,,,,,,,,,,,,,13,26,F,R,IMT,2021-07-18_13h03.17.068,ImageRatingTask_S5,2021.1.4,Win32,59.95203837,0,64,64,27,1,DreamStudyImages_rs1000x750g/Houses/NDPS6_buildings3.jpg,,,,,,,,,,,
,,5,1.041,1,0.357,6,1.72,1,0.375,7,1.001,0,0,0,0,1,main,13,26,F,R,IMT,2021-07-18_13h03.17.068,ImageRatingTask_S5,2021.1.4,Win32,59.95203837,,,,,,,,,,,,,,,,,
,,,,,,,,,,,,0,1,1,1,1,second,13,26,F,R,IMT,2021-07-18_13h03.17.068,ImageRatingTask_S5,2021.1.4,Win32,59.95203837,,,,,,,,,,,,,,,,,
,,,,,,,,,,,,0,2,2,2,1,third,13,26,F,R,IMT,2021-07-18_13h03.17.068,ImageRatingTask_S5,2021.1.4,Win32,59.95203837,,,,,,,,,,,,,,,,,
,,,,,,,,,,,,0,3,3,3,1,fourth,13,26,F,R,IMT,2021-07-18_13h03.17.068,ImageRatingTask_S5,2021.1.4,Win32,59.95203837,,,,,,,,,,,,,,,,,
,,,,,,,,,,,,0,4,4,4,1,fifth,13,26,F,R,IMT,2021-07-18_13h03.17.068,ImageRatingTask_S5,2021.1.4,Win32,59.95203837,,,,,,,,,,,,,,,,,
,,,,,,,,,,,,0,5,5,5,1,sixth,13,26,F,R,IMT,2021-07-18_13h03.17.068,ImageRatingTask_S5,2021.1.4,Win32,59.95203837,,,,,,,,,,,,,,,,,
,,,,,,,,,,,,0,6,6,6,1,seventh,13,26,F,R,IMT,2021-07-18_13h03.17.068,ImageRatingTask_S5,2021.1.4,Win32,59.95203837,,,,,,,,,,,,,,,,,
,,,,,,,,,,,,0,7,7,7,1,last,13,26,F,R,IMT,2021-07-18_13h03.17.068,ImageRatingTask_S5,2021.1.4,Win32,59.95203837,,,,,,,,,,,,,,,,,
,,,,,,,,,,,,,,,,,,13,26,F,R,IMT,2021-07-18_13h03.17.068,ImageRatingTask_S5,2021.1.4,Win32,59.95203837,0,65,65,56,1,DreamStudyImages_rs1000x750g/Vehicles/IAPS7039_train3.jpg,,,,,,,,,,,
,,4,1.454,4,1.335,8,1.504,1,0.266,2,0.544,0,0,0,0,1,main,13,26,F,R,IMT,2021-07-18_13h03.17.068,ImageRatingTask_S5,2021.1.4,Win32,59.95203837,,,,,,,,,,,,,,,,,
,,,,,,,,,,,,0,1,1,1,1,second,13,26,F,R,IMT,2021-07-18_13h03.17.068,ImageRatingTask_S5,2021.1.4,Win32,59.95203837,,,,,,,,,,,,,,,,,
,,,,,,,,,,,,0,2,2,2,1,third,13,26,F,R,IMT,2021-07-18_13h03.17.068,ImageRatingTask_S5,2021.1.4,Win32,59.95203837,,,,,,,,,,,,,,,,,
,,,,,,,,,,,,0,3,3,3,1,fourth,13,26,F,R,IMT,2021-07-18_13h03.17.068,ImageRatingTask_S5,2021.1.4,Win32,59.95203837,,,,,,,,,,,,,,,,,
,,,,,,,,,,,,0,4,4,4,1,fifth,13,26,F,R,IMT,2021-07-18_13h03.17.068,ImageRatingTask_S5,2021.1.4,Win32,59.95203837,,,,,,,,,,,,,,,,,
,,,,,,,,,,,,0,5,5,5,1,sixth,13,26,F,R,IMT,2021-07-18_13h03.17.068,ImageRatingTask_S5,2021.1.4,Win32,59.95203837,,,,,,,,,,,,,,,,,
,,,,,,,,,,,,0,6,6,6,1,seventh,13,26,F,R,IMT,2021-07-18_13h03.17.068,ImageRatingTask_S5,2021.1.4,Win32,59.95203837,,,,,,,,,,,,,,,,,
,,,,,,,,,,,,0,7,7,7,1,last,13,26,F,R,IMT,2021-07-18_13h03.17.068,ImageRatingTask_S5,2021.1.4,Win32,59.95203837,,,,,,,,,,,,,,,,,
,,,,,,,,,,,,,,,,,,13,26,F,R,IMT,2021-07-18_13h03.17.068,ImageRatingTask_S5,2021.1.4,Win32,59.95203837,0,66,66,18,1,DreamStudyImages_rs1000x750g/Children/IAPS2410_boy8.jpg,,,,,,,,,,,
,,2,1.702,7,0.817,7,2.234,1,0.181,3,1.061,0,0,0,0,1,main,13,26,F,R,IMT,2021-07-18_13h03.17.068,ImageRatingTask_S5,2021.1.4,Win32,59.95203837,,,,,,,,,,,,,,,,,
,,,,,,,,,,,,0,1,1,1,1,second,13,26,F,R,IMT,2021-07-18_13h03.17.068,ImageRatingTask_S5,2021.1.4,Win32,59.95203837,,,,,,,,,,,,,,,,,
,,,,,,,,,,,,0,2,2,2,1,third,13,26,F,R,IMT,2021-07-18_13h03.17.068,ImageRatingTask_S5,2021.1.4,Win32,59.95203837,,,,,,,,,,,,,,,,,
,,,,,,,,,,,,0,3,3,3,1,fourth,13,26,F,R,IMT,2021-07-18_13h03.17.068,ImageRatingTask_S5,2021.1.4,Win32,59.95203837,,,,,,,,,,,,,,,,,
,,,,,,,,,,,,0,4,4,4,1,fifth,13,26,F,R,IMT,2021-07-18_13h03.17.068,ImageRatingTask_S5,2021.1.4,Win32,59.95203837,,,,,,,,,,,,,,,,,
,,,,,,,,,,,,0,5,5,5,1,sixth,13,26,F,R,IMT,2021-07-18_13h03.17.068,ImageRatingTask_S5,2021.1.4,Win32,59.95203837,,,,,,,,,,,,,,,,,
,,,,,,,,,,,,0,6,6,6,1,seventh,13,26,F,R,IMT,2021-07-18_13h03.17.068,ImageRatingTask_S5,2021.1.4,Win32,59.95203837,,,,,,,,,,,,,,,,,
,,,,,,,,,,,,0,7,7,7,1,last,13,26,F,R,IMT,2021-07-18_13h03.17.068,ImageRatingTask_S5,2021.1.4,Win32,59.95203837,,,,,,,,,,,,,,,,,
,,,,,,,,,,,,,,,,,,13,26,F,R,IMT,2021-07-18_13h03.17.068,ImageRatingTask_S5,2021.1.4,Win32,59.95203837,0,67,67,142,1,DreamStudyImages_rs1000x750g/Mammals/Animals_148_h.jpg,,,,,,,,,,,
,,5,1.638,1,0.207,3,1.4,1,0.68,8,1.089,0,0,0,0,1,main,13,26,F,R,IMT,2021-07-18_13h03.17.068,ImageRatingTask_S5,2021.1.4,Win32,59.95203837,,,,,,,,,,,,,,,,,
,,,,,,,,,,,,0,1,1,1,1,second,13,26,F,R,IMT,2021-07-18_13h03.17.068,ImageRatingTask_S5,2021.1.4,Win32,59.95203837,,,,,,,,,,,,,,,,,
,,,,,,,,,,,,0,2,2,2,1,third,13,26,F,R,IMT,2021-07-18_13h03.17.068,ImageRatingTask_S5,2021.1.4,Win32,59.95203837,,,,,,,,,,,,,,,,,
,,,,,,,,,,,,0,3,3,3,1,fourth,13,26,F,R,IMT,2021-07-18_13h03.17.068,ImageRatingTask_S5,2021.1.4,Win32,59.95203837,,,,,,,,,,,,,,,,,
,,,,,,,,,,,,0,4,4,4,1,fifth,13,26,F,R,IMT,2021-07-18_13h03.17.068,ImageRatingTask_S5,2021.1.4,Win32,59.95203837,,,,,,,,,,,,,,,,,
,,,,,,,,,,,,0,5,5,5,1,sixth,13,26,F,R,IMT,2021-07-18_13h03.17.068,ImageRatingTask_S5,2021.1.4,Win32,59.95203837,,,,,,,,,,,,,,,,,
,,,,,,,,,,,,0,6,6,6,1,seventh,13,26,F,R,IMT,2021-07-18_13h03.17.068,ImageRatingTask_S5,2021.1.4,Win32,59.95203837,,,,,,,,,,,,,,,,,
,,,,,,,,,,,,0,7,7,7,1,last,13,26,F,R,IMT,2021-07-18_13h03.17.068,ImageRatingTask_S5,2021.1.4,Win32,59.95203837,,,,,,,,,,,,,,,,,
,,,,,,,,,,,,,,,,,,13,26,F,R,IMT,2021-07-18_13h03.17.068,ImageRatingTask_S5,2021.1.4,Win32,59.95203837,0,68,68,26,1,DreamStudyImages_rs1000x750g/Water/IAPS7492_mountainlake_CROPPED.jpg,,,,,,,,,,,
,,5,1.519,1,0.098,7,2.816,1,0.298,8,1.979,0,0,0,0,1,main,13,26,F,R,IMT,2021-07-18_13h03.17.068,ImageRatingTask_S5,2021.1.4,Win32,59.95203837,,,,,,,,,,,,,,,,,
,,,,,,,,,,,,0,1,1,1,1,second,13,26,F,R,IMT,2021-07-18_13h03.17.068,ImageRatingTask_S5,2021.1.4,Win32,59.95203837,,,,,,,,,,,,,,,,,
,,,,,,,,,,,,0,2,2,2,1,third,13,26,F,R,IMT,2021-07-18_13h03.17.068,ImageRatingTask_S5,2021.1.4,Win32,59.95203837,,,,,,,,,,,,,,,,,
,,,,,,,,,,,,0,3,3,3,1,fourth,13,26,F,R,IMT,2021-07-18_13h03.17.068,ImageRatingTask_S5,2021.1.4,Win32,59.95203837,,,,,,,,,,,,,,,,,
,,,,,,,,,,,,0,4,4,4,1,fifth,13,26,F,R,IMT,2021-07-18_13h03.17.068,ImageRatingTask_S5,2021.1.4,Win32,59.95203837,,,,,,,,,,,,,,,,,
,,,,,,,,,,,,0,5,5,5,1,sixth,13,26,F,R,IMT,2021-07-18_13h03.17.068,ImageRatingTask_S5,2021.1.4,Win32,59.95203837,,,,,,,,,,,,,,,,,
,,,,,,,,,,,,0,6,6,6,1,seventh,13,26,F,R,IMT,2021-07-18_13h03.17.068,ImageRatingTask_S5,2021.1.4,Win32,59.95203837,,,,,,,,,,,,,,,,,
,,,,,,,,,,,,0,7,7,7,1,last,13,26,F,R,IMT,2021-07-18_13h03.17.068,ImageRatingTask_S5,2021.1.4,Win32,59.95203837,,,,,,,,,,,,,,,,,
,,,,,,,,,,,,,,,,,,13,26,F,R,IMT,2021-07-18_13h03.17.068,ImageRatingTask_S5,2021.1.4,Win32,59.95203837,0,69,69,53,1,DreamStudyImages_rs1000x750g/Water/5825.jpg,,,,,,,,,,,
,,6,1.788,1,1.024,9,1.796,1,2.016,5,0.418,0,0,0,0,1,main,13,26,F,R,IMT,2021-07-18_13h03.17.068,ImageRatingTask_S5,2021.1.4,Win32,59.95203837,,,,,,,,,,,,,,,,,
,,,,,,,,,,,,0,1,1,1,1,second,13,26,F,R,IMT,2021-07-18_13h03.17.068,ImageRatingTask_S5,2021.1.4,Win32,59.95203837,,,,,,,,,,,,,,,,,
,,,,,,,,,,,,0,2,2,2,1,third,13,26,F,R,IMT,2021-07-18_13h03.17.068,ImageRatingTask_S5,2021.1.4,Win32,59.95203837,,,,,,,,,,,,,,,,,
,,,,,,,,,,,,0,3,3,3,1,fourth,13,26,F,R,IMT,2021-07-18_13h03.17.068,ImageRatingTask_S5,2021.1.4,Win32,59.95203837,,,,,,,,,,,,,,,,,
,,,,,,,,,,,,0,4,4,4,1,fifth,13,26,F,R,IMT,2021-07-18_13h03.17.068,ImageRatingTask_S5,2021.1.4,Win32,59.95203837,,,,,,,,,,,,,,,,,
,,,,,,,,,,,,0,5,5,5,1,sixth,13,26,F,R,IMT,2021-07-18_13h03.17.068,ImageRatingTask_S5,2021.1.4,Win32,59.95203837,,,,,,,,,,,,,,,,,
,,,,,,,,,,,,0,6,6,6,1,seventh,13,26,F,R,IMT,2021-07-18_13h03.17.068,ImageRatingTask_S5,2021.1.4,Win32,59.95203837,,,,,,,,,,,,,,,,,
,,,,,,,,,,,,0,7,7,7,1,last,13,26,F,R,IMT,2021-07-18_13h03.17.068,ImageRatingTask_S5,2021.1.4,Win32,59.95203837,,,,,,,,,,,,,,,,,
,,,,,,,,,,,,,,,,,,13,26,F,R,IMT,2021-07-18_13h03.17.068,ImageRatingTask_S5,2021.1.4,Win32,59.95203837,0,70,70,68,1,DreamStudyImages_rs1000x750g/Food/Objects_085_h.jpg,,,,,,,,,,,
,,6,2.208,3,0.375,9,2.637,1,0.283,8,1.403,0,0,0,0,1,main,13,26,F,R,IMT,2021-07-18_13h03.17.068,ImageRatingTask_S5,2021.1.4,Win32,59.95203837,,,,,,,,,,,,,,,,,
,,,,,,,,,,,,0,1,1,1,1,second,13,26,F,R,IMT,2021-07-18_13h03.17.068,ImageRatingTask_S5,2021.1.4,Win32,59.95203837,,,,,,,,,,,,,,,,,
,,,,,,,,,,,,0,2,2,2,1,third,13,26,F,R,IMT,2021-07-18_13h03.17.068,ImageRatingTask_S5,2021.1.4,Win32,59.95203837,,,,,,,,,,,,,,,,,
,,,,,,,,,,,,0,3,3,3,1,fourth,13,26,F,R,IMT,2021-07-18_13h03.17.068,ImageRatingTask_S5,2021.1.4,Win32,59.95203837,,,,,,,,,,,,,,,,,
,,,,,,,,,,,,0,4,4,4,1,fifth,13,26,F,R,IMT,2021-07-18_13h03.17.068,ImageRatingTask_S5,2021.1.4,Win32,59.95203837,,,,,,,,,,,,,,,,,
,,,,,,,,,,,,0,5,5,5,1,sixth,13,26,F,R,IMT,2021-07-18_13h03.17.068,ImageRatingTask_S5,2021.1.4,Win32,59.95203837,,,,,,,,,,,,,,,,,
,,,,,,,,,,,,0,6,6,6,1,seventh,13,26,F,R,IMT,2021-07-18_13h03.17.068,ImageRatingTask_S5,2021.1.4,Win32,59.95203837,,,,,,,,,,,,,,,,,
,,,,,,,,,,,,0,7,7,7,1,last,13,26,F,R,IMT,2021-07-18_13h03.17.068,ImageRatingTask_S5,2021.1.4,Win32,59.95203837,,,,,,,,,,,,,,,,,
,,,,,,,,,,,,,,,,,,13,26,F,R,IMT,2021-07-18_13h03.17.068,ImageRatingTask_S5,2021.1.4,Win32,59.95203837,0,71,71,29,1,DreamStudyImages_rs1000x750g/Water/Landscapes_176_h.jpg,,,,,,,,,,,
,,6,2.674,2,0.573,5,1.365,1,0.471,2,2.766,0,0,0,0,1,main,13,26,F,R,IMT,2021-07-18_13h03.17.068,ImageRatingTask_S5,2021.1.4,Win32,59.95203837,,,,,,,,,,,,,,,,,
,,,,,,,,,,,,0,1,1,1,1,second,13,26,F,R,IMT,2021-07-18_13h03.17.068,ImageRatingTask_S5,2021.1.4,Win32,59.95203837,,,,,,,,,,,,,,,,,
,,,,,,,,,,,,0,2,2,2,1,third,13,26,F,R,IMT,2021-07-18_13h03.17.068,ImageRatingTask_S5,2021.1.4,Win32,59.95203837,,,,,,,,,,,,,,,,,
,,,,,,,,,,,,0,3,3,3,1,fourth,13,26,F,R,IMT,2021-07-18_13h03.17.068,ImageRatingTask_S5,2021.1.4,Win32,59.95203837,,,,,,,,,,,,,,,,,
,,,,,,,,,,,,0,4,4,4,1,fifth,13,26,F,R,IMT,2021-07-18_13h03.17.068,ImageRatingTask_S5,2021.1.4,Win32,59.95203837,,,,,,,,,,,,,,,,,
,,,,,,,,,,,,0,5,5,5,1,sixth,13,26,F,R,IMT,2021-07-18_13h03.17.068,ImageRatingTask_S5,2021.1.4,Win32,59.95203837,,,,,,,,,,,,,,,,,
,,,,,,,,,,,,0,6,6,6,1,seventh,13,26,F,R,IMT,2021-07-18_13h03.17.068,ImageRatingTask_S5,2021.1.4,Win32,59.95203837,,,,,,,,,,,,,,,,,
,,,,,,,,,,,,0,7,7,7,1,last,13,26,F,R,IMT,2021-07-18_13h03.17.068,ImageRatingTask_S5,2021.1.4,Win32,59.95203837,,,,,,,,,,,,,,,,,
,,,,,,,,,,,,,,,,,,13,26,F,R,IMT,2021-07-18_13h03.17.068,ImageRatingTask_S5,2021.1.4,Win32,59.95203837,0,72,72,100,1,DreamStudyImages_rs1000x750g/Children/IAPS2080_baby11.jpg,,,,,,,,,,,
,,5,1.609,1,0.168,7,2.482,1,0.348,2,0.46,0,0,0,0,1,main,13,26,F,R,IMT,2021-07-18_13h03.17.068,ImageRatingTask_S5,2021.1.4,Win32,59.95203837,,,,,,,,,,,,,,,,,
,,,,,,,,,,,,0,1,1,1,1,second,13,26,F,R,IMT,2021-07-18_13h03.17.068,ImageRatingTask_S5,2021.1.4,Win32,59.95203837,,,,,,,,,,,,,,,,,
,,,,,,,,,,,,0,2,2,2,1,third,13,26,F,R,IMT,2021-07-18_13h03.17.068,ImageRatingTask_S5,2021.1.4,Win32,59.95203837,,,,,,,,,,,,,,,,,
,,,,,,,,,,,,0,3,3,3,1,fourth,13,26,F,R,IMT,2021-07-18_13h03.17.068,ImageRatingTask_S5,2021.1.4,Win32,59.95203837,,,,,,,,,,,,,,,,,
,,,,,,,,,,,,0,4,4,4,1,fifth,13,26,F,R,IMT,2021-07-18_13h03.17.068,ImageRatingTask_S5,2021.1.4,Win32,59.95203837,,,,,,,,,,,,,,,,,
,,,,,,,,,,,,0,5,5,5,1,sixth,13,26,F,R,IMT,2021-07-18_13h03.17.068,ImageRatingTask_S5,2021.1.4,Win32,59.95203837,,,,,,,,,,,,,,,,,
,,,,,,,,,,,,0,6,6,6,1,seventh,13,26,F,R,IMT,2021-07-18_13h03.17.068,ImageRatingTask_S5,2021.1.4,Win32,59.95203837,,,,,,,,,,,,,,,,,
,,,,,,,,,,,,0,7,7,7,1,last,13,26,F,R,IMT,2021-07-18_13h03.17.068,ImageRatingTask_S5,2021.1.4,Win32,59.95203837,,,,,,,,,,,,,,,,,
,,,,,,,,,,,,,,,,,,13,26,F,R,IMT,2021-07-18_13h03.17.068,ImageRatingTask_S5,2021.1.4,Win32,59.95203837,0,73,73,93,1,DreamStudyImages_rs1000x750g/Children/Excited face 5.jpg,,,,,,,,,,,
,,4,1.357,2,0.645,6,2.2,1,0.253,3,1.626,0,0,0,0,1,main,13,26,F,R,IMT,2021-07-18_13h03.17.068,ImageRatingTask_S5,2021.1.4,Win32,59.95203837,,,,,,,,,,,,,,,,,
,,,,,,,,,,,,0,1,1,1,1,second,13,26,F,R,IMT,2021-07-18_13h03.17.068,ImageRatingTask_S5,2021.1.4,Win32,59.95203837,,,,,,,,,,,,,,,,,
,,,,,,,,,,,,0,2,2,2,1,third,13,26,F,R,IMT,2021-07-18_13h03.17.068,ImageRatingTask_S5,2021.1.4,Win32,59.95203837,,,,,,,,,,,,,,,,,
,,,,,,,,,,,,0,3,3,3,1,fourth,13,26,F,R,IMT,2021-07-18_13h03.17.068,ImageRatingTask_S5,2021.1.4,Win32,59.95203837,,,,,,,,,,,,,,,,,
,,,,,,,,,,,,0,4,4,4,1,fifth,13,26,F,R,IMT,2021-07-18_13h03.17.068,ImageRatingTask_S5,2021.1.4,Win32,59.95203837,,,,,,,,,,,,,,,,,
,,,,,,,,,,,,0,5,5,5,1,sixth,13,26,F,R,IMT,2021-07-18_13h03.17.068,ImageRatingTask_S5,2021.1.4,Win32,59.95203837,,,,,,,,,,,,,,,,,
,,,,,,,,,,,,0,6,6,6,1,seventh,13,26,F,R,IMT,2021-07-18_13h03.17.068,ImageRatingTask_S5,2021.1.4,Win32,59.95203837,,,,,,,,,,,,,,,,,
,,,,,,,,,,,,0,7,7,7,1,last,13,26,F,R,IMT,2021-07-18_13h03.17.068,ImageRatingTask_S5,2021.1.4,Win32,59.95203837,,,,,,,,,,,,,,,,,
,,,,,,,,,,,,,,,,,,13,26,F,R,IMT,2021-07-18_13h03.17.068,ImageRatingTask_S5,2021.1.4,Win32,59.95203837,0,74,74,132,1,DreamStudyImages_rs1000x750g/Children/Sad face 8.jpg,,,,,,,,,,,
,,5,1.442,1,0.605,7,4.585,1,0.781,5,1.418,0,0,0,0,1,main,13,26,F,R,IMT,2021-07-18_13h03.17.068,ImageRatingTask_S5,2021.1.4,Win32,59.95203837,,,,,,,,,,,,,,,,,
,,,,,,,,,,,,0,1,1,1,1,second,13,26,F,R,IMT,2021-07-18_13h03.17.068,ImageRatingTask_S5,2021.1.4,Win32,59.95203837,,,,,,,,,,,,,,,,,
,,,,,,,,,,,,0,2,2,2,1,third,13,26,F,R,IMT,2021-07-18_13h03.17.068,ImageRatingTask_S5,2021.1.4,Win32,59.95203837,,,,,,,,,,,,,,,,,
,,,,,,,,,,,,0,3,3,3,1,fourth,13,26,F,R,IMT,2021-07-18_13h03.17.068,ImageRatingTask_S5,2021.1.4,Win32,59.95203837,,,,,,,,,,,,,,,,,
,,,,,,,,,,,,0,4,4,4,1,fifth,13,26,F,R,IMT,2021-07-18_13h03.17.068,ImageRatingTask_S5,2021.1.4,Win32,59.95203837,,,,,,,,,,,,,,,,,
,,,,,,,,,,,,0,5,5,5,1,sixth,13,26,F,R,IMT,2021-07-18_13h03.17.068,ImageRatingTask_S5,2021.1.4,Win32,59.95203837,,,,,,,,,,,,,,,,,
,,,,,,,,,,,,0,6,6,6,1,seventh,13,26,F,R,IMT,2021-07-18_13h03.17.068,ImageRatingTask_S5,2021.1.4,Win32,59.95203837,,,,,,,,,,,,,,,,,
,,,,,,,,,,,,0,7,7,7,1,last,13,26,F,R,IMT,2021-07-18_13h03.17.068,ImageRatingTask_S5,2021.1.4,Win32,59.95203837,,,,,,,,,,,,,,,,,
,,,,,,,,,,,,,,,,,,13,26,F,R,IMT,2021-07-18_13h03.17.068,ImageRatingTask_S5,2021.1.4,Win32,59.95203837,0,75,75,135,1,DreamStudyImages_rs1000x750g/Food/Dessert 4.jpg,,,,,,,,,,,
,,5,0.907,1,0.091,8,2.502,1,0.212,8,1.448,0,0,0,0,1,main,13,26,F,R,IMT,2021-07-18_13h03.17.068,ImageRatingTask_S5,2021.1.4,Win32,59.95203837,,,,,,,,,,,,,,,,,
,,,,,,,,,,,,0,1,1,1,1,second,13,26,F,R,IMT,2021-07-18_13h03.17.068,ImageRatingTask_S5,2021.1.4,Win32,59.95203837,,,,,,,,,,,,,,,,,
,,,,,,,,,,,,0,2,2,2,1,third,13,26,F,R,IMT,2021-07-18_13h03.17.068,ImageRatingTask_S5,2021.1.4,Win32,59.95203837,,,,,,,,,,,,,,,,,
,,,,,,,,,,,,0,3,3,3,1,fourth,13,26,F,R,IMT,2021-07-18_13h03.17.068,ImageRatingTask_S5,2021.1.4,Win32,59.95203837,,,,,,,,,,,,,,,,,
,,,,,,,,,,,,0,4,4,4,1,fifth,13,26,F,R,IMT,2021-07-18_13h03.17.068,ImageRatingTask_S5,2021.1.4,Win32,59.95203837,,,,,,,,,,,,,,,,,
,,,,,,,,,,,,0,5,5,5,1,sixth,13,26,F,R,IMT,2021-07-18_13h03.17.068,ImageRatingTask_S5,2021.1.4,Win32,59.95203837,,,,,,,,,,,,,,,,,
,,,,,,,,,,,,0,6,6,6,1,seventh,13,26,F,R,IMT,2021-07-18_13h03.17.068,ImageRatingTask_S5,2021.1.4,Win32,59.95203837,,,,,,,,,,,,,,,,,
,,,,,,,,,,,,0,7,7,7,1,last,13,26,F,R,IMT,2021-07-18_13h03.17.068,ImageRatingTask_S5,2021.1.4,Win32,59.95203837,,,,,,,,,,,,,,,,,
,,,,,,,,,,,,,,,,,,13,26,F,R,IMT,2021-07-18_13h03.17.068,ImageRatingTask_S5,2021.1.4,Win32,59.95203837,0,76,76,118,1,DreamStudyImages_rs1000x750g/Water/waveonrocks.jpg,,,,,,,,,,,
,,1,2.371,7,1.004,8,2.703,1,0.204,3,1.897,0,0,0,0,1,main,13,26,F,R,IMT,2021-07-18_13h03.17.068,ImageRatingTask_S5,2021.1.4,Win32,59.95203837,,,,,,,,,,,,,,,,,
,,,,,,,,,,,,0,1,1,1,1,second,13,26,F,R,IMT,2021-07-18_13h03.17.068,ImageRatingTask_S5,2021.1.4,Win32,59.95203837,,,,,,,,,,,,,,,,,
,,,,,,,,,,,,0,2,2,2,1,third,13,26,F,R,IMT,2021-07-18_13h03.17.068,ImageRatingTask_S5,2021.1.4,Win32,59.95203837,,,,,,,,,,,,,,,,,
,,,,,,,,,,,,0,3,3,3,1,fourth,13,26,F,R,IMT,2021-07-18_13h03.17.068,ImageRatingTask_S5,2021.1.4,Win32,59.95203837,,,,,,,,,,,,,,,,,
,,,,,,,,,,,,0,4,4,4,1,fifth,13,26,F,R,IMT,2021-07-18_13h03.17.068,ImageRatingTask_S5,2021.1.4,Win32,59.95203837,,,,,,,,,,,,,,,,,
,,,,,,,,,,,,0,5,5,5,1,sixth,13,26,F,R,IMT,2021-07-18_13h03.17.068,ImageRatingTask_S5,2021.1.4,Win32,59.95203837,,,,,,,,,,,,,,,,,
,,,,,,,,,,,,0,6,6,6,1,seventh,13,26,F,R,IMT,2021-07-18_13h03.17.068,ImageRatingTask_S5,2021.1.4,Win32,59.95203837,,,,,,,,,,,,,,,,,
,,,,,,,,,,,,0,7,7,7,1,last,13,26,F,R,IMT,2021-07-18_13h03.17.068,ImageRatingTask_S5,2021.1.4,Win32,59.95203837,,,,,,,,,,,,,,,,,
,,,,,,,,,,,,,,,,,,13,26,F,R,IMT,2021-07-18_13h03.17.068,ImageRatingTask_S5,2021.1.4,Win32,59.95203837,0,77,77,74,1,DreamStudyImages_rs1000x750g/Mammals/Animals_013_h.jpg,,,,,,,,,,,
,,5,1.151,1,0.139,7,3.701,1,0.332,8,1.229,0,0,0,0,1,main,13,26,F,R,IMT,2021-07-18_13h03.17.068,ImageRatingTask_S5,2021.1.4,Win32,59.95203837,,,,,,,,,,,,,,,,,
,,,,,,,,,,,,0,1,1,1,1,second,13,26,F,R,IMT,2021-07-18_13h03.17.068,ImageRatingTask_S5,2021.1.4,Win32,59.95203837,,,,,,,,,,,,,,,,,
,,,,,,,,,,,,0,2,2,2,1,third,13,26,F,R,IMT,2021-07-18_13h03.17.068,ImageRatingTask_S5,2021.1.4,Win32,59.95203837,,,,,,,,,,,,,,,,,
,,,,,,,,,,,,0,3,3,3,1,fourth,13,26,F,R,IMT,2021-07-18_13h03.17.068,ImageRatingTask_S5,2021.1.4,Win32,59.95203837,,,,,,,,,,,,,,,,,
,,,,,,,,,,,,0,4,4,4,1,fifth,13,26,F,R,IMT,2021-07-18_13h03.17.068,ImageRatingTask_S5,2021.1.4,Win32,59.95203837,,,,,,,,,,,,,,,,,
,,,,,,,,,,,,0,5,5,5,1,sixth,13,26,F,R,IMT,2021-07-18_13h03.17.068,ImageRatingTask_S5,2021.1.4,Win32,59.95203837,,,,,,,,,,,,,,,,,
,,,,,,,,,,,,0,6,6,6,1,seventh,13,26,F,R,IMT,2021-07-18_13h03.17.068,ImageRatingTask_S5,2021.1.4,Win32,59.95203837,,,,,,,,,,,,,,,,,
,,,,,,,,,,,,0,7,7,7,1,last,13,26,F,R,IMT,2021-07-18_13h03.17.068,ImageRatingTask_S5,2021.1.4,Win32,59.95203837,,,,,,,,,,,,,,,,,
,,,,,,,,,,,,,,,,,,13,26,F,R,IMT,2021-07-18_13h03.17.068,ImageRatingTask_S5,2021.1.4,Win32,59.95203837,0,78,78,130,1,DreamStudyImages_rs1000x750g/Water/Rainbow 1.jpg,,,,,,,,,,,
,,5,1.327,1,1.969,8,4.201,1,0.217,5,0.948,0,0,0,0,1,main,13,26,F,R,IMT,2021-07-18_13h03.17.068,ImageRatingTask_S5,2021.1.4,Win32,59.95203837,,,,,,,,,,,,,,,,,
,,,,,,,,,,,,0,1,1,1,1,second,13,26,F,R,IMT,2021-07-18_13h03.17.068,ImageRatingTask_S5,2021.1.4,Win32,59.95203837,,,,,,,,,,,,,,,,,
,,,,,,,,,,,,0,2,2,2,1,third,13,26,F,R,IMT,2021-07-18_13h03.17.068,ImageRatingTask_S5,2021.1.4,Win32,59.95203837,,,,,,,,,,,,,,,,,
,,,,,,,,,,,,0,3,3,3,1,fourth,13,26,F,R,IMT,2021-07-18_13h03.17.068,ImageRatingTask_S5,2021.1.4,Win32,59.95203837,,,,,,,,,,,,,,,,,
,,,,,,,,,,,,0,4,4,4,1,fifth,13,26,F,R,IMT,2021-07-18_13h03.17.068,ImageRatingTask_S5,2021.1.4,Win32,59.95203837,,,,,,,,,,,,,,,,,
,,,,,,,,,,,,0,5,5,5,1,sixth,13,26,F,R,IMT,2021-07-18_13h03.17.068,ImageRatingTask_S5,2021.1.4,Win32,59.95203837,,,,,,,,,,,,,,,,,
,,,,,,,,,,,,0,6,6,6,1,seventh,13,26,F,R,IMT,2021-07-18_13h03.17.068,ImageRatingTask_S5,2021.1.4,Win32,59.95203837,,,,,,,,,,,,,,,,,
,,,,,,,,,,,,0,7,7,7,1,last,13,26,F,R,IMT,2021-07-18_13h03.17.068,ImageRatingTask_S5,2021.1.4,Win32,59.95203837,,,,,,,,,,,,,,,,,
