slider_pre.response,slider_pre.rt,key_val.keys,key_val.rt,key_aro.keys,key_aro.rt,key_qual.keys,key_qual.rt,key_ncat.keys,key_ncat.rt,key_cats.keys,key_cats.rt,ncat_order.thisRepN,ncat_order.thisTrialN,ncat_order.thisN,ncat_order.thisIndex,ncat_order.ran,cond_cat,participant,age,gender,handedness (L/R),site (IMT/Donders),date,expName,psychopyVersion,OS,frameRate,img_trials.thisRepN,img_trials.thisTrialN,img_trials.thisN,img_trials.thisIndex,img_trials.ran,filename,slider_post.response,slider_post.rt,textbox_openfb.text
7,7.0767,4,5.9056,3,2.0822,3,3.0229,1,2.3397,3,2.0545,0,0,0,0,1,main,14,27,F,R,IMT,2021-07-11_14h18.47.138,ImageRatingTask_S3,2021.1.4,MacIntel,59.94125757,,,,,,,,,
,,,,,,,,,,,,0,1,1,1,1,second,14,27,F,R,IMT,2021-07-11_14h18.47.138,ImageRatingTask_S3,2021.1.4,MacIntel,59.94125757,,,,,,,,,
,,,,,,,,,,,,0,2,2,2,1,third,14,27,F,R,IMT,2021-07-11_14h18.47.138,ImageRatingTask_S3,2021.1.4,MacIntel,59.94125757,,,,,,,,,
,,,,,,,,,,,,0,3,3,3,1,fourth,14,27,F,R,IMT,2021-07-11_14h18.47.138,ImageRatingTask_S3,2021.1.4,MacIntel,59.94125757,,,,,,,,,
,,,,,,,,,,,,0,4,4,4,1,fifth,14,27,F,R,IMT,2021-07-11_14h18.47.138,ImageRatingTask_S3,2021.1.4,MacIntel,59.94125757,,,,,,,,,
,,,,,,,,,,,,0,5,5,5,1,sixth,14,27,F,R,IMT,2021-07-11_14h18.47.138,ImageRatingTask_S3,2021.1.4,MacIntel,59.94125757,,,,,,,,,
,,,,,,,,,,,,0,6,6,6,1,seventh,14,27,F,R,IMT,2021-07-11_14h18.47.138,ImageRatingTask_S3,2021.1.4,MacIntel,59.94125757,,,,,,,,,
,,,,,,,,,,,,0,7,7,7,1,last,14,27,F,R,IMT,2021-07-11_14h18.47.138,ImageRatingTask_S3,2021.1.4,MacIntel,59.94125757,,,,,,,,,
,,,,,,,,,,,,,,,,,,14,27,F,R,IMT,2021-07-11_14h18.47.138,ImageRatingTask_S3,2021.1.4,MacIntel,59.94125757,0,0,0,139,1,DreamStudyImages_rs1000x750g/Mammals/IAPS1540_cat.jpg,,,
,,5,3.3358,1,0.512,4,42.6007,1,2.4436,7,1.377,0,0,0,0,1,main,14,27,F,R,IMT,2021-07-11_14h18.47.138,ImageRatingTask_S3,2021.1.4,MacIntel,59.94125757,,,,,,,,,
,,,,,,,,,,,,0,1,1,1,1,second,14,27,F,R,IMT,2021-07-11_14h18.47.138,ImageRatingTask_S3,2021.1.4,MacIntel,59.94125757,,,,,,,,,
,,,,,,,,,,,,0,2,2,2,1,third,14,27,F,R,IMT,2021-07-11_14h18.47.138,ImageRatingTask_S3,2021.1.4,MacIntel,59.94125757,,,,,,,,,
,,,,,,,,,,,,0,3,3,3,1,fourth,14,27,F,R,IMT,2021-07-11_14h18.47.138,ImageRatingTask_S3,2021.1.4,MacIntel,59.94125757,,,,,,,,,
,,,,,,,,,,,,0,4,4,4,1,fifth,14,27,F,R,IMT,2021-07-11_14h18.47.138,ImageRatingTask_S3,2021.1.4,MacIntel,59.94125757,,,,,,,,,
,,,,,,,,,,,,0,5,5,5,1,sixth,14,27,F,R,IMT,2021-07-11_14h18.47.138,ImageRatingTask_S3,2021.1.4,MacIntel,59.94125757,,,,,,,,,
,,,,,,,,,,,,0,6,6,6,1,seventh,14,27,F,R,IMT,2021-07-11_14h18.47.138,ImageRatingTask_S3,2021.1.4,MacIntel,59.94125757,,,,,,,,,
,,,,,,,,,,,,0,7,7,7,1,last,14,27,F,R,IMT,2021-07-11_14h18.47.138,ImageRatingTask_S3,2021.1.4,MacIntel,59.94125757,,,,,,,,,
,,,,,,,,,,,,,,,,,,14,27,F,R,IMT,2021-07-11_14h18.47.138,ImageRatingTask_S3,2021.1.4,MacIntel,59.94125757,0,1,1,119,1,DreamStudyImages_rs1000x750g/Vehicles/Objects_244_h.jpg,,,
,,6,2.3789,1,5.1808,6,2.2392,1,1.2804,2,1.0356,0,0,0,0,1,main,14,27,F,R,IMT,2021-07-11_14h18.47.138,ImageRatingTask_S3,2021.1.4,MacIntel,59.94125757,,,,,,,,,
,,,,,,,,,,,,0,1,1,1,1,second,14,27,F,R,IMT,2021-07-11_14h18.47.138,ImageRatingTask_S3,2021.1.4,MacIntel,59.94125757,,,,,,,,,
,,,,,,,,,,,,0,2,2,2,1,third,14,27,F,R,IMT,2021-07-11_14h18.47.138,ImageRatingTask_S3,2021.1.4,MacIntel,59.94125757,,,,,,,,,
,,,,,,,,,,,,0,3,3,3,1,fourth,14,27,F,R,IMT,2021-07-11_14h18.47.138,ImageRatingTask_S3,2021.1.4,MacIntel,59.94125757,,,,,,,,,
,,,,,,,,,,,,0,4,4,4,1,fifth,14,27,F,R,IMT,2021-07-11_14h18.47.138,ImageRatingTask_S3,2021.1.4,MacIntel,59.94125757,,,,,,,,,
,,,,,,,,,,,,0,5,5,5,1,sixth,14,27,F,R,IMT,2021-07-11_14h18.47.138,ImageRatingTask_S3,2021.1.4,MacIntel,59.94125757,,,,,,,,,
,,,,,,,,,,,,0,6,6,6,1,seventh,14,27,F,R,IMT,2021-07-11_14h18.47.138,ImageRatingTask_S3,2021.1.4,MacIntel,59.94125757,,,,,,,,,
,,,,,,,,,,,,0,7,7,7,1,last,14,27,F,R,IMT,2021-07-11_14h18.47.138,ImageRatingTask_S3,2021.1.4,MacIntel,59.94125757,,,,,,,,,
,,,,,,,,,,,,,,,,,,14,27,F,R,IMT,2021-07-11_14h18.47.138,ImageRatingTask_S3,2021.1.4,MacIntel,59.94125757,0,2,2,152,1,DreamStudyImages_rs1000x750g/Children/Faces_115_h.jpg,,,
,,4,2.8844,2,2.164,4,3.9383,1,1.8104,2,0.8258,0,0,0,0,1,main,14,27,F,R,IMT,2021-07-11_14h18.47.138,ImageRatingTask_S3,2021.1.4,MacIntel,59.94125757,,,,,,,,,
,,,,,,,,,,,,0,1,1,1,1,second,14,27,F,R,IMT,2021-07-11_14h18.47.138,ImageRatingTask_S3,2021.1.4,MacIntel,59.94125757,,,,,,,,,
,,,,,,,,,,,,0,2,2,2,1,third,14,27,F,R,IMT,2021-07-11_14h18.47.138,ImageRatingTask_S3,2021.1.4,MacIntel,59.94125757,,,,,,,,,
,,,,,,,,,,,,0,3,3,3,1,fourth,14,27,F,R,IMT,2021-07-11_14h18.47.138,ImageRatingTask_S3,2021.1.4,MacIntel,59.94125757,,,,,,,,,
,,,,,,,,,,,,0,4,4,4,1,fifth,14,27,F,R,IMT,2021-07-11_14h18.47.138,ImageRatingTask_S3,2021.1.4,MacIntel,59.94125757,,,,,,,,,
,,,,,,,,,,,,0,5,5,5,1,sixth,14,27,F,R,IMT,2021-07-11_14h18.47.138,ImageRatingTask_S3,2021.1.4,MacIntel,59.94125757,,,,,,,,,
,,,,,,,,,,,,0,6,6,6,1,seventh,14,27,F,R,IMT,2021-07-11_14h18.47.138,ImageRatingTask_S3,2021.1.4,MacIntel,59.94125757,,,,,,,,,
,,,,,,,,,,,,0,7,7,7,1,last,14,27,F,R,IMT,2021-07-11_14h18.47.138,ImageRatingTask_S3,2021.1.4,MacIntel,59.94125757,,,,,,,,,
,,,,,,,,,,,,,,,,,,14,27,F,R,IMT,2021-07-11_14h18.47.138,ImageRatingTask_S3,2021.1.4,MacIntel,59.94125757,0,3,3,43,1,DreamStudyImages_rs1000x750g/Children/IAPS2276_girl3.jpg,,,
,,4,4.5329,2,0.9032,3,7.859,1,6.8084,7,1.1852,0,0,0,0,1,main,14,27,F,R,IMT,2021-07-11_14h18.47.138,ImageRatingTask_S3,2021.1.4,MacIntel,59.94125757,,,,,,,,,
,,,,,,,,,,,,0,1,1,1,1,second,14,27,F,R,IMT,2021-07-11_14h18.47.138,ImageRatingTask_S3,2021.1.4,MacIntel,59.94125757,,,,,,,,,
,,,,,,,,,,,,0,2,2,2,1,third,14,27,F,R,IMT,2021-07-11_14h18.47.138,ImageRatingTask_S3,2021.1.4,MacIntel,59.94125757,,,,,,,,,
,,,,,,,,,,,,0,3,3,3,1,fourth,14,27,F,R,IMT,2021-07-11_14h18.47.138,ImageRatingTask_S3,2021.1.4,MacIntel,59.94125757,,,,,,,,,
,,,,,,,,,,,,0,4,4,4,1,fifth,14,27,F,R,IMT,2021-07-11_14h18.47.138,ImageRatingTask_S3,2021.1.4,MacIntel,59.94125757,,,,,,,,,
,,,,,,,,,,,,0,5,5,5,1,sixth,14,27,F,R,IMT,2021-07-11_14h18.47.138,ImageRatingTask_S3,2021.1.4,MacIntel,59.94125757,,,,,,,,,
,,,,,,,,,,,,0,6,6,6,1,seventh,14,27,F,R,IMT,2021-07-11_14h18.47.138,ImageRatingTask_S3,2021.1.4,MacIntel,59.94125757,,,,,,,,,
,,,,,,,,,,,,0,7,7,7,1,last,14,27,F,R,IMT,2021-07-11_14h18.47.138,ImageRatingTask_S3,2021.1.4,MacIntel,59.94125757,,,,,,,,,
,,,,,,,,,,,,,,,,,,14,27,F,R,IMT,2021-07-11_14h18.47.138,ImageRatingTask_S3,2021.1.4,MacIntel,59.94125757,0,4,4,58,1,DreamStudyImages_rs1000x750g/Vehicles/IAPS9912_abandonedcar.jpg,,,
,,5,4.4843,2,1.3542,8,3.1319,1,1.1304,2,0.7428,0,0,0,0,1,main,14,27,F,R,IMT,2021-07-11_14h18.47.138,ImageRatingTask_S3,2021.1.4,MacIntel,59.94125757,,,,,,,,,
,,,,,,,,,,,,0,1,1,1,1,second,14,27,F,R,IMT,2021-07-11_14h18.47.138,ImageRatingTask_S3,2021.1.4,MacIntel,59.94125757,,,,,,,,,
,,,,,,,,,,,,0,2,2,2,1,third,14,27,F,R,IMT,2021-07-11_14h18.47.138,ImageRatingTask_S3,2021.1.4,MacIntel,59.94125757,,,,,,,,,
,,,,,,,,,,,,0,3,3,3,1,fourth,14,27,F,R,IMT,2021-07-11_14h18.47.138,ImageRatingTask_S3,2021.1.4,MacIntel,59.94125757,,,,,,,,,
,,,,,,,,,,,,0,4,4,4,1,fifth,14,27,F,R,IMT,2021-07-11_14h18.47.138,ImageRatingTask_S3,2021.1.4,MacIntel,59.94125757,,,,,,,,,
,,,,,,,,,,,,0,5,5,5,1,sixth,14,27,F,R,IMT,2021-07-11_14h18.47.138,ImageRatingTask_S3,2021.1.4,MacIntel,59.94125757,,,,,,,,,
,,,,,,,,,,,,0,6,6,6,1,seventh,14,27,F,R,IMT,2021-07-11_14h18.47.138,ImageRatingTask_S3,2021.1.4,MacIntel,59.94125757,,,,,,,,,
,,,,,,,,,,,,0,7,7,7,1,last,14,27,F,R,IMT,2021-07-11_14h18.47.138,ImageRatingTask_S3,2021.1.4,MacIntel,59.94125757,,,,,,,,,
,,,,,,,,,,,,,,,,,,14,27,F,R,IMT,2021-07-11_14h18.47.138,ImageRatingTask_S3,2021.1.4,MacIntel,59.94125757,0,5,5,74,1,DreamStudyImages_rs1000x750g/Children/Faces_058_h.jpg,,,
,,5,2.5304,1,0.4957,7,1.9158,1,1.9436,7,1.2476,0,0,0,0,1,main,14,27,F,R,IMT,2021-07-11_14h18.47.138,ImageRatingTask_S3,2021.1.4,MacIntel,59.94125757,,,,,,,,,
,,,,,,,,,,,,0,1,1,1,1,second,14,27,F,R,IMT,2021-07-11_14h18.47.138,ImageRatingTask_S3,2021.1.4,MacIntel,59.94125757,,,,,,,,,
,,,,,,,,,,,,0,2,2,2,1,third,14,27,F,R,IMT,2021-07-11_14h18.47.138,ImageRatingTask_S3,2021.1.4,MacIntel,59.94125757,,,,,,,,,
,,,,,,,,,,,,0,3,3,3,1,fourth,14,27,F,R,IMT,2021-07-11_14h18.47.138,ImageRatingTask_S3,2021.1.4,MacIntel,59.94125757,,,,,,,,,
,,,,,,,,,,,,0,4,4,4,1,fifth,14,27,F,R,IMT,2021-07-11_14h18.47.138,ImageRatingTask_S3,2021.1.4,MacIntel,59.94125757,,,,,,,,,
,,,,,,,,,,,,0,5,5,5,1,sixth,14,27,F,R,IMT,2021-07-11_14h18.47.138,ImageRatingTask_S3,2021.1.4,MacIntel,59.94125757,,,,,,,,,
,,,,,,,,,,,,0,6,6,6,1,seventh,14,27,F,R,IMT,2021-07-11_14h18.47.138,ImageRatingTask_S3,2021.1.4,MacIntel,59.94125757,,,,,,,,,
,,,,,,,,,,,,0,7,7,7,1,last,14,27,F,R,IMT,2021-07-11_14h18.47.138,ImageRatingTask_S3,2021.1.4,MacIntel,59.94125757,,,,,,,,,
,,,,,,,,,,,,,,,,,,14,27,F,R,IMT,2021-07-11_14h18.47.138,ImageRatingTask_S3,2021.1.4,MacIntel,59.94125757,0,6,6,59,1,DreamStudyImages_rs1000x750g/Vehicles/Objects_250_h.jpg,,,
,,7,5.3406,1,4.6248,6,2.7321,1,2.5851,6,1.44,0,0,0,0,1,main,14,27,F,R,IMT,2021-07-11_14h18.47.138,ImageRatingTask_S3,2021.1.4,MacIntel,59.94125757,,,,,,,,,
,,,,,,,,,,,,0,1,1,1,1,second,14,27,F,R,IMT,2021-07-11_14h18.47.138,ImageRatingTask_S3,2021.1.4,MacIntel,59.94125757,,,,,,,,,
,,,,,,,,,,,,0,2,2,2,1,third,14,27,F,R,IMT,2021-07-11_14h18.47.138,ImageRatingTask_S3,2021.1.4,MacIntel,59.94125757,,,,,,,,,
,,,,,,,,,,,,0,3,3,3,1,fourth,14,27,F,R,IMT,2021-07-11_14h18.47.138,ImageRatingTask_S3,2021.1.4,MacIntel,59.94125757,,,,,,,,,
,,,,,,,,,,,,0,4,4,4,1,fifth,14,27,F,R,IMT,2021-07-11_14h18.47.138,ImageRatingTask_S3,2021.1.4,MacIntel,59.94125757,,,,,,,,,
,,,,,,,,,,,,0,5,5,5,1,sixth,14,27,F,R,IMT,2021-07-11_14h18.47.138,ImageRatingTask_S3,2021.1.4,MacIntel,59.94125757,,,,,,,,,
,,,,,,,,,,,,0,6,6,6,1,seventh,14,27,F,R,IMT,2021-07-11_14h18.47.138,ImageRatingTask_S3,2021.1.4,MacIntel,59.94125757,,,,,,,,,
,,,,,,,,,,,,0,7,7,7,1,last,14,27,F,R,IMT,2021-07-11_14h18.47.138,ImageRatingTask_S3,2021.1.4,MacIntel,59.94125757,,,,,,,,,
,,,,,,,,,,,,,,,,,,14,27,F,R,IMT,2021-07-11_14h18.47.138,ImageRatingTask_S3,2021.1.4,MacIntel,59.94125757,0,7,7,12,1,DreamStudyImages_rs1000x750g/Houses/Landscapes_088_v.jpg,,,
,,6,19.529,1,1.4453,7,2.1696,1,1.2863,8,1.1963,0,0,0,0,1,main,14,27,F,R,IMT,2021-07-11_14h18.47.138,ImageRatingTask_S3,2021.1.4,MacIntel,59.94125757,,,,,,,,,
,,,,,,,,,,,,0,1,1,1,1,second,14,27,F,R,IMT,2021-07-11_14h18.47.138,ImageRatingTask_S3,2021.1.4,MacIntel,59.94125757,,,,,,,,,
,,,,,,,,,,,,0,2,2,2,1,third,14,27,F,R,IMT,2021-07-11_14h18.47.138,ImageRatingTask_S3,2021.1.4,MacIntel,59.94125757,,,,,,,,,
,,,,,,,,,,,,0,3,3,3,1,fourth,14,27,F,R,IMT,2021-07-11_14h18.47.138,ImageRatingTask_S3,2021.1.4,MacIntel,59.94125757,,,,,,,,,
,,,,,,,,,,,,0,4,4,4,1,fifth,14,27,F,R,IMT,2021-07-11_14h18.47.138,ImageRatingTask_S3,2021.1.4,MacIntel,59.94125757,,,,,,,,,
,,,,,,,,,,,,0,5,5,5,1,sixth,14,27,F,R,IMT,2021-07-11_14h18.47.138,ImageRatingTask_S3,2021.1.4,MacIntel,59.94125757,,,,,,,,,
,,,,,,,,,,,,0,6,6,6,1,seventh,14,27,F,R,IMT,2021-07-11_14h18.47.138,ImageRatingTask_S3,2021.1.4,MacIntel,59.94125757,,,,,,,,,
,,,,,,,,,,,,0,7,7,7,1,last,14,27,F,R,IMT,2021-07-11_14h18.47.138,ImageRatingTask_S3,2021.1.4,MacIntel,59.94125757,,,,,,,,,
,,,,,,,,,,,,,,,,,,14,27,F,R,IMT,2021-07-11_14h18.47.138,ImageRatingTask_S3,2021.1.4,MacIntel,59.94125757,0,8,8,16,1,DreamStudyImages_rs1000x750g/Water/seacliff.jpg,,,
,,5,4.4754,1,1.3577,5,3.6471,1,1.8521,5,1.3069,0,0,0,0,1,main,14,27,F,R,IMT,2021-07-11_14h18.47.138,ImageRatingTask_S3,2021.1.4,MacIntel,59.94125757,,,,,,,,,
,,,,,,,,,,,,0,1,1,1,1,second,14,27,F,R,IMT,2021-07-11_14h18.47.138,ImageRatingTask_S3,2021.1.4,MacIntel,59.94125757,,,,,,,,,
,,,,,,,,,,,,0,2,2,2,1,third,14,27,F,R,IMT,2021-07-11_14h18.47.138,ImageRatingTask_S3,2021.1.4,MacIntel,59.94125757,,,,,,,,,
,,,,,,,,,,,,0,3,3,3,1,fourth,14,27,F,R,IMT,2021-07-11_14h18.47.138,ImageRatingTask_S3,2021.1.4,MacIntel,59.94125757,,,,,,,,,
,,,,,,,,,,,,0,4,4,4,1,fifth,14,27,F,R,IMT,2021-07-11_14h18.47.138,ImageRatingTask_S3,2021.1.4,MacIntel,59.94125757,,,,,,,,,
,,,,,,,,,,,,0,5,5,5,1,sixth,14,27,F,R,IMT,2021-07-11_14h18.47.138,ImageRatingTask_S3,2021.1.4,MacIntel,59.94125757,,,,,,,,,
,,,,,,,,,,,,0,6,6,6,1,seventh,14,27,F,R,IMT,2021-07-11_14h18.47.138,ImageRatingTask_S3,2021.1.4,MacIntel,59.94125757,,,,,,,,,
,,,,,,,,,,,,0,7,7,7,1,last,14,27,F,R,IMT,2021-07-11_14h18.47.138,ImageRatingTask_S3,2021.1.4,MacIntel,59.94125757,,,,,,,,,
,,,,,,,,,,,,,,,,,,14,27,F,R,IMT,2021-07-11_14h18.47.138,ImageRatingTask_S3,2021.1.4,MacIntel,59.94125757,0,9,9,109,1,DreamStudyImages_rs1000x750g/Food/Objects_052_h.jpg,,,
,,5,4.2668,1,0.9546,5,2.6021,1,1.1547,8,1.0257,0,0,0,0,1,main,14,27,F,R,IMT,2021-07-11_14h18.47.138,ImageRatingTask_S3,2021.1.4,MacIntel,59.94125757,,,,,,,,,
,,,,,,,,,,,,0,1,1,1,1,second,14,27,F,R,IMT,2021-07-11_14h18.47.138,ImageRatingTask_S3,2021.1.4,MacIntel,59.94125757,,,,,,,,,
,,,,,,,,,,,,0,2,2,2,1,third,14,27,F,R,IMT,2021-07-11_14h18.47.138,ImageRatingTask_S3,2021.1.4,MacIntel,59.94125757,,,,,,,,,
,,,,,,,,,,,,0,3,3,3,1,fourth,14,27,F,R,IMT,2021-07-11_14h18.47.138,ImageRatingTask_S3,2021.1.4,MacIntel,59.94125757,,,,,,,,,
,,,,,,,,,,,,0,4,4,4,1,fifth,14,27,F,R,IMT,2021-07-11_14h18.47.138,ImageRatingTask_S3,2021.1.4,MacIntel,59.94125757,,,,,,,,,
,,,,,,,,,,,,0,5,5,5,1,sixth,14,27,F,R,IMT,2021-07-11_14h18.47.138,ImageRatingTask_S3,2021.1.4,MacIntel,59.94125757,,,,,,,,,
,,,,,,,,,,,,0,6,6,6,1,seventh,14,27,F,R,IMT,2021-07-11_14h18.47.138,ImageRatingTask_S3,2021.1.4,MacIntel,59.94125757,,,,,,,,,
,,,,,,,,,,,,0,7,7,7,1,last,14,27,F,R,IMT,2021-07-11_14h18.47.138,ImageRatingTask_S3,2021.1.4,MacIntel,59.94125757,,,,,,,,,
,,,,,,,,,,,,,,,,,,14,27,F,R,IMT,2021-07-11_14h18.47.138,ImageRatingTask_S3,2021.1.4,MacIntel,59.94125757,0,10,10,15,1,DreamStudyImages_rs1000x750g/Water/dawnatlake.jpg,,,
,,6,2.3836,1,0.6055,3,1.605,1,14.4623,2,0.9632,0,0,0,0,1,main,14,27,F,R,IMT,2021-07-11_14h18.47.138,ImageRatingTask_S3,2021.1.4,MacIntel,59.94125757,,,,,,,,,
,,,,,,,,,,,,0,1,1,1,1,second,14,27,F,R,IMT,2021-07-11_14h18.47.138,ImageRatingTask_S3,2021.1.4,MacIntel,59.94125757,,,,,,,,,
,,,,,,,,,,,,0,2,2,2,1,third,14,27,F,R,IMT,2021-07-11_14h18.47.138,ImageRatingTask_S3,2021.1.4,MacIntel,59.94125757,,,,,,,,,
,,,,,,,,,,,,0,3,3,3,1,fourth,14,27,F,R,IMT,2021-07-11_14h18.47.138,ImageRatingTask_S3,2021.1.4,MacIntel,59.94125757,,,,,,,,,
,,,,,,,,,,,,0,4,4,4,1,fifth,14,27,F,R,IMT,2021-07-11_14h18.47.138,ImageRatingTask_S3,2021.1.4,MacIntel,59.94125757,,,,,,,,,
,,,,,,,,,,,,0,5,5,5,1,sixth,14,27,F,R,IMT,2021-07-11_14h18.47.138,ImageRatingTask_S3,2021.1.4,MacIntel,59.94125757,,,,,,,,,
,,,,,,,,,,,,0,6,6,6,1,seventh,14,27,F,R,IMT,2021-07-11_14h18.47.138,ImageRatingTask_S3,2021.1.4,MacIntel,59.94125757,,,,,,,,,
,,,,,,,,,,,,0,7,7,7,1,last,14,27,F,R,IMT,2021-07-11_14h18.47.138,ImageRatingTask_S3,2021.1.4,MacIntel,59.94125757,,,,,,,,,
,,,,,,,,,,,,,,,,,,14,27,F,R,IMT,2021-07-11_14h18.47.138,ImageRatingTask_S3,2021.1.4,MacIntel,59.94125757,0,11,11,131,1,DreamStudyImages_rs1000x750g/Children/IAPS2442_child3.jpg,,,
,,6,15.7615,1,4.116,4,1.6942,1,1.7231,5,1.3386,0,0,0,0,1,main,14,27,F,R,IMT,2021-07-11_14h18.47.138,ImageRatingTask_S3,2021.1.4,MacIntel,59.94125757,,,,,,,,,
,,,,,,,,,,,,0,1,1,1,1,second,14,27,F,R,IMT,2021-07-11_14h18.47.138,ImageRatingTask_S3,2021.1.4,MacIntel,59.94125757,,,,,,,,,
,,,,,,,,,,,,0,2,2,2,1,third,14,27,F,R,IMT,2021-07-11_14h18.47.138,ImageRatingTask_S3,2021.1.4,MacIntel,59.94125757,,,,,,,,,
,,,,,,,,,,,,0,3,3,3,1,fourth,14,27,F,R,IMT,2021-07-11_14h18.47.138,ImageRatingTask_S3,2021.1.4,MacIntel,59.94125757,,,,,,,,,
,,,,,,,,,,,,0,4,4,4,1,fifth,14,27,F,R,IMT,2021-07-11_14h18.47.138,ImageRatingTask_S3,2021.1.4,MacIntel,59.94125757,,,,,,,,,
,,,,,,,,,,,,0,5,5,5,1,sixth,14,27,F,R,IMT,2021-07-11_14h18.47.138,ImageRatingTask_S3,2021.1.4,MacIntel,59.94125757,,,,,,,,,
,,,,,,,,,,,,0,6,6,6,1,seventh,14,27,F,R,IMT,2021-07-11_14h18.47.138,ImageRatingTask_S3,2021.1.4,MacIntel,59.94125757,,,,,,,,,
,,,,,,,,,,,,0,7,7,7,1,last,14,27,F,R,IMT,2021-07-11_14h18.47.138,ImageRatingTask_S3,2021.1.4,MacIntel,59.94125757,,,,,,,,,
,,,,,,,,,,,,,,,,,,14,27,F,R,IMT,2021-07-11_14h18.47.138,ImageRatingTask_S3,2021.1.4,MacIntel,59.94125757,0,12,12,36,1,DreamStudyImages_rs1000x750g/Food/IAPS7480_pasta.jpg,,,
,,7,12.4683,3,2.4688,3,2.4471,1,1.4926,3,1.209,0,0,0,0,1,main,14,27,F,R,IMT,2021-07-11_14h18.47.138,ImageRatingTask_S3,2021.1.4,MacIntel,59.94125757,,,,,,,,,
,,,,,,,,,,,,0,1,1,1,1,second,14,27,F,R,IMT,2021-07-11_14h18.47.138,ImageRatingTask_S3,2021.1.4,MacIntel,59.94125757,,,,,,,,,
,,,,,,,,,,,,0,2,2,2,1,third,14,27,F,R,IMT,2021-07-11_14h18.47.138,ImageRatingTask_S3,2021.1.4,MacIntel,59.94125757,,,,,,,,,
,,,,,,,,,,,,0,3,3,3,1,fourth,14,27,F,R,IMT,2021-07-11_14h18.47.138,ImageRatingTask_S3,2021.1.4,MacIntel,59.94125757,,,,,,,,,
,,,,,,,,,,,,0,4,4,4,1,fifth,14,27,F,R,IMT,2021-07-11_14h18.47.138,ImageRatingTask_S3,2021.1.4,MacIntel,59.94125757,,,,,,,,,
,,,,,,,,,,,,0,5,5,5,1,sixth,14,27,F,R,IMT,2021-07-11_14h18.47.138,ImageRatingTask_S3,2021.1.4,MacIntel,59.94125757,,,,,,,,,
,,,,,,,,,,,,0,6,6,6,1,seventh,14,27,F,R,IMT,2021-07-11_14h18.47.138,ImageRatingTask_S3,2021.1.4,MacIntel,59.94125757,,,,,,,,,
,,,,,,,,,,,,0,7,7,7,1,last,14,27,F,R,IMT,2021-07-11_14h18.47.138,ImageRatingTask_S3,2021.1.4,MacIntel,59.94125757,,,,,,,,,
,,,,,,,,,,,,,,,,,,14,27,F,R,IMT,2021-07-11_14h18.47.138,ImageRatingTask_S3,2021.1.4,MacIntel,59.94125757,0,13,13,120,1,DreamStudyImages_rs1000x750g/Mammals/Cat 6.jpg,,,
,,5,13.857,1,0.9458,7,2.392,1,1.2814,7,1.0082,0,0,0,0,1,main,14,27,F,R,IMT,2021-07-11_14h18.47.138,ImageRatingTask_S3,2021.1.4,MacIntel,59.94125757,,,,,,,,,
,,,,,,,,,,,,0,1,1,1,1,second,14,27,F,R,IMT,2021-07-11_14h18.47.138,ImageRatingTask_S3,2021.1.4,MacIntel,59.94125757,,,,,,,,,
,,,,,,,,,,,,0,2,2,2,1,third,14,27,F,R,IMT,2021-07-11_14h18.47.138,ImageRatingTask_S3,2021.1.4,MacIntel,59.94125757,,,,,,,,,
,,,,,,,,,,,,0,3,3,3,1,fourth,14,27,F,R,IMT,2021-07-11_14h18.47.138,ImageRatingTask_S3,2021.1.4,MacIntel,59.94125757,,,,,,,,,
,,,,,,,,,,,,0,4,4,4,1,fifth,14,27,F,R,IMT,2021-07-11_14h18.47.138,ImageRatingTask_S3,2021.1.4,MacIntel,59.94125757,,,,,,,,,
,,,,,,,,,,,,0,5,5,5,1,sixth,14,27,F,R,IMT,2021-07-11_14h18.47.138,ImageRatingTask_S3,2021.1.4,MacIntel,59.94125757,,,,,,,,,
,,,,,,,,,,,,0,6,6,6,1,seventh,14,27,F,R,IMT,2021-07-11_14h18.47.138,ImageRatingTask_S3,2021.1.4,MacIntel,59.94125757,,,,,,,,,
,,,,,,,,,,,,0,7,7,7,1,last,14,27,F,R,IMT,2021-07-11_14h18.47.138,ImageRatingTask_S3,2021.1.4,MacIntel,59.94125757,,,,,,,,,
,,,,,,,,,,,,,,,,,,14,27,F,R,IMT,2021-07-11_14h18.47.138,ImageRatingTask_S3,2021.1.4,MacIntel,59.94125757,0,14,14,25,1,DreamStudyImages_rs1000x750g/Vehicles/vanfleet.jpg,,,
,,5,2.9727,1,0.3999,4,1.9466,1,1.0009,7,0.859,0,0,0,0,1,main,14,27,F,R,IMT,2021-07-11_14h18.47.138,ImageRatingTask_S3,2021.1.4,MacIntel,59.94125757,,,,,,,,,
,,,,,,,,,,,,0,1,1,1,1,second,14,27,F,R,IMT,2021-07-11_14h18.47.138,ImageRatingTask_S3,2021.1.4,MacIntel,59.94125757,,,,,,,,,
,,,,,,,,,,,,0,2,2,2,1,third,14,27,F,R,IMT,2021-07-11_14h18.47.138,ImageRatingTask_S3,2021.1.4,MacIntel,59.94125757,,,,,,,,,
,,,,,,,,,,,,0,3,3,3,1,fourth,14,27,F,R,IMT,2021-07-11_14h18.47.138,ImageRatingTask_S3,2021.1.4,MacIntel,59.94125757,,,,,,,,,
,,,,,,,,,,,,0,4,4,4,1,fifth,14,27,F,R,IMT,2021-07-11_14h18.47.138,ImageRatingTask_S3,2021.1.4,MacIntel,59.94125757,,,,,,,,,
,,,,,,,,,,,,0,5,5,5,1,sixth,14,27,F,R,IMT,2021-07-11_14h18.47.138,ImageRatingTask_S3,2021.1.4,MacIntel,59.94125757,,,,,,,,,
,,,,,,,,,,,,0,6,6,6,1,seventh,14,27,F,R,IMT,2021-07-11_14h18.47.138,ImageRatingTask_S3,2021.1.4,MacIntel,59.94125757,,,,,,,,,
,,,,,,,,,,,,0,7,7,7,1,last,14,27,F,R,IMT,2021-07-11_14h18.47.138,ImageRatingTask_S3,2021.1.4,MacIntel,59.94125757,,,,,,,,,
,,,,,,,,,,,,,,,,,,14,27,F,R,IMT,2021-07-11_14h18.47.138,ImageRatingTask_S3,2021.1.4,MacIntel,59.94125757,0,15,15,81,1,DreamStudyImages_rs1000x750g/Vehicles/Car race 2.jpg,,,
,,6,4.8605,2,2.4892,3,3.844,1,3.2843,8,1.099,0,0,0,0,1,main,14,27,F,R,IMT,2021-07-11_14h18.47.138,ImageRatingTask_S3,2021.1.4,MacIntel,59.94125757,,,,,,,,,
,,,,,,,,,,,,0,1,1,1,1,second,14,27,F,R,IMT,2021-07-11_14h18.47.138,ImageRatingTask_S3,2021.1.4,MacIntel,59.94125757,,,,,,,,,
,,,,,,,,,,,,0,2,2,2,1,third,14,27,F,R,IMT,2021-07-11_14h18.47.138,ImageRatingTask_S3,2021.1.4,MacIntel,59.94125757,,,,,,,,,
,,,,,,,,,,,,0,3,3,3,1,fourth,14,27,F,R,IMT,2021-07-11_14h18.47.138,ImageRatingTask_S3,2021.1.4,MacIntel,59.94125757,,,,,,,,,
,,,,,,,,,,,,0,4,4,4,1,fifth,14,27,F,R,IMT,2021-07-11_14h18.47.138,ImageRatingTask_S3,2021.1.4,MacIntel,59.94125757,,,,,,,,,
,,,,,,,,,,,,0,5,5,5,1,sixth,14,27,F,R,IMT,2021-07-11_14h18.47.138,ImageRatingTask_S3,2021.1.4,MacIntel,59.94125757,,,,,,,,,
,,,,,,,,,,,,0,6,6,6,1,seventh,14,27,F,R,IMT,2021-07-11_14h18.47.138,ImageRatingTask_S3,2021.1.4,MacIntel,59.94125757,,,,,,,,,
,,,,,,,,,,,,0,7,7,7,1,last,14,27,F,R,IMT,2021-07-11_14h18.47.138,ImageRatingTask_S3,2021.1.4,MacIntel,59.94125757,,,,,,,,,
,,,,,,,,,,,,,,,,,,14,27,F,R,IMT,2021-07-11_14h18.47.138,ImageRatingTask_S3,2021.1.4,MacIntel,59.94125757,0,16,16,85,1,DreamStudyImages_rs1000x750g/Water/Bridge 1.jpg,,,
,,4,5.8435,2,1.9156,8,6.0546,1,0.8579,6,0.9764,0,0,0,0,1,main,14,27,F,R,IMT,2021-07-11_14h18.47.138,ImageRatingTask_S3,2021.1.4,MacIntel,59.94125757,,,,,,,,,
,,,,,,,,,,,,0,1,1,1,1,second,14,27,F,R,IMT,2021-07-11_14h18.47.138,ImageRatingTask_S3,2021.1.4,MacIntel,59.94125757,,,,,,,,,
,,,,,,,,,,,,0,2,2,2,1,third,14,27,F,R,IMT,2021-07-11_14h18.47.138,ImageRatingTask_S3,2021.1.4,MacIntel,59.94125757,,,,,,,,,
,,,,,,,,,,,,0,3,3,3,1,fourth,14,27,F,R,IMT,2021-07-11_14h18.47.138,ImageRatingTask_S3,2021.1.4,MacIntel,59.94125757,,,,,,,,,
,,,,,,,,,,,,0,4,4,4,1,fifth,14,27,F,R,IMT,2021-07-11_14h18.47.138,ImageRatingTask_S3,2021.1.4,MacIntel,59.94125757,,,,,,,,,
,,,,,,,,,,,,0,5,5,5,1,sixth,14,27,F,R,IMT,2021-07-11_14h18.47.138,ImageRatingTask_S3,2021.1.4,MacIntel,59.94125757,,,,,,,,,
,,,,,,,,,,,,0,6,6,6,1,seventh,14,27,F,R,IMT,2021-07-11_14h18.47.138,ImageRatingTask_S3,2021.1.4,MacIntel,59.94125757,,,,,,,,,
,,,,,,,,,,,,0,7,7,7,1,last,14,27,F,R,IMT,2021-07-11_14h18.47.138,ImageRatingTask_S3,2021.1.4,MacIntel,59.94125757,,,,,,,,,
,,,,,,,,,,,,,,,,,,14,27,F,R,IMT,2021-07-11_14h18.47.138,ImageRatingTask_S3,2021.1.4,MacIntel,59.94125757,0,17,17,62,1,DreamStudyImages_rs1000x750g/Houses/Landscapes_056_h.jpg,,,
,,6,5.0025,2,1.2817,7,2.0943,1,1.0295,5,1.1242,0,0,0,0,1,main,14,27,F,R,IMT,2021-07-11_14h18.47.138,ImageRatingTask_S3,2021.1.4,MacIntel,59.94125757,,,,,,,,,
,,,,,,,,,,,,0,1,1,1,1,second,14,27,F,R,IMT,2021-07-11_14h18.47.138,ImageRatingTask_S3,2021.1.4,MacIntel,59.94125757,,,,,,,,,
,,,,,,,,,,,,0,2,2,2,1,third,14,27,F,R,IMT,2021-07-11_14h18.47.138,ImageRatingTask_S3,2021.1.4,MacIntel,59.94125757,,,,,,,,,
,,,,,,,,,,,,0,3,3,3,1,fourth,14,27,F,R,IMT,2021-07-11_14h18.47.138,ImageRatingTask_S3,2021.1.4,MacIntel,59.94125757,,,,,,,,,
,,,,,,,,,,,,0,4,4,4,1,fifth,14,27,F,R,IMT,2021-07-11_14h18.47.138,ImageRatingTask_S3,2021.1.4,MacIntel,59.94125757,,,,,,,,,
,,,,,,,,,,,,0,5,5,5,1,sixth,14,27,F,R,IMT,2021-07-11_14h18.47.138,ImageRatingTask_S3,2021.1.4,MacIntel,59.94125757,,,,,,,,,
,,,,,,,,,,,,0,6,6,6,1,seventh,14,27,F,R,IMT,2021-07-11_14h18.47.138,ImageRatingTask_S3,2021.1.4,MacIntel,59.94125757,,,,,,,,,
,,,,,,,,,,,,0,7,7,7,1,last,14,27,F,R,IMT,2021-07-11_14h18.47.138,ImageRatingTask_S3,2021.1.4,MacIntel,59.94125757,,,,,,,,,
,,,,,,,,,,,,,,,,,,14,27,F,R,IMT,2021-07-11_14h18.47.138,ImageRatingTask_S3,2021.1.4,MacIntel,59.94125757,0,18,18,94,1,DreamStudyImages_rs1000x750g/Food/Objects_097_h.jpg,,,
,,5,5.3464,1,0.2921,8,1.9112,1,0.7744,2,0.7654,0,0,0,0,1,main,14,27,F,R,IMT,2021-07-11_14h18.47.138,ImageRatingTask_S3,2021.1.4,MacIntel,59.94125757,,,,,,,,,
,,,,,,,,,,,,0,1,1,1,1,second,14,27,F,R,IMT,2021-07-11_14h18.47.138,ImageRatingTask_S3,2021.1.4,MacIntel,59.94125757,,,,,,,,,
,,,,,,,,,,,,0,2,2,2,1,third,14,27,F,R,IMT,2021-07-11_14h18.47.138,ImageRatingTask_S3,2021.1.4,MacIntel,59.94125757,,,,,,,,,
,,,,,,,,,,,,0,3,3,3,1,fourth,14,27,F,R,IMT,2021-07-11_14h18.47.138,ImageRatingTask_S3,2021.1.4,MacIntel,59.94125757,,,,,,,,,
,,,,,,,,,,,,0,4,4,4,1,fifth,14,27,F,R,IMT,2021-07-11_14h18.47.138,ImageRatingTask_S3,2021.1.4,MacIntel,59.94125757,,,,,,,,,
,,,,,,,,,,,,0,5,5,5,1,sixth,14,27,F,R,IMT,2021-07-11_14h18.47.138,ImageRatingTask_S3,2021.1.4,MacIntel,59.94125757,,,,,,,,,
,,,,,,,,,,,,0,6,6,6,1,seventh,14,27,F,R,IMT,2021-07-11_14h18.47.138,ImageRatingTask_S3,2021.1.4,MacIntel,59.94125757,,,,,,,,,
,,,,,,,,,,,,0,7,7,7,1,last,14,27,F,R,IMT,2021-07-11_14h18.47.138,ImageRatingTask_S3,2021.1.4,MacIntel,59.94125757,,,,,,,,,
,,,,,,,,,,,,,,,,,,14,27,F,R,IMT,2021-07-11_14h18.47.138,ImageRatingTask_S3,2021.1.4,MacIntel,59.94125757,0,19,19,22,1,DreamStudyImages_rs1000x750g/Children/Sleepy pose 1.jpg,,,
,,3,3.506,4,1.4013,5,3.84,0,4.3176,,,0,0,0,0,1,main,14,27,F,R,IMT,2021-07-11_14h18.47.138,ImageRatingTask_S3,2021.1.4,MacIntel,59.94125757,,,,,,,,,
,,,,,,,,,,,,0,1,1,1,1,second,14,27,F,R,IMT,2021-07-11_14h18.47.138,ImageRatingTask_S3,2021.1.4,MacIntel,59.94125757,,,,,,,,,
,,,,,,,,,,,,0,2,2,2,1,third,14,27,F,R,IMT,2021-07-11_14h18.47.138,ImageRatingTask_S3,2021.1.4,MacIntel,59.94125757,,,,,,,,,
,,,,,,,,,,,,0,3,3,3,1,fourth,14,27,F,R,IMT,2021-07-11_14h18.47.138,ImageRatingTask_S3,2021.1.4,MacIntel,59.94125757,,,,,,,,,
,,,,,,,,,,,,0,4,4,4,1,fifth,14,27,F,R,IMT,2021-07-11_14h18.47.138,ImageRatingTask_S3,2021.1.4,MacIntel,59.94125757,,,,,,,,,
,,,,,,,,,,,,0,5,5,5,1,sixth,14,27,F,R,IMT,2021-07-11_14h18.47.138,ImageRatingTask_S3,2021.1.4,MacIntel,59.94125757,,,,,,,,,
,,,,,,,,,,,,0,6,6,6,1,seventh,14,27,F,R,IMT,2021-07-11_14h18.47.138,ImageRatingTask_S3,2021.1.4,MacIntel,59.94125757,,,,,,,,,
,,,,,,,,,,,,0,7,7,7,1,last,14,27,F,R,IMT,2021-07-11_14h18.47.138,ImageRatingTask_S3,2021.1.4,MacIntel,59.94125757,,,,,,,,,
,,,,,,,,,,,,,,,,,,14,27,F,R,IMT,2021-07-11_14h18.47.138,ImageRatingTask_S3,2021.1.4,MacIntel,59.94125757,0,20,20,70,1,DreamStudyImages_rs1000x750g/Vehicles/NDPS87_backtruck.jpg,,,
,,6,3.4727,1,1.4854,7,1.6923,1,0.7494,2,0.5066,0,0,0,0,1,main,14,27,F,R,IMT,2021-07-11_14h18.47.138,ImageRatingTask_S3,2021.1.4,MacIntel,59.94125757,,,,,,,,,
,,,,,,,,,,,,0,1,1,1,1,second,14,27,F,R,IMT,2021-07-11_14h18.47.138,ImageRatingTask_S3,2021.1.4,MacIntel,59.94125757,,,,,,,,,
,,,,,,,,,,,,0,2,2,2,1,third,14,27,F,R,IMT,2021-07-11_14h18.47.138,ImageRatingTask_S3,2021.1.4,MacIntel,59.94125757,,,,,,,,,
,,,,,,,,,,,,0,3,3,3,1,fourth,14,27,F,R,IMT,2021-07-11_14h18.47.138,ImageRatingTask_S3,2021.1.4,MacIntel,59.94125757,,,,,,,,,
,,,,,,,,,,,,0,4,4,4,1,fifth,14,27,F,R,IMT,2021-07-11_14h18.47.138,ImageRatingTask_S3,2021.1.4,MacIntel,59.94125757,,,,,,,,,
,,,,,,,,,,,,0,5,5,5,1,sixth,14,27,F,R,IMT,2021-07-11_14h18.47.138,ImageRatingTask_S3,2021.1.4,MacIntel,59.94125757,,,,,,,,,
,,,,,,,,,,,,0,6,6,6,1,seventh,14,27,F,R,IMT,2021-07-11_14h18.47.138,ImageRatingTask_S3,2021.1.4,MacIntel,59.94125757,,,,,,,,,
,,,,,,,,,,,,0,7,7,7,1,last,14,27,F,R,IMT,2021-07-11_14h18.47.138,ImageRatingTask_S3,2021.1.4,MacIntel,59.94125757,,,,,,,,,
,,,,,,,,,,,,,,,,,,14,27,F,R,IMT,2021-07-11_14h18.47.138,ImageRatingTask_S3,2021.1.4,MacIntel,59.94125757,0,21,21,10,1,DreamStudyImages_rs1000x750g/Children/Baby 6.jpg,,,
,,2,3.3533,5,2.2603,7,2.439,1,2.5679,6,0.8718,0,0,0,0,1,main,14,27,F,R,IMT,2021-07-11_14h18.47.138,ImageRatingTask_S3,2021.1.4,MacIntel,59.94125757,,,,,,,,,
,,,,,,,,,,,,0,1,1,1,1,second,14,27,F,R,IMT,2021-07-11_14h18.47.138,ImageRatingTask_S3,2021.1.4,MacIntel,59.94125757,,,,,,,,,
,,,,,,,,,,,,0,2,2,2,1,third,14,27,F,R,IMT,2021-07-11_14h18.47.138,ImageRatingTask_S3,2021.1.4,MacIntel,59.94125757,,,,,,,,,
,,,,,,,,,,,,0,3,3,3,1,fourth,14,27,F,R,IMT,2021-07-11_14h18.47.138,ImageRatingTask_S3,2021.1.4,MacIntel,59.94125757,,,,,,,,,
,,,,,,,,,,,,0,4,4,4,1,fifth,14,27,F,R,IMT,2021-07-11_14h18.47.138,ImageRatingTask_S3,2021.1.4,MacIntel,59.94125757,,,,,,,,,
,,,,,,,,,,,,0,5,5,5,1,sixth,14,27,F,R,IMT,2021-07-11_14h18.47.138,ImageRatingTask_S3,2021.1.4,MacIntel,59.94125757,,,,,,,,,
,,,,,,,,,,,,0,6,6,6,1,seventh,14,27,F,R,IMT,2021-07-11_14h18.47.138,ImageRatingTask_S3,2021.1.4,MacIntel,59.94125757,,,,,,,,,
,,,,,,,,,,,,0,7,7,7,1,last,14,27,F,R,IMT,2021-07-11_14h18.47.138,ImageRatingTask_S3,2021.1.4,MacIntel,59.94125757,,,,,,,,,
,,,,,,,,,,,,,,,,,,14,27,F,R,IMT,2021-07-11_14h18.47.138,ImageRatingTask_S3,2021.1.4,MacIntel,59.94125757,0,22,22,155,1,DreamStudyImages_rs1000x750g/Houses/Jail 5.jpg,,,
,,2,3.0458,4,1.5251,4,3.7512,1,2.0328,6,0.9911,0,0,0,0,1,main,14,27,F,R,IMT,2021-07-11_14h18.47.138,ImageRatingTask_S3,2021.1.4,MacIntel,59.94125757,,,,,,,,,
,,,,,,,,,,,,0,1,1,1,1,second,14,27,F,R,IMT,2021-07-11_14h18.47.138,ImageRatingTask_S3,2021.1.4,MacIntel,59.94125757,,,,,,,,,
,,,,,,,,,,,,0,2,2,2,1,third,14,27,F,R,IMT,2021-07-11_14h18.47.138,ImageRatingTask_S3,2021.1.4,MacIntel,59.94125757,,,,,,,,,
,,,,,,,,,,,,0,3,3,3,1,fourth,14,27,F,R,IMT,2021-07-11_14h18.47.138,ImageRatingTask_S3,2021.1.4,MacIntel,59.94125757,,,,,,,,,
,,,,,,,,,,,,0,4,4,4,1,fifth,14,27,F,R,IMT,2021-07-11_14h18.47.138,ImageRatingTask_S3,2021.1.4,MacIntel,59.94125757,,,,,,,,,
,,,,,,,,,,,,0,5,5,5,1,sixth,14,27,F,R,IMT,2021-07-11_14h18.47.138,ImageRatingTask_S3,2021.1.4,MacIntel,59.94125757,,,,,,,,,
,,,,,,,,,,,,0,6,6,6,1,seventh,14,27,F,R,IMT,2021-07-11_14h18.47.138,ImageRatingTask_S3,2021.1.4,MacIntel,59.94125757,,,,,,,,,
,,,,,,,,,,,,0,7,7,7,1,last,14,27,F,R,IMT,2021-07-11_14h18.47.138,ImageRatingTask_S3,2021.1.4,MacIntel,59.94125757,,,,,,,,,
,,,,,,,,,,,,,,,,,,14,27,F,R,IMT,2021-07-11_14h18.47.138,ImageRatingTask_S3,2021.1.4,MacIntel,59.94125757,0,23,23,48,1,DreamStudyImages_rs1000x750g/Houses/NDPS95_cityskyline.jpg,,,
,,4,4.3742,2,1.6158,8,3.0946,1,0.893,8,6.0074,0,0,0,0,1,main,14,27,F,R,IMT,2021-07-11_14h18.47.138,ImageRatingTask_S3,2021.1.4,MacIntel,59.94125757,,,,,,,,,
,,,,,,,,,,,,0,1,1,1,1,second,14,27,F,R,IMT,2021-07-11_14h18.47.138,ImageRatingTask_S3,2021.1.4,MacIntel,59.94125757,,,,,,,,,
,,,,,,,,,,,,0,2,2,2,1,third,14,27,F,R,IMT,2021-07-11_14h18.47.138,ImageRatingTask_S3,2021.1.4,MacIntel,59.94125757,,,,,,,,,
,,,,,,,,,,,,0,3,3,3,1,fourth,14,27,F,R,IMT,2021-07-11_14h18.47.138,ImageRatingTask_S3,2021.1.4,MacIntel,59.94125757,,,,,,,,,
,,,,,,,,,,,,0,4,4,4,1,fifth,14,27,F,R,IMT,2021-07-11_14h18.47.138,ImageRatingTask_S3,2021.1.4,MacIntel,59.94125757,,,,,,,,,
,,,,,,,,,,,,0,5,5,5,1,sixth,14,27,F,R,IMT,2021-07-11_14h18.47.138,ImageRatingTask_S3,2021.1.4,MacIntel,59.94125757,,,,,,,,,
,,,,,,,,,,,,0,6,6,6,1,seventh,14,27,F,R,IMT,2021-07-11_14h18.47.138,ImageRatingTask_S3,2021.1.4,MacIntel,59.94125757,,,,,,,,,
,,,,,,,,,,,,0,7,7,7,1,last,14,27,F,R,IMT,2021-07-11_14h18.47.138,ImageRatingTask_S3,2021.1.4,MacIntel,59.94125757,,,,,,,,,
,,,,,,,,,,,,,,,,,,14,27,F,R,IMT,2021-07-11_14h18.47.138,ImageRatingTask_S3,2021.1.4,MacIntel,59.94125757,0,24,24,7,1,DreamStudyImages_rs1000x750g/Water/Objects_233_h.jpg,,,
,,1,4.211,5,29.7491,4,6.0691,1,2.3935,3,1.4419,0,0,0,0,1,main,14,27,F,R,IMT,2021-07-11_14h18.47.138,ImageRatingTask_S3,2021.1.4,MacIntel,59.94125757,,,,,,,,,
,,,,,,,,,,,,0,1,1,1,1,second,14,27,F,R,IMT,2021-07-11_14h18.47.138,ImageRatingTask_S3,2021.1.4,MacIntel,59.94125757,,,,,,,,,
,,,,,,,,,,,,0,2,2,2,1,third,14,27,F,R,IMT,2021-07-11_14h18.47.138,ImageRatingTask_S3,2021.1.4,MacIntel,59.94125757,,,,,,,,,
,,,,,,,,,,,,0,3,3,3,1,fourth,14,27,F,R,IMT,2021-07-11_14h18.47.138,ImageRatingTask_S3,2021.1.4,MacIntel,59.94125757,,,,,,,,,
,,,,,,,,,,,,0,4,4,4,1,fifth,14,27,F,R,IMT,2021-07-11_14h18.47.138,ImageRatingTask_S3,2021.1.4,MacIntel,59.94125757,,,,,,,,,
,,,,,,,,,,,,0,5,5,5,1,sixth,14,27,F,R,IMT,2021-07-11_14h18.47.138,ImageRatingTask_S3,2021.1.4,MacIntel,59.94125757,,,,,,,,,
,,,,,,,,,,,,0,6,6,6,1,seventh,14,27,F,R,IMT,2021-07-11_14h18.47.138,ImageRatingTask_S3,2021.1.4,MacIntel,59.94125757,,,,,,,,,
,,,,,,,,,,,,0,7,7,7,1,last,14,27,F,R,IMT,2021-07-11_14h18.47.138,ImageRatingTask_S3,2021.1.4,MacIntel,59.94125757,,,,,,,,,
,,,,,,,,,,,,,,,,,,14,27,F,R,IMT,2021-07-11_14h18.47.138,ImageRatingTask_S3,2021.1.4,MacIntel,59.94125757,0,25,25,23,1,DreamStudyImages_rs1000x750g/Mammals/Animal carcass 6.jpg,,,
,,5,4.8451,1,16.7137,4,2.119,1,0.9588,6,0.9773,0,0,0,0,1,main,14,27,F,R,IMT,2021-07-11_14h18.47.138,ImageRatingTask_S3,2021.1.4,MacIntel,59.94125757,,,,,,,,,
,,,,,,,,,,,,0,1,1,1,1,second,14,27,F,R,IMT,2021-07-11_14h18.47.138,ImageRatingTask_S3,2021.1.4,MacIntel,59.94125757,,,,,,,,,
,,,,,,,,,,,,0,2,2,2,1,third,14,27,F,R,IMT,2021-07-11_14h18.47.138,ImageRatingTask_S3,2021.1.4,MacIntel,59.94125757,,,,,,,,,
,,,,,,,,,,,,0,3,3,3,1,fourth,14,27,F,R,IMT,2021-07-11_14h18.47.138,ImageRatingTask_S3,2021.1.4,MacIntel,59.94125757,,,,,,,,,
,,,,,,,,,,,,0,4,4,4,1,fifth,14,27,F,R,IMT,2021-07-11_14h18.47.138,ImageRatingTask_S3,2021.1.4,MacIntel,59.94125757,,,,,,,,,
,,,,,,,,,,,,0,5,5,5,1,sixth,14,27,F,R,IMT,2021-07-11_14h18.47.138,ImageRatingTask_S3,2021.1.4,MacIntel,59.94125757,,,,,,,,,
,,,,,,,,,,,,0,6,6,6,1,seventh,14,27,F,R,IMT,2021-07-11_14h18.47.138,ImageRatingTask_S3,2021.1.4,MacIntel,59.94125757,,,,,,,,,
,,,,,,,,,,,,0,7,7,7,1,last,14,27,F,R,IMT,2021-07-11_14h18.47.138,ImageRatingTask_S3,2021.1.4,MacIntel,59.94125757,,,,,,,,,
,,,,,,,,,,,,,,,,,,14,27,F,R,IMT,2021-07-11_14h18.47.138,ImageRatingTask_S3,2021.1.4,MacIntel,59.94125757,0,26,26,86,1,DreamStudyImages_rs1000x750g/Houses/Landscapes_082_v_CROPPED.jpg,,,
,,1,3.973,4,1.4937,7,35.8003,1,2.7728,6,1.1853,0,0,0,0,1,main,14,27,F,R,IMT,2021-07-11_14h18.47.138,ImageRatingTask_S3,2021.1.4,MacIntel,59.94125757,,,,,,,,,
,,,,,,,,,,,,0,1,1,1,1,second,14,27,F,R,IMT,2021-07-11_14h18.47.138,ImageRatingTask_S3,2021.1.4,MacIntel,59.94125757,,,,,,,,,
,,,,,,,,,,,,0,2,2,2,1,third,14,27,F,R,IMT,2021-07-11_14h18.47.138,ImageRatingTask_S3,2021.1.4,MacIntel,59.94125757,,,,,,,,,
,,,,,,,,,,,,0,3,3,3,1,fourth,14,27,F,R,IMT,2021-07-11_14h18.47.138,ImageRatingTask_S3,2021.1.4,MacIntel,59.94125757,,,,,,,,,
,,,,,,,,,,,,0,4,4,4,1,fifth,14,27,F,R,IMT,2021-07-11_14h18.47.138,ImageRatingTask_S3,2021.1.4,MacIntel,59.94125757,,,,,,,,,
,,,,,,,,,,,,0,5,5,5,1,sixth,14,27,F,R,IMT,2021-07-11_14h18.47.138,ImageRatingTask_S3,2021.1.4,MacIntel,59.94125757,,,,,,,,,
,,,,,,,,,,,,0,6,6,6,1,seventh,14,27,F,R,IMT,2021-07-11_14h18.47.138,ImageRatingTask_S3,2021.1.4,MacIntel,59.94125757,,,,,,,,,
,,,,,,,,,,,,0,7,7,7,1,last,14,27,F,R,IMT,2021-07-11_14h18.47.138,ImageRatingTask_S3,2021.1.4,MacIntel,59.94125757,,,,,,,,,
,,,,,,,,,,,,,,,,,,14,27,F,R,IMT,2021-07-11_14h18.47.138,ImageRatingTask_S3,2021.1.4,MacIntel,59.94125757,0,27,27,14,1,DreamStudyImages_rs1000x750g/Houses/NDPS108_houses6.jpg,,,
,,9,10.0851,5,0.7658,8,2.1943,2,3.2581,3,4.8035,0,0,0,0,1,main,14,27,F,R,IMT,2021-07-11_14h18.47.138,ImageRatingTask_S3,2021.1.4,MacIntel,59.94125757,,,,,,,,,
,,,,,,,,,,3,0.4247,0,1,1,1,1,second,14,27,F,R,IMT,2021-07-11_14h18.47.138,ImageRatingTask_S3,2021.1.4,MacIntel,59.94125757,,,,,,,,,
,,,,,,,,,,,,0,2,2,2,1,third,14,27,F,R,IMT,2021-07-11_14h18.47.138,ImageRatingTask_S3,2021.1.4,MacIntel,59.94125757,,,,,,,,,
,,,,,,,,,,,,0,3,3,3,1,fourth,14,27,F,R,IMT,2021-07-11_14h18.47.138,ImageRatingTask_S3,2021.1.4,MacIntel,59.94125757,,,,,,,,,
,,,,,,,,,,,,0,4,4,4,1,fifth,14,27,F,R,IMT,2021-07-11_14h18.47.138,ImageRatingTask_S3,2021.1.4,MacIntel,59.94125757,,,,,,,,,
,,,,,,,,,,,,0,5,5,5,1,sixth,14,27,F,R,IMT,2021-07-11_14h18.47.138,ImageRatingTask_S3,2021.1.4,MacIntel,59.94125757,,,,,,,,,
,,,,,,,,,,,,0,6,6,6,1,seventh,14,27,F,R,IMT,2021-07-11_14h18.47.138,ImageRatingTask_S3,2021.1.4,MacIntel,59.94125757,,,,,,,,,
,,,,,,,,,,,,0,7,7,7,1,last,14,27,F,R,IMT,2021-07-11_14h18.47.138,ImageRatingTask_S3,2021.1.4,MacIntel,59.94125757,,,,,,,,,
,,,,,,,,,,,,,,,,,,14,27,F,R,IMT,2021-07-11_14h18.47.138,ImageRatingTask_S3,2021.1.4,MacIntel,59.94125757,0,28,28,122,1,DreamStudyImages_rs1000x750g/Mammals/IAPS1812_elephants.jpg,,,
,,5,3.0345,1,0.4985,4,2.7751,1,1.9848,5,1.3571,0,0,0,0,1,main,14,27,F,R,IMT,2021-07-11_14h18.47.138,ImageRatingTask_S3,2021.1.4,MacIntel,59.94125757,,,,,,,,,
,,,,,,,,,,,,0,1,1,1,1,second,14,27,F,R,IMT,2021-07-11_14h18.47.138,ImageRatingTask_S3,2021.1.4,MacIntel,59.94125757,,,,,,,,,
,,,,,,,,,,,,0,2,2,2,1,third,14,27,F,R,IMT,2021-07-11_14h18.47.138,ImageRatingTask_S3,2021.1.4,MacIntel,59.94125757,,,,,,,,,
,,,,,,,,,,,,0,3,3,3,1,fourth,14,27,F,R,IMT,2021-07-11_14h18.47.138,ImageRatingTask_S3,2021.1.4,MacIntel,59.94125757,,,,,,,,,
,,,,,,,,,,,,0,4,4,4,1,fifth,14,27,F,R,IMT,2021-07-11_14h18.47.138,ImageRatingTask_S3,2021.1.4,MacIntel,59.94125757,,,,,,,,,
,,,,,,,,,,,,0,5,5,5,1,sixth,14,27,F,R,IMT,2021-07-11_14h18.47.138,ImageRatingTask_S3,2021.1.4,MacIntel,59.94125757,,,,,,,,,
,,,,,,,,,,,,0,6,6,6,1,seventh,14,27,F,R,IMT,2021-07-11_14h18.47.138,ImageRatingTask_S3,2021.1.4,MacIntel,59.94125757,,,,,,,,,
,,,,,,,,,,,,0,7,7,7,1,last,14,27,F,R,IMT,2021-07-11_14h18.47.138,ImageRatingTask_S3,2021.1.4,MacIntel,59.94125757,,,,,,,,,
,,,,,,,,,,,,,,,,,,14,27,F,R,IMT,2021-07-11_14h18.47.138,ImageRatingTask_S3,2021.1.4,MacIntel,59.94125757,0,29,29,147,1,DreamStudyImages_rs1000x750g/Food/Objects_040_v.jpg,,,
,,5,5.5842,1,1.3021,4,9.7264,1,2.7265,1,2.624,0,0,0,0,1,main,14,27,F,R,IMT,2021-07-11_14h18.47.138,ImageRatingTask_S3,2021.1.4,MacIntel,59.94125757,,,,,,,,,
,,,,,,,,,,,,0,1,1,1,1,second,14,27,F,R,IMT,2021-07-11_14h18.47.138,ImageRatingTask_S3,2021.1.4,MacIntel,59.94125757,,,,,,,,,
,,,,,,,,,,,,0,2,2,2,1,third,14,27,F,R,IMT,2021-07-11_14h18.47.138,ImageRatingTask_S3,2021.1.4,MacIntel,59.94125757,,,,,,,,,
,,,,,,,,,,,,0,3,3,3,1,fourth,14,27,F,R,IMT,2021-07-11_14h18.47.138,ImageRatingTask_S3,2021.1.4,MacIntel,59.94125757,,,,,,,,,
,,,,,,,,,,,,0,4,4,4,1,fifth,14,27,F,R,IMT,2021-07-11_14h18.47.138,ImageRatingTask_S3,2021.1.4,MacIntel,59.94125757,,,,,,,,,
,,,,,,,,,,,,0,5,5,5,1,sixth,14,27,F,R,IMT,2021-07-11_14h18.47.138,ImageRatingTask_S3,2021.1.4,MacIntel,59.94125757,,,,,,,,,
,,,,,,,,,,,,0,6,6,6,1,seventh,14,27,F,R,IMT,2021-07-11_14h18.47.138,ImageRatingTask_S3,2021.1.4,MacIntel,59.94125757,,,,,,,,,
,,,,,,,,,,,,0,7,7,7,1,last,14,27,F,R,IMT,2021-07-11_14h18.47.138,ImageRatingTask_S3,2021.1.4,MacIntel,59.94125757,,,,,,,,,
,,,,,,,,,,,,,,,,,,14,27,F,R,IMT,2021-07-11_14h18.47.138,ImageRatingTask_S3,2021.1.4,MacIntel,59.94125757,0,30,30,138,1,DreamStudyImages_rs1000x750g/Children/Faces_042_h.jpg,,,
,,5,3.6378,1,0.9784,6,7.6883,1,1.8369,5,1.3154,0,0,0,0,1,main,14,27,F,R,IMT,2021-07-11_14h18.47.138,ImageRatingTask_S3,2021.1.4,MacIntel,59.94125757,,,,,,,,,
,,,,,,,,,,,,0,1,1,1,1,second,14,27,F,R,IMT,2021-07-11_14h18.47.138,ImageRatingTask_S3,2021.1.4,MacIntel,59.94125757,,,,,,,,,
,,,,,,,,,,,,0,2,2,2,1,third,14,27,F,R,IMT,2021-07-11_14h18.47.138,ImageRatingTask_S3,2021.1.4,MacIntel,59.94125757,,,,,,,,,
,,,,,,,,,,,,0,3,3,3,1,fourth,14,27,F,R,IMT,2021-07-11_14h18.47.138,ImageRatingTask_S3,2021.1.4,MacIntel,59.94125757,,,,,,,,,
,,,,,,,,,,,,0,4,4,4,1,fifth,14,27,F,R,IMT,2021-07-11_14h18.47.138,ImageRatingTask_S3,2021.1.4,MacIntel,59.94125757,,,,,,,,,
,,,,,,,,,,,,0,5,5,5,1,sixth,14,27,F,R,IMT,2021-07-11_14h18.47.138,ImageRatingTask_S3,2021.1.4,MacIntel,59.94125757,,,,,,,,,
,,,,,,,,,,,,0,6,6,6,1,seventh,14,27,F,R,IMT,2021-07-11_14h18.47.138,ImageRatingTask_S3,2021.1.4,MacIntel,59.94125757,,,,,,,,,
,,,,,,,,,,,,0,7,7,7,1,last,14,27,F,R,IMT,2021-07-11_14h18.47.138,ImageRatingTask_S3,2021.1.4,MacIntel,59.94125757,,,,,,,,,
,,,,,,,,,,,,,,,,,,14,27,F,R,IMT,2021-07-11_14h18.47.138,ImageRatingTask_S3,2021.1.4,MacIntel,59.94125757,0,31,31,101,1,DreamStudyImages_rs1000x750g/Food/Objects_073_h.jpg,,,
,,6,49.8863,1,22.7906,7,1.8393,1,1.3037,2,1.1062,0,0,0,0,1,main,14,27,F,R,IMT,2021-07-11_14h18.47.138,ImageRatingTask_S3,2021.1.4,MacIntel,59.94125757,,,,,,,,,
,,,,,,,,,,,,0,1,1,1,1,second,14,27,F,R,IMT,2021-07-11_14h18.47.138,ImageRatingTask_S3,2021.1.4,MacIntel,59.94125757,,,,,,,,,
,,,,,,,,,,,,0,2,2,2,1,third,14,27,F,R,IMT,2021-07-11_14h18.47.138,ImageRatingTask_S3,2021.1.4,MacIntel,59.94125757,,,,,,,,,
,,,,,,,,,,,,0,3,3,3,1,fourth,14,27,F,R,IMT,2021-07-11_14h18.47.138,ImageRatingTask_S3,2021.1.4,MacIntel,59.94125757,,,,,,,,,
,,,,,,,,,,,,0,4,4,4,1,fifth,14,27,F,R,IMT,2021-07-11_14h18.47.138,ImageRatingTask_S3,2021.1.4,MacIntel,59.94125757,,,,,,,,,
,,,,,,,,,,,,0,5,5,5,1,sixth,14,27,F,R,IMT,2021-07-11_14h18.47.138,ImageRatingTask_S3,2021.1.4,MacIntel,59.94125757,,,,,,,,,
,,,,,,,,,,,,0,6,6,6,1,seventh,14,27,F,R,IMT,2021-07-11_14h18.47.138,ImageRatingTask_S3,2021.1.4,MacIntel,59.94125757,,,,,,,,,
,,,,,,,,,,,,0,7,7,7,1,last,14,27,F,R,IMT,2021-07-11_14h18.47.138,ImageRatingTask_S3,2021.1.4,MacIntel,59.94125757,,,,,,,,,
,,,,,,,,,,,,,,,,,,14,27,F,R,IMT,2021-07-11_14h18.47.138,ImageRatingTask_S3,2021.1.4,MacIntel,59.94125757,0,32,32,13,1,DreamStudyImages_rs1000x750g/Children/Surprise 2.jpg,,,
,,4,7.3236,1,1.8609,5,2.2811,1,3.8885,3,1.6008,0,0,0,0,1,main,14,27,F,R,IMT,2021-07-11_14h18.47.138,ImageRatingTask_S3,2021.1.4,MacIntel,59.94125757,,,,,,,,,
,,,,,,,,,,,,0,1,1,1,1,second,14,27,F,R,IMT,2021-07-11_14h18.47.138,ImageRatingTask_S3,2021.1.4,MacIntel,59.94125757,,,,,,,,,
,,,,,,,,,,,,0,2,2,2,1,third,14,27,F,R,IMT,2021-07-11_14h18.47.138,ImageRatingTask_S3,2021.1.4,MacIntel,59.94125757,,,,,,,,,
,,,,,,,,,,,,0,3,3,3,1,fourth,14,27,F,R,IMT,2021-07-11_14h18.47.138,ImageRatingTask_S3,2021.1.4,MacIntel,59.94125757,,,,,,,,,
,,,,,,,,,,,,0,4,4,4,1,fifth,14,27,F,R,IMT,2021-07-11_14h18.47.138,ImageRatingTask_S3,2021.1.4,MacIntel,59.94125757,,,,,,,,,
,,,,,,,,,,,,0,5,5,5,1,sixth,14,27,F,R,IMT,2021-07-11_14h18.47.138,ImageRatingTask_S3,2021.1.4,MacIntel,59.94125757,,,,,,,,,
,,,,,,,,,,,,0,6,6,6,1,seventh,14,27,F,R,IMT,2021-07-11_14h18.47.138,ImageRatingTask_S3,2021.1.4,MacIntel,59.94125757,,,,,,,,,
,,,,,,,,,,,,0,7,7,7,1,last,14,27,F,R,IMT,2021-07-11_14h18.47.138,ImageRatingTask_S3,2021.1.4,MacIntel,59.94125757,,,,,,,,,
,,,,,,,,,,,,,,,,,,14,27,F,R,IMT,2021-07-11_14h18.47.138,ImageRatingTask_S3,2021.1.4,MacIntel,59.94125757,0,33,33,68,1,DreamStudyImages_rs1000x750g/Mammals/Animals_113_h.jpg,,,
,,3,147.4718,2,20.5806,4,1.939,1,1.4106,7,1.1691,0,0,0,0,1,main,14,27,F,R,IMT,2021-07-11_14h18.47.138,ImageRatingTask_S3,2021.1.4,MacIntel,59.94125757,,,,,,,,,
,,,,,,,,,,,,0,1,1,1,1,second,14,27,F,R,IMT,2021-07-11_14h18.47.138,ImageRatingTask_S3,2021.1.4,MacIntel,59.94125757,,,,,,,,,
,,,,,,,,,,,,0,2,2,2,1,third,14,27,F,R,IMT,2021-07-11_14h18.47.138,ImageRatingTask_S3,2021.1.4,MacIntel,59.94125757,,,,,,,,,
,,,,,,,,,,,,0,3,3,3,1,fourth,14,27,F,R,IMT,2021-07-11_14h18.47.138,ImageRatingTask_S3,2021.1.4,MacIntel,59.94125757,,,,,,,,,
,,,,,,,,,,,,0,4,4,4,1,fifth,14,27,F,R,IMT,2021-07-11_14h18.47.138,ImageRatingTask_S3,2021.1.4,MacIntel,59.94125757,,,,,,,,,
,,,,,,,,,,,,0,5,5,5,1,sixth,14,27,F,R,IMT,2021-07-11_14h18.47.138,ImageRatingTask_S3,2021.1.4,MacIntel,59.94125757,,,,,,,,,
,,,,,,,,,,,,0,6,6,6,1,seventh,14,27,F,R,IMT,2021-07-11_14h18.47.138,ImageRatingTask_S3,2021.1.4,MacIntel,59.94125757,,,,,,,,,
,,,,,,,,,,,,0,7,7,7,1,last,14,27,F,R,IMT,2021-07-11_14h18.47.138,ImageRatingTask_S3,2021.1.4,MacIntel,59.94125757,,,,,,,,,
,,,,,,,,,,,,,,,,,,14,27,F,R,IMT,2021-07-11_14h18.47.138,ImageRatingTask_S3,2021.1.4,MacIntel,59.94125757,0,34,34,87,1,DreamStudyImages_rs1000x750g/Vehicles/Plane crash 2.jpg,,,
,,5,2.2141,1,0.4338,6,1.6759,1,1.2764,7,0.9118,0,0,0,0,1,main,14,27,F,R,IMT,2021-07-11_14h18.47.138,ImageRatingTask_S3,2021.1.4,MacIntel,59.94125757,,,,,,,,,
,,,,,,,,,,,,0,1,1,1,1,second,14,27,F,R,IMT,2021-07-11_14h18.47.138,ImageRatingTask_S3,2021.1.4,MacIntel,59.94125757,,,,,,,,,
,,,,,,,,,,,,0,2,2,2,1,third,14,27,F,R,IMT,2021-07-11_14h18.47.138,ImageRatingTask_S3,2021.1.4,MacIntel,59.94125757,,,,,,,,,
,,,,,,,,,,,,0,3,3,3,1,fourth,14,27,F,R,IMT,2021-07-11_14h18.47.138,ImageRatingTask_S3,2021.1.4,MacIntel,59.94125757,,,,,,,,,
,,,,,,,,,,,,0,4,4,4,1,fifth,14,27,F,R,IMT,2021-07-11_14h18.47.138,ImageRatingTask_S3,2021.1.4,MacIntel,59.94125757,,,,,,,,,
,,,,,,,,,,,,0,5,5,5,1,sixth,14,27,F,R,IMT,2021-07-11_14h18.47.138,ImageRatingTask_S3,2021.1.4,MacIntel,59.94125757,,,,,,,,,
,,,,,,,,,,,,0,6,6,6,1,seventh,14,27,F,R,IMT,2021-07-11_14h18.47.138,ImageRatingTask_S3,2021.1.4,MacIntel,59.94125757,,,,,,,,,
,,,,,,,,,,,,0,7,7,7,1,last,14,27,F,R,IMT,2021-07-11_14h18.47.138,ImageRatingTask_S3,2021.1.4,MacIntel,59.94125757,,,,,,,,,
,,,,,,,,,,,,,,,,,,14,27,F,R,IMT,2021-07-11_14h18.47.138,ImageRatingTask_S3,2021.1.4,MacIntel,59.94125757,0,35,35,157,1,DreamStudyImages_rs1000x750g/Vehicles/truckfleet.jpg,,,
,,5,3.4619,1,0.4104,6,1.7167,1,1.2493,7,0.9833,0,0,0,0,1,main,14,27,F,R,IMT,2021-07-11_14h18.47.138,ImageRatingTask_S3,2021.1.4,MacIntel,59.94125757,,,,,,,,,
,,,,,,,,,,,,0,1,1,1,1,second,14,27,F,R,IMT,2021-07-11_14h18.47.138,ImageRatingTask_S3,2021.1.4,MacIntel,59.94125757,,,,,,,,,
,,,,,,,,,,,,0,2,2,2,1,third,14,27,F,R,IMT,2021-07-11_14h18.47.138,ImageRatingTask_S3,2021.1.4,MacIntel,59.94125757,,,,,,,,,
,,,,,,,,,,,,0,3,3,3,1,fourth,14,27,F,R,IMT,2021-07-11_14h18.47.138,ImageRatingTask_S3,2021.1.4,MacIntel,59.94125757,,,,,,,,,
,,,,,,,,,,,,0,4,4,4,1,fifth,14,27,F,R,IMT,2021-07-11_14h18.47.138,ImageRatingTask_S3,2021.1.4,MacIntel,59.94125757,,,,,,,,,
,,,,,,,,,,,,0,5,5,5,1,sixth,14,27,F,R,IMT,2021-07-11_14h18.47.138,ImageRatingTask_S3,2021.1.4,MacIntel,59.94125757,,,,,,,,,
,,,,,,,,,,,,0,6,6,6,1,seventh,14,27,F,R,IMT,2021-07-11_14h18.47.138,ImageRatingTask_S3,2021.1.4,MacIntel,59.94125757,,,,,,,,,
,,,,,,,,,,,,0,7,7,7,1,last,14,27,F,R,IMT,2021-07-11_14h18.47.138,ImageRatingTask_S3,2021.1.4,MacIntel,59.94125757,,,,,,,,,
,,,,,,,,,,,,,,,,,,14,27,F,R,IMT,2021-07-11_14h18.47.138,ImageRatingTask_S3,2021.1.4,MacIntel,59.94125757,0,36,36,3,1,DreamStudyImages_rs1000x750g/Vehicles/Objects_286_h.jpg,,,
,,1,26.1542,1,4.6484,6,4.5407,1,1.2895,8,1.9886,0,0,0,0,1,main,14,27,F,R,IMT,2021-07-11_14h18.47.138,ImageRatingTask_S3,2021.1.4,MacIntel,59.94125757,,,,,,,,,
,,,,,,,,,,,,0,1,1,1,1,second,14,27,F,R,IMT,2021-07-11_14h18.47.138,ImageRatingTask_S3,2021.1.4,MacIntel,59.94125757,,,,,,,,,
,,,,,,,,,,,,0,2,2,2,1,third,14,27,F,R,IMT,2021-07-11_14h18.47.138,ImageRatingTask_S3,2021.1.4,MacIntel,59.94125757,,,,,,,,,
,,,,,,,,,,,,0,3,3,3,1,fourth,14,27,F,R,IMT,2021-07-11_14h18.47.138,ImageRatingTask_S3,2021.1.4,MacIntel,59.94125757,,,,,,,,,
,,,,,,,,,,,,0,4,4,4,1,fifth,14,27,F,R,IMT,2021-07-11_14h18.47.138,ImageRatingTask_S3,2021.1.4,MacIntel,59.94125757,,,,,,,,,
,,,,,,,,,,,,0,5,5,5,1,sixth,14,27,F,R,IMT,2021-07-11_14h18.47.138,ImageRatingTask_S3,2021.1.4,MacIntel,59.94125757,,,,,,,,,
,,,,,,,,,,,,0,6,6,6,1,seventh,14,27,F,R,IMT,2021-07-11_14h18.47.138,ImageRatingTask_S3,2021.1.4,MacIntel,59.94125757,,,,,,,,,
,,,,,,,,,,,,0,7,7,7,1,last,14,27,F,R,IMT,2021-07-11_14h18.47.138,ImageRatingTask_S3,2021.1.4,MacIntel,59.94125757,,,,,,,,,
,,,,,,,,,,,,,,,,,,14,27,F,R,IMT,2021-07-11_14h18.47.138,ImageRatingTask_S3,2021.1.4,MacIntel,59.94125757,0,37,37,116,1,DreamStudyImages_rs1000x750g/Water/Landscapes_101_v.jpg,,,
,,5,4.6196,1,0.4731,7,1.969,1,1.8816,5,0.946,0,0,0,0,1,main,14,27,F,R,IMT,2021-07-11_14h18.47.138,ImageRatingTask_S3,2021.1.4,MacIntel,59.94125757,,,,,,,,,
,,,,,,,,,,,,0,1,1,1,1,second,14,27,F,R,IMT,2021-07-11_14h18.47.138,ImageRatingTask_S3,2021.1.4,MacIntel,59.94125757,,,,,,,,,
,,,,,,,,,,,,0,2,2,2,1,third,14,27,F,R,IMT,2021-07-11_14h18.47.138,ImageRatingTask_S3,2021.1.4,MacIntel,59.94125757,,,,,,,,,
,,,,,,,,,,,,0,3,3,3,1,fourth,14,27,F,R,IMT,2021-07-11_14h18.47.138,ImageRatingTask_S3,2021.1.4,MacIntel,59.94125757,,,,,,,,,
,,,,,,,,,,,,0,4,4,4,1,fifth,14,27,F,R,IMT,2021-07-11_14h18.47.138,ImageRatingTask_S3,2021.1.4,MacIntel,59.94125757,,,,,,,,,
,,,,,,,,,,,,0,5,5,5,1,sixth,14,27,F,R,IMT,2021-07-11_14h18.47.138,ImageRatingTask_S3,2021.1.4,MacIntel,59.94125757,,,,,,,,,
,,,,,,,,,,,,0,6,6,6,1,seventh,14,27,F,R,IMT,2021-07-11_14h18.47.138,ImageRatingTask_S3,2021.1.4,MacIntel,59.94125757,,,,,,,,,
,,,,,,,,,,,,0,7,7,7,1,last,14,27,F,R,IMT,2021-07-11_14h18.47.138,ImageRatingTask_S3,2021.1.4,MacIntel,59.94125757,,,,,,,,,
,,,,,,,,,,,,,,,,,,14,27,F,R,IMT,2021-07-11_14h18.47.138,ImageRatingTask_S3,2021.1.4,MacIntel,59.94125757,0,38,38,71,1,DreamStudyImages_rs1000x750g/Food/Objects_067_h.jpg,,,
,,6,5.2688,1,1.6581,4,1.4738,1,1.6424,6,1.0363,0,0,0,0,1,main,14,27,F,R,IMT,2021-07-11_14h18.47.138,ImageRatingTask_S3,2021.1.4,MacIntel,59.94125757,,,,,,,,,
,,,,,,,,,,,,0,1,1,1,1,second,14,27,F,R,IMT,2021-07-11_14h18.47.138,ImageRatingTask_S3,2021.1.4,MacIntel,59.94125757,,,,,,,,,
,,,,,,,,,,,,0,2,2,2,1,third,14,27,F,R,IMT,2021-07-11_14h18.47.138,ImageRatingTask_S3,2021.1.4,MacIntel,59.94125757,,,,,,,,,
,,,,,,,,,,,,0,3,3,3,1,fourth,14,27,F,R,IMT,2021-07-11_14h18.47.138,ImageRatingTask_S3,2021.1.4,MacIntel,59.94125757,,,,,,,,,
,,,,,,,,,,,,0,4,4,4,1,fifth,14,27,F,R,IMT,2021-07-11_14h18.47.138,ImageRatingTask_S3,2021.1.4,MacIntel,59.94125757,,,,,,,,,
,,,,,,,,,,,,0,5,5,5,1,sixth,14,27,F,R,IMT,2021-07-11_14h18.47.138,ImageRatingTask_S3,2021.1.4,MacIntel,59.94125757,,,,,,,,,
,,,,,,,,,,,,0,6,6,6,1,seventh,14,27,F,R,IMT,2021-07-11_14h18.47.138,ImageRatingTask_S3,2021.1.4,MacIntel,59.94125757,,,,,,,,,
,,,,,,,,,,,,0,7,7,7,1,last,14,27,F,R,IMT,2021-07-11_14h18.47.138,ImageRatingTask_S3,2021.1.4,MacIntel,59.94125757,,,,,,,,,
,,,,,,,,,,,,,,,,,,14,27,F,R,IMT,2021-07-11_14h18.47.138,ImageRatingTask_S3,2021.1.4,MacIntel,59.94125757,0,39,39,72,1,DreamStudyImages_rs1000x750g/Houses/IAPS7180_entrance.jpg,,,
,,3,2.6566,3,1.1914,7,1.9488,1,1.0214,2,0.8173,0,0,0,0,1,main,14,27,F,R,IMT,2021-07-11_14h18.47.138,ImageRatingTask_S3,2021.1.4,MacIntel,59.94125757,,,,,,,,,
,,,,,,,,,,,,0,1,1,1,1,second,14,27,F,R,IMT,2021-07-11_14h18.47.138,ImageRatingTask_S3,2021.1.4,MacIntel,59.94125757,,,,,,,,,
,,,,,,,,,,,,0,2,2,2,1,third,14,27,F,R,IMT,2021-07-11_14h18.47.138,ImageRatingTask_S3,2021.1.4,MacIntel,59.94125757,,,,,,,,,
,,,,,,,,,,,,0,3,3,3,1,fourth,14,27,F,R,IMT,2021-07-11_14h18.47.138,ImageRatingTask_S3,2021.1.4,MacIntel,59.94125757,,,,,,,,,
,,,,,,,,,,,,0,4,4,4,1,fifth,14,27,F,R,IMT,2021-07-11_14h18.47.138,ImageRatingTask_S3,2021.1.4,MacIntel,59.94125757,,,,,,,,,
,,,,,,,,,,,,0,5,5,5,1,sixth,14,27,F,R,IMT,2021-07-11_14h18.47.138,ImageRatingTask_S3,2021.1.4,MacIntel,59.94125757,,,,,,,,,
,,,,,,,,,,,,0,6,6,6,1,seventh,14,27,F,R,IMT,2021-07-11_14h18.47.138,ImageRatingTask_S3,2021.1.4,MacIntel,59.94125757,,,,,,,,,
,,,,,,,,,,,,0,7,7,7,1,last,14,27,F,R,IMT,2021-07-11_14h18.47.138,ImageRatingTask_S3,2021.1.4,MacIntel,59.94125757,,,,,,,,,
,,,,,,,,,,,,,,,,,,14,27,F,R,IMT,2021-07-11_14h18.47.138,ImageRatingTask_S3,2021.1.4,MacIntel,59.94125757,0,40,40,112,1,DreamStudyImages_rs1000x750g/Children/Miserable face 2.jpg,,,
,,4,34.6744,2,41.6196,4,1.4788,1,2.0472,6,1.0084,0,0,0,0,1,main,14,27,F,R,IMT,2021-07-11_14h18.47.138,ImageRatingTask_S3,2021.1.4,MacIntel,59.94125757,,,,,,,,,
,,,,,,,,,,,,0,1,1,1,1,second,14,27,F,R,IMT,2021-07-11_14h18.47.138,ImageRatingTask_S3,2021.1.4,MacIntel,59.94125757,,,,,,,,,
,,,,,,,,,,,,0,2,2,2,1,third,14,27,F,R,IMT,2021-07-11_14h18.47.138,ImageRatingTask_S3,2021.1.4,MacIntel,59.94125757,,,,,,,,,
,,,,,,,,,,,,0,3,3,3,1,fourth,14,27,F,R,IMT,2021-07-11_14h18.47.138,ImageRatingTask_S3,2021.1.4,MacIntel,59.94125757,,,,,,,,,
,,,,,,,,,,,,0,4,4,4,1,fifth,14,27,F,R,IMT,2021-07-11_14h18.47.138,ImageRatingTask_S3,2021.1.4,MacIntel,59.94125757,,,,,,,,,
,,,,,,,,,,,,0,5,5,5,1,sixth,14,27,F,R,IMT,2021-07-11_14h18.47.138,ImageRatingTask_S3,2021.1.4,MacIntel,59.94125757,,,,,,,,,
,,,,,,,,,,,,0,6,6,6,1,seventh,14,27,F,R,IMT,2021-07-11_14h18.47.138,ImageRatingTask_S3,2021.1.4,MacIntel,59.94125757,,,,,,,,,
,,,,,,,,,,,,0,7,7,7,1,last,14,27,F,R,IMT,2021-07-11_14h18.47.138,ImageRatingTask_S3,2021.1.4,MacIntel,59.94125757,,,,,,,,,
,,,,,,,,,,,,,,,,,,14,27,F,R,IMT,2021-07-11_14h18.47.138,ImageRatingTask_S3,2021.1.4,MacIntel,59.94125757,0,41,41,6,1,DreamStudyImages_rs1000x750g/Houses/9941.jpg,,,
,,5,3.2787,1,0.7029,7,1.6977,1,1.1115,6,0.9099,0,0,0,0,1,main,14,27,F,R,IMT,2021-07-11_14h18.47.138,ImageRatingTask_S3,2021.1.4,MacIntel,59.94125757,,,,,,,,,
,,,,,,,,,,,,0,1,1,1,1,second,14,27,F,R,IMT,2021-07-11_14h18.47.138,ImageRatingTask_S3,2021.1.4,MacIntel,59.94125757,,,,,,,,,
,,,,,,,,,,,,0,2,2,2,1,third,14,27,F,R,IMT,2021-07-11_14h18.47.138,ImageRatingTask_S3,2021.1.4,MacIntel,59.94125757,,,,,,,,,
,,,,,,,,,,,,0,3,3,3,1,fourth,14,27,F,R,IMT,2021-07-11_14h18.47.138,ImageRatingTask_S3,2021.1.4,MacIntel,59.94125757,,,,,,,,,
,,,,,,,,,,,,0,4,4,4,1,fifth,14,27,F,R,IMT,2021-07-11_14h18.47.138,ImageRatingTask_S3,2021.1.4,MacIntel,59.94125757,,,,,,,,,
,,,,,,,,,,,,0,5,5,5,1,sixth,14,27,F,R,IMT,2021-07-11_14h18.47.138,ImageRatingTask_S3,2021.1.4,MacIntel,59.94125757,,,,,,,,,
,,,,,,,,,,,,0,6,6,6,1,seventh,14,27,F,R,IMT,2021-07-11_14h18.47.138,ImageRatingTask_S3,2021.1.4,MacIntel,59.94125757,,,,,,,,,
,,,,,,,,,,,,0,7,7,7,1,last,14,27,F,R,IMT,2021-07-11_14h18.47.138,ImageRatingTask_S3,2021.1.4,MacIntel,59.94125757,,,,,,,,,
,,,,,,,,,,,,,,,,,,14,27,F,R,IMT,2021-07-11_14h18.47.138,ImageRatingTask_S3,2021.1.4,MacIntel,59.94125757,0,42,42,156,1,DreamStudyImages_rs1000x750g/Houses/Landscapes_080_h.jpg,,,
,,5,10.8483,1,1.2611,6,2.074,1,1.3497,5,0.9469,0,0,0,0,1,main,14,27,F,R,IMT,2021-07-11_14h18.47.138,ImageRatingTask_S3,2021.1.4,MacIntel,59.94125757,,,,,,,,,
,,,,,,,,,,,,0,1,1,1,1,second,14,27,F,R,IMT,2021-07-11_14h18.47.138,ImageRatingTask_S3,2021.1.4,MacIntel,59.94125757,,,,,,,,,
,,,,,,,,,,,,0,2,2,2,1,third,14,27,F,R,IMT,2021-07-11_14h18.47.138,ImageRatingTask_S3,2021.1.4,MacIntel,59.94125757,,,,,,,,,
,,,,,,,,,,,,0,3,3,3,1,fourth,14,27,F,R,IMT,2021-07-11_14h18.47.138,ImageRatingTask_S3,2021.1.4,MacIntel,59.94125757,,,,,,,,,
,,,,,,,,,,,,0,4,4,4,1,fifth,14,27,F,R,IMT,2021-07-11_14h18.47.138,ImageRatingTask_S3,2021.1.4,MacIntel,59.94125757,,,,,,,,,
,,,,,,,,,,,,0,5,5,5,1,sixth,14,27,F,R,IMT,2021-07-11_14h18.47.138,ImageRatingTask_S3,2021.1.4,MacIntel,59.94125757,,,,,,,,,
,,,,,,,,,,,,0,6,6,6,1,seventh,14,27,F,R,IMT,2021-07-11_14h18.47.138,ImageRatingTask_S3,2021.1.4,MacIntel,59.94125757,,,,,,,,,
,,,,,,,,,,,,0,7,7,7,1,last,14,27,F,R,IMT,2021-07-11_14h18.47.138,ImageRatingTask_S3,2021.1.4,MacIntel,59.94125757,,,,,,,,,
,,,,,,,,,,,,,,,,,,14,27,F,R,IMT,2021-07-11_14h18.47.138,ImageRatingTask_S3,2021.1.4,MacIntel,59.94125757,0,43,43,8,1,DreamStudyImages_rs1000x750g/Food/Objects_030_v.jpg,,,
,,4,12.9171,2,1.2235,2,2.8737,1,0.9145,2,0.9442,0,0,0,0,1,main,14,27,F,R,IMT,2021-07-11_14h18.47.138,ImageRatingTask_S3,2021.1.4,MacIntel,59.94125757,,,,,,,,,
,,,,,,,,,,,,0,1,1,1,1,second,14,27,F,R,IMT,2021-07-11_14h18.47.138,ImageRatingTask_S3,2021.1.4,MacIntel,59.94125757,,,,,,,,,
,,,,,,,,,,,,0,2,2,2,1,third,14,27,F,R,IMT,2021-07-11_14h18.47.138,ImageRatingTask_S3,2021.1.4,MacIntel,59.94125757,,,,,,,,,
,,,,,,,,,,,,0,3,3,3,1,fourth,14,27,F,R,IMT,2021-07-11_14h18.47.138,ImageRatingTask_S3,2021.1.4,MacIntel,59.94125757,,,,,,,,,
,,,,,,,,,,,,0,4,4,4,1,fifth,14,27,F,R,IMT,2021-07-11_14h18.47.138,ImageRatingTask_S3,2021.1.4,MacIntel,59.94125757,,,,,,,,,
,,,,,,,,,,,,0,5,5,5,1,sixth,14,27,F,R,IMT,2021-07-11_14h18.47.138,ImageRatingTask_S3,2021.1.4,MacIntel,59.94125757,,,,,,,,,
,,,,,,,,,,,,0,6,6,6,1,seventh,14,27,F,R,IMT,2021-07-11_14h18.47.138,ImageRatingTask_S3,2021.1.4,MacIntel,59.94125757,,,,,,,,,
,,,,,,,,,,,,0,7,7,7,1,last,14,27,F,R,IMT,2021-07-11_14h18.47.138,ImageRatingTask_S3,2021.1.4,MacIntel,59.94125757,,,,,,,,,
,,,,,,,,,,,,,,,,,,14,27,F,R,IMT,2021-07-11_14h18.47.138,ImageRatingTask_S3,2021.1.4,MacIntel,59.94125757,0,44,44,108,1,DreamStudyImages_rs1000x750g/Children/Child labor 3.jpg,,,
,,5,9.0447,1,1.2667,8,2.1287,1,1.4412,6,1.098,0,0,0,0,1,main,14,27,F,R,IMT,2021-07-11_14h18.47.138,ImageRatingTask_S3,2021.1.4,MacIntel,59.94125757,,,,,,,,,
,,,,,,,,,,,,0,1,1,1,1,second,14,27,F,R,IMT,2021-07-11_14h18.47.138,ImageRatingTask_S3,2021.1.4,MacIntel,59.94125757,,,,,,,,,
,,,,,,,,,,,,0,2,2,2,1,third,14,27,F,R,IMT,2021-07-11_14h18.47.138,ImageRatingTask_S3,2021.1.4,MacIntel,59.94125757,,,,,,,,,
,,,,,,,,,,,,0,3,3,3,1,fourth,14,27,F,R,IMT,2021-07-11_14h18.47.138,ImageRatingTask_S3,2021.1.4,MacIntel,59.94125757,,,,,,,,,
,,,,,,,,,,,,0,4,4,4,1,fifth,14,27,F,R,IMT,2021-07-11_14h18.47.138,ImageRatingTask_S3,2021.1.4,MacIntel,59.94125757,,,,,,,,,
,,,,,,,,,,,,0,5,5,5,1,sixth,14,27,F,R,IMT,2021-07-11_14h18.47.138,ImageRatingTask_S3,2021.1.4,MacIntel,59.94125757,,,,,,,,,
,,,,,,,,,,,,0,6,6,6,1,seventh,14,27,F,R,IMT,2021-07-11_14h18.47.138,ImageRatingTask_S3,2021.1.4,MacIntel,59.94125757,,,,,,,,,
,,,,,,,,,,,,0,7,7,7,1,last,14,27,F,R,IMT,2021-07-11_14h18.47.138,ImageRatingTask_S3,2021.1.4,MacIntel,59.94125757,,,,,,,,,
,,,,,,,,,,,,,,,,,,14,27,F,R,IMT,2021-07-11_14h18.47.138,ImageRatingTask_S3,2021.1.4,MacIntel,59.94125757,0,45,45,113,1,DreamStudyImages_rs1000x750g/Houses/Landscapes_091_h.jpg,,,
,,1,7.2029,5,1.9641,7,3.6738,1,3.4341,5,0.9992,0,0,0,0,1,main,14,27,F,R,IMT,2021-07-11_14h18.47.138,ImageRatingTask_S3,2021.1.4,MacIntel,59.94125757,,,,,,,,,
,,,,,,,,,,,,0,1,1,1,1,second,14,27,F,R,IMT,2021-07-11_14h18.47.138,ImageRatingTask_S3,2021.1.4,MacIntel,59.94125757,,,,,,,,,
,,,,,,,,,,,,0,2,2,2,1,third,14,27,F,R,IMT,2021-07-11_14h18.47.138,ImageRatingTask_S3,2021.1.4,MacIntel,59.94125757,,,,,,,,,
,,,,,,,,,,,,0,3,3,3,1,fourth,14,27,F,R,IMT,2021-07-11_14h18.47.138,ImageRatingTask_S3,2021.1.4,MacIntel,59.94125757,,,,,,,,,
,,,,,,,,,,,,0,4,4,4,1,fifth,14,27,F,R,IMT,2021-07-11_14h18.47.138,ImageRatingTask_S3,2021.1.4,MacIntel,59.94125757,,,,,,,,,
,,,,,,,,,,,,0,5,5,5,1,sixth,14,27,F,R,IMT,2021-07-11_14h18.47.138,ImageRatingTask_S3,2021.1.4,MacIntel,59.94125757,,,,,,,,,
,,,,,,,,,,,,0,6,6,6,1,seventh,14,27,F,R,IMT,2021-07-11_14h18.47.138,ImageRatingTask_S3,2021.1.4,MacIntel,59.94125757,,,,,,,,,
,,,,,,,,,,,,0,7,7,7,1,last,14,27,F,R,IMT,2021-07-11_14h18.47.138,ImageRatingTask_S3,2021.1.4,MacIntel,59.94125757,,,,,,,,,
,,,,,,,,,,,,,,,,,,14,27,F,R,IMT,2021-07-11_14h18.47.138,ImageRatingTask_S3,2021.1.4,MacIntel,59.94125757,0,46,46,26,1,DreamStudyImages_rs1000x750g/Food/Objects_023_v.jpg,,,
,,5,2.4087,1,0.9843,3,1.3453,1,1.2784,2,0.5768,0,0,0,0,1,main,14,27,F,R,IMT,2021-07-11_14h18.47.138,ImageRatingTask_S3,2021.1.4,MacIntel,59.94125757,,,,,,,,,
,,,,,,,,,,,,0,1,1,1,1,second,14,27,F,R,IMT,2021-07-11_14h18.47.138,ImageRatingTask_S3,2021.1.4,MacIntel,59.94125757,,,,,,,,,
,,,,,,,,,,,,0,2,2,2,1,third,14,27,F,R,IMT,2021-07-11_14h18.47.138,ImageRatingTask_S3,2021.1.4,MacIntel,59.94125757,,,,,,,,,
,,,,,,,,,,,,0,3,3,3,1,fourth,14,27,F,R,IMT,2021-07-11_14h18.47.138,ImageRatingTask_S3,2021.1.4,MacIntel,59.94125757,,,,,,,,,
,,,,,,,,,,,,0,4,4,4,1,fifth,14,27,F,R,IMT,2021-07-11_14h18.47.138,ImageRatingTask_S3,2021.1.4,MacIntel,59.94125757,,,,,,,,,
,,,,,,,,,,,,0,5,5,5,1,sixth,14,27,F,R,IMT,2021-07-11_14h18.47.138,ImageRatingTask_S3,2021.1.4,MacIntel,59.94125757,,,,,,,,,
,,,,,,,,,,,,0,6,6,6,1,seventh,14,27,F,R,IMT,2021-07-11_14h18.47.138,ImageRatingTask_S3,2021.1.4,MacIntel,59.94125757,,,,,,,,,
,,,,,,,,,,,,0,7,7,7,1,last,14,27,F,R,IMT,2021-07-11_14h18.47.138,ImageRatingTask_S3,2021.1.4,MacIntel,59.94125757,,,,,,,,,
,,,,,,,,,,,,,,,,,,14,27,F,R,IMT,2021-07-11_14h18.47.138,ImageRatingTask_S3,2021.1.4,MacIntel,59.94125757,0,47,47,153,1,DreamStudyImages_rs1000x750g/Children/IAPS2250_baby19.jpg,,,
,,2,3.4115,2,20.0817,1,1.6857,1,1.2979,6,1.0921,0,0,0,0,1,main,14,27,F,R,IMT,2021-07-11_14h18.47.138,ImageRatingTask_S3,2021.1.4,MacIntel,59.94125757,,,,,,,,,
,,,,,,,,,,,,0,1,1,1,1,second,14,27,F,R,IMT,2021-07-11_14h18.47.138,ImageRatingTask_S3,2021.1.4,MacIntel,59.94125757,,,,,,,,,
,,,,,,,,,,,,0,2,2,2,1,third,14,27,F,R,IMT,2021-07-11_14h18.47.138,ImageRatingTask_S3,2021.1.4,MacIntel,59.94125757,,,,,,,,,
,,,,,,,,,,,,0,3,3,3,1,fourth,14,27,F,R,IMT,2021-07-11_14h18.47.138,ImageRatingTask_S3,2021.1.4,MacIntel,59.94125757,,,,,,,,,
,,,,,,,,,,,,0,4,4,4,1,fifth,14,27,F,R,IMT,2021-07-11_14h18.47.138,ImageRatingTask_S3,2021.1.4,MacIntel,59.94125757,,,,,,,,,
,,,,,,,,,,,,0,5,5,5,1,sixth,14,27,F,R,IMT,2021-07-11_14h18.47.138,ImageRatingTask_S3,2021.1.4,MacIntel,59.94125757,,,,,,,,,
,,,,,,,,,,,,0,6,6,6,1,seventh,14,27,F,R,IMT,2021-07-11_14h18.47.138,ImageRatingTask_S3,2021.1.4,MacIntel,59.94125757,,,,,,,,,
,,,,,,,,,,,,0,7,7,7,1,last,14,27,F,R,IMT,2021-07-11_14h18.47.138,ImageRatingTask_S3,2021.1.4,MacIntel,59.94125757,,,,,,,,,
,,,,,,,,,,,,,,,,,,14,27,F,R,IMT,2021-07-11_14h18.47.138,ImageRatingTask_S3,2021.1.4,MacIntel,59.94125757,0,48,48,126,1,DreamStudyImages_rs1000x750g/Houses/NDPS4_buildings2_water_CROPPED.jpg,,,
,,5,52.1748,1,2.4956,6,2.318,1,1.216,3,1.7305,0,0,0,0,1,main,14,27,F,R,IMT,2021-07-11_14h18.47.138,ImageRatingTask_S3,2021.1.4,MacIntel,59.94125757,,,,,,,,,
,,,,,,,,,,,,0,1,1,1,1,second,14,27,F,R,IMT,2021-07-11_14h18.47.138,ImageRatingTask_S3,2021.1.4,MacIntel,59.94125757,,,,,,,,,
,,,,,,,,,,,,0,2,2,2,1,third,14,27,F,R,IMT,2021-07-11_14h18.47.138,ImageRatingTask_S3,2021.1.4,MacIntel,59.94125757,,,,,,,,,
,,,,,,,,,,,,0,3,3,3,1,fourth,14,27,F,R,IMT,2021-07-11_14h18.47.138,ImageRatingTask_S3,2021.1.4,MacIntel,59.94125757,,,,,,,,,
,,,,,,,,,,,,0,4,4,4,1,fifth,14,27,F,R,IMT,2021-07-11_14h18.47.138,ImageRatingTask_S3,2021.1.4,MacIntel,59.94125757,,,,,,,,,
,,,,,,,,,,,,0,5,5,5,1,sixth,14,27,F,R,IMT,2021-07-11_14h18.47.138,ImageRatingTask_S3,2021.1.4,MacIntel,59.94125757,,,,,,,,,
,,,,,,,,,,,,0,6,6,6,1,seventh,14,27,F,R,IMT,2021-07-11_14h18.47.138,ImageRatingTask_S3,2021.1.4,MacIntel,59.94125757,,,,,,,,,
,,,,,,,,,,,,0,7,7,7,1,last,14,27,F,R,IMT,2021-07-11_14h18.47.138,ImageRatingTask_S3,2021.1.4,MacIntel,59.94125757,,,,,,,,,
,,,,,,,,,,,,,,,,,,14,27,F,R,IMT,2021-07-11_14h18.47.138,ImageRatingTask_S3,2021.1.4,MacIntel,59.94125757,0,49,49,11,1,DreamStudyImages_rs1000x750g/Mammals/Animals_097_h.jpg,,,
,,5,160.8022,1,1.7473,2,2.8759,1,1.0999,7,1.1225,0,0,0,0,1,main,14,27,F,R,IMT,2021-07-11_14h18.47.138,ImageRatingTask_S3,2021.1.4,MacIntel,59.94125757,,,,,,,,,
,,,,,,,,,,,,0,1,1,1,1,second,14,27,F,R,IMT,2021-07-11_14h18.47.138,ImageRatingTask_S3,2021.1.4,MacIntel,59.94125757,,,,,,,,,
,,,,,,,,,,,,0,2,2,2,1,third,14,27,F,R,IMT,2021-07-11_14h18.47.138,ImageRatingTask_S3,2021.1.4,MacIntel,59.94125757,,,,,,,,,
,,,,,,,,,,,,0,3,3,3,1,fourth,14,27,F,R,IMT,2021-07-11_14h18.47.138,ImageRatingTask_S3,2021.1.4,MacIntel,59.94125757,,,,,,,,,
,,,,,,,,,,,,0,4,4,4,1,fifth,14,27,F,R,IMT,2021-07-11_14h18.47.138,ImageRatingTask_S3,2021.1.4,MacIntel,59.94125757,,,,,,,,,
,,,,,,,,,,,,0,5,5,5,1,sixth,14,27,F,R,IMT,2021-07-11_14h18.47.138,ImageRatingTask_S3,2021.1.4,MacIntel,59.94125757,,,,,,,,,
,,,,,,,,,,,,0,6,6,6,1,seventh,14,27,F,R,IMT,2021-07-11_14h18.47.138,ImageRatingTask_S3,2021.1.4,MacIntel,59.94125757,,,,,,,,,
,,,,,,,,,,,,0,7,7,7,1,last,14,27,F,R,IMT,2021-07-11_14h18.47.138,ImageRatingTask_S3,2021.1.4,MacIntel,59.94125757,,,,,,,,,
,,,,,,,,,,,,,,,,,,14,27,F,R,IMT,2021-07-11_14h18.47.138,ImageRatingTask_S3,2021.1.4,MacIntel,59.94125757,0,50,50,159,1,DreamStudyImages_rs1000x750g/Vehicles/Car race 3.jpg,,,
,,5,3.1318,1,0.2714,7,1.6065,1,1.3674,2,0.463,0,0,0,0,1,main,14,27,F,R,IMT,2021-07-11_14h18.47.138,ImageRatingTask_S3,2021.1.4,MacIntel,59.94125757,,,,,,,,,
,,,,,,,,,,,,0,1,1,1,1,second,14,27,F,R,IMT,2021-07-11_14h18.47.138,ImageRatingTask_S3,2021.1.4,MacIntel,59.94125757,,,,,,,,,
,,,,,,,,,,,,0,2,2,2,1,third,14,27,F,R,IMT,2021-07-11_14h18.47.138,ImageRatingTask_S3,2021.1.4,MacIntel,59.94125757,,,,,,,,,
,,,,,,,,,,,,0,3,3,3,1,fourth,14,27,F,R,IMT,2021-07-11_14h18.47.138,ImageRatingTask_S3,2021.1.4,MacIntel,59.94125757,,,,,,,,,
,,,,,,,,,,,,0,4,4,4,1,fifth,14,27,F,R,IMT,2021-07-11_14h18.47.138,ImageRatingTask_S3,2021.1.4,MacIntel,59.94125757,,,,,,,,,
,,,,,,,,,,,,0,5,5,5,1,sixth,14,27,F,R,IMT,2021-07-11_14h18.47.138,ImageRatingTask_S3,2021.1.4,MacIntel,59.94125757,,,,,,,,,
,,,,,,,,,,,,0,6,6,6,1,seventh,14,27,F,R,IMT,2021-07-11_14h18.47.138,ImageRatingTask_S3,2021.1.4,MacIntel,59.94125757,,,,,,,,,
,,,,,,,,,,,,0,7,7,7,1,last,14,27,F,R,IMT,2021-07-11_14h18.47.138,ImageRatingTask_S3,2021.1.4,MacIntel,59.94125757,,,,,,,,,
,,,,,,,,,,,,,,,,,,14,27,F,R,IMT,2021-07-11_14h18.47.138,ImageRatingTask_S3,2021.1.4,MacIntel,59.94125757,0,51,51,27,1,DreamStudyImages_rs1000x750g/Children/Faces_032_h.jpg,,,
,,1,3.3663,6,1.2838,2,1.6681,1,0.7815,2,0.4046,0,0,0,0,1,main,14,27,F,R,IMT,2021-07-11_14h18.47.138,ImageRatingTask_S3,2021.1.4,MacIntel,59.94125757,,,,,,,,,
,,,,,,,,,,,,0,1,1,1,1,second,14,27,F,R,IMT,2021-07-11_14h18.47.138,ImageRatingTask_S3,2021.1.4,MacIntel,59.94125757,,,,,,,,,
,,,,,,,,,,,,0,2,2,2,1,third,14,27,F,R,IMT,2021-07-11_14h18.47.138,ImageRatingTask_S3,2021.1.4,MacIntel,59.94125757,,,,,,,,,
,,,,,,,,,,,,0,3,3,3,1,fourth,14,27,F,R,IMT,2021-07-11_14h18.47.138,ImageRatingTask_S3,2021.1.4,MacIntel,59.94125757,,,,,,,,,
,,,,,,,,,,,,0,4,4,4,1,fifth,14,27,F,R,IMT,2021-07-11_14h18.47.138,ImageRatingTask_S3,2021.1.4,MacIntel,59.94125757,,,,,,,,,
,,,,,,,,,,,,0,5,5,5,1,sixth,14,27,F,R,IMT,2021-07-11_14h18.47.138,ImageRatingTask_S3,2021.1.4,MacIntel,59.94125757,,,,,,,,,
,,,,,,,,,,,,0,6,6,6,1,seventh,14,27,F,R,IMT,2021-07-11_14h18.47.138,ImageRatingTask_S3,2021.1.4,MacIntel,59.94125757,,,,,,,,,
,,,,,,,,,,,,0,7,7,7,1,last,14,27,F,R,IMT,2021-07-11_14h18.47.138,ImageRatingTask_S3,2021.1.4,MacIntel,59.94125757,,,,,,,,,
,,,,,,,,,,,,,,,,,,14,27,F,R,IMT,2021-07-11_14h18.47.138,ImageRatingTask_S3,2021.1.4,MacIntel,59.94125757,0,52,52,134,1,DreamStudyImages_rs1000x750g/Children/IAPS3300_baby25.jpg,,,
,,5,7.3663,1,1.4815,3,1.7723,1,0.8304,2,0.3917,0,0,0,0,1,main,14,27,F,R,IMT,2021-07-11_14h18.47.138,ImageRatingTask_S3,2021.1.4,MacIntel,59.94125757,,,,,,,,,
,,,,,,,,,,,,0,1,1,1,1,second,14,27,F,R,IMT,2021-07-11_14h18.47.138,ImageRatingTask_S3,2021.1.4,MacIntel,59.94125757,,,,,,,,,
,,,,,,,,,,,,0,2,2,2,1,third,14,27,F,R,IMT,2021-07-11_14h18.47.138,ImageRatingTask_S3,2021.1.4,MacIntel,59.94125757,,,,,,,,,
,,,,,,,,,,,,0,3,3,3,1,fourth,14,27,F,R,IMT,2021-07-11_14h18.47.138,ImageRatingTask_S3,2021.1.4,MacIntel,59.94125757,,,,,,,,,
,,,,,,,,,,,,0,4,4,4,1,fifth,14,27,F,R,IMT,2021-07-11_14h18.47.138,ImageRatingTask_S3,2021.1.4,MacIntel,59.94125757,,,,,,,,,
,,,,,,,,,,,,0,5,5,5,1,sixth,14,27,F,R,IMT,2021-07-11_14h18.47.138,ImageRatingTask_S3,2021.1.4,MacIntel,59.94125757,,,,,,,,,
,,,,,,,,,,,,0,6,6,6,1,seventh,14,27,F,R,IMT,2021-07-11_14h18.47.138,ImageRatingTask_S3,2021.1.4,MacIntel,59.94125757,,,,,,,,,
,,,,,,,,,,,,0,7,7,7,1,last,14,27,F,R,IMT,2021-07-11_14h18.47.138,ImageRatingTask_S3,2021.1.4,MacIntel,59.94125757,,,,,,,,,
,,,,,,,,,,,,,,,,,,14,27,F,R,IMT,2021-07-11_14h18.47.138,ImageRatingTask_S3,2021.1.4,MacIntel,59.94125757,0,53,53,40,1,DreamStudyImages_rs1000x750g/Children/IAPS2070_baby8.jpg,,,
,,4,49.5661,2,10.7953,8,3.3292,1,1.4952,6,1.0543,0,0,0,0,1,main,14,27,F,R,IMT,2021-07-11_14h18.47.138,ImageRatingTask_S3,2021.1.4,MacIntel,59.94125757,,,,,,,,,
,,,,,,,,,,,,0,1,1,1,1,second,14,27,F,R,IMT,2021-07-11_14h18.47.138,ImageRatingTask_S3,2021.1.4,MacIntel,59.94125757,,,,,,,,,
,,,,,,,,,,,,0,2,2,2,1,third,14,27,F,R,IMT,2021-07-11_14h18.47.138,ImageRatingTask_S3,2021.1.4,MacIntel,59.94125757,,,,,,,,,
,,,,,,,,,,,,0,3,3,3,1,fourth,14,27,F,R,IMT,2021-07-11_14h18.47.138,ImageRatingTask_S3,2021.1.4,MacIntel,59.94125757,,,,,,,,,
,,,,,,,,,,,,0,4,4,4,1,fifth,14,27,F,R,IMT,2021-07-11_14h18.47.138,ImageRatingTask_S3,2021.1.4,MacIntel,59.94125757,,,,,,,,,
,,,,,,,,,,,,0,5,5,5,1,sixth,14,27,F,R,IMT,2021-07-11_14h18.47.138,ImageRatingTask_S3,2021.1.4,MacIntel,59.94125757,,,,,,,,,
,,,,,,,,,,,,0,6,6,6,1,seventh,14,27,F,R,IMT,2021-07-11_14h18.47.138,ImageRatingTask_S3,2021.1.4,MacIntel,59.94125757,,,,,,,,,
,,,,,,,,,,,,0,7,7,7,1,last,14,27,F,R,IMT,2021-07-11_14h18.47.138,ImageRatingTask_S3,2021.1.4,MacIntel,59.94125757,,,,,,,,,
,,,,,,,,,,,,,,,,,,14,27,F,R,IMT,2021-07-11_14h18.47.138,ImageRatingTask_S3,2021.1.4,MacIntel,59.94125757,0,54,54,32,1,DreamStudyImages_rs1000x750g/Houses/NDPS48_houses4.jpg,,,
,,8,5.4861,4,3.6698,7,100.3475,1,3.8957,3,3.7599,0,0,0,0,1,main,14,27,F,R,IMT,2021-07-11_14h18.47.138,ImageRatingTask_S3,2021.1.4,MacIntel,59.94125757,,,,,,,,,
,,,,,,,,,,,,0,1,1,1,1,second,14,27,F,R,IMT,2021-07-11_14h18.47.138,ImageRatingTask_S3,2021.1.4,MacIntel,59.94125757,,,,,,,,,
,,,,,,,,,,,,0,2,2,2,1,third,14,27,F,R,IMT,2021-07-11_14h18.47.138,ImageRatingTask_S3,2021.1.4,MacIntel,59.94125757,,,,,,,,,
,,,,,,,,,,,,0,3,3,3,1,fourth,14,27,F,R,IMT,2021-07-11_14h18.47.138,ImageRatingTask_S3,2021.1.4,MacIntel,59.94125757,,,,,,,,,
,,,,,,,,,,,,0,4,4,4,1,fifth,14,27,F,R,IMT,2021-07-11_14h18.47.138,ImageRatingTask_S3,2021.1.4,MacIntel,59.94125757,,,,,,,,,
,,,,,,,,,,,,0,5,5,5,1,sixth,14,27,F,R,IMT,2021-07-11_14h18.47.138,ImageRatingTask_S3,2021.1.4,MacIntel,59.94125757,,,,,,,,,
,,,,,,,,,,,,0,6,6,6,1,seventh,14,27,F,R,IMT,2021-07-11_14h18.47.138,ImageRatingTask_S3,2021.1.4,MacIntel,59.94125757,,,,,,,,,
,,,,,,,,,,,,0,7,7,7,1,last,14,27,F,R,IMT,2021-07-11_14h18.47.138,ImageRatingTask_S3,2021.1.4,MacIntel,59.94125757,,,,,,,,,
,,,,,,,,,,,,,,,,,,14,27,F,R,IMT,2021-07-11_14h18.47.138,ImageRatingTask_S3,2021.1.4,MacIntel,59.94125757,0,55,55,39,1,DreamStudyImages_rs1000x750g/Mammals/Animals_210_v.jpg,,,
,,5,2.9535,1,0.733,3,2.1322,1,1.0869,2,0.2919,0,0,0,0,1,main,14,27,F,R,IMT,2021-07-11_14h18.47.138,ImageRatingTask_S3,2021.1.4,MacIntel,59.94125757,,,,,,,,,
,,,,,,,,,,,,0,1,1,1,1,second,14,27,F,R,IMT,2021-07-11_14h18.47.138,ImageRatingTask_S3,2021.1.4,MacIntel,59.94125757,,,,,,,,,
,,,,,,,,,,,,0,2,2,2,1,third,14,27,F,R,IMT,2021-07-11_14h18.47.138,ImageRatingTask_S3,2021.1.4,MacIntel,59.94125757,,,,,,,,,
,,,,,,,,,,,,0,3,3,3,1,fourth,14,27,F,R,IMT,2021-07-11_14h18.47.138,ImageRatingTask_S3,2021.1.4,MacIntel,59.94125757,,,,,,,,,
,,,,,,,,,,,,0,4,4,4,1,fifth,14,27,F,R,IMT,2021-07-11_14h18.47.138,ImageRatingTask_S3,2021.1.4,MacIntel,59.94125757,,,,,,,,,
,,,,,,,,,,,,0,5,5,5,1,sixth,14,27,F,R,IMT,2021-07-11_14h18.47.138,ImageRatingTask_S3,2021.1.4,MacIntel,59.94125757,,,,,,,,,
,,,,,,,,,,,,0,6,6,6,1,seventh,14,27,F,R,IMT,2021-07-11_14h18.47.138,ImageRatingTask_S3,2021.1.4,MacIntel,59.94125757,,,,,,,,,
,,,,,,,,,,,,0,7,7,7,1,last,14,27,F,R,IMT,2021-07-11_14h18.47.138,ImageRatingTask_S3,2021.1.4,MacIntel,59.94125757,,,,,,,,,
,,,,,,,,,,,,,,,,,,14,27,F,R,IMT,2021-07-11_14h18.47.138,ImageRatingTask_S3,2021.1.4,MacIntel,59.94125757,0,56,56,130,1,DreamStudyImages_rs1000x750g/Children/IAPS2341_children9.jpg,,,
,,5,1.9037,1,1.516,4,3.3045,1,0.7785,2,0.6929,0,0,0,0,1,main,14,27,F,R,IMT,2021-07-11_14h18.47.138,ImageRatingTask_S3,2021.1.4,MacIntel,59.94125757,,,,,,,,,
,,,,,,,,,,,,0,1,1,1,1,second,14,27,F,R,IMT,2021-07-11_14h18.47.138,ImageRatingTask_S3,2021.1.4,MacIntel,59.94125757,,,,,,,,,
,,,,,,,,,,,,0,2,2,2,1,third,14,27,F,R,IMT,2021-07-11_14h18.47.138,ImageRatingTask_S3,2021.1.4,MacIntel,59.94125757,,,,,,,,,
,,,,,,,,,,,,0,3,3,3,1,fourth,14,27,F,R,IMT,2021-07-11_14h18.47.138,ImageRatingTask_S3,2021.1.4,MacIntel,59.94125757,,,,,,,,,
,,,,,,,,,,,,0,4,4,4,1,fifth,14,27,F,R,IMT,2021-07-11_14h18.47.138,ImageRatingTask_S3,2021.1.4,MacIntel,59.94125757,,,,,,,,,
,,,,,,,,,,,,0,5,5,5,1,sixth,14,27,F,R,IMT,2021-07-11_14h18.47.138,ImageRatingTask_S3,2021.1.4,MacIntel,59.94125757,,,,,,,,,
,,,,,,,,,,,,0,6,6,6,1,seventh,14,27,F,R,IMT,2021-07-11_14h18.47.138,ImageRatingTask_S3,2021.1.4,MacIntel,59.94125757,,,,,,,,,
,,,,,,,,,,,,0,7,7,7,1,last,14,27,F,R,IMT,2021-07-11_14h18.47.138,ImageRatingTask_S3,2021.1.4,MacIntel,59.94125757,,,,,,,,,
,,,,,,,,,,,,,,,,,,14,27,F,R,IMT,2021-07-11_14h18.47.138,ImageRatingTask_S3,2021.1.4,MacIntel,59.94125757,0,57,57,47,1,DreamStudyImages_rs1000x750g/Children/Faces_128_h.jpg,,,
,,5,2.7821,1,0.4735,7,2.5344,1,0.8611,7,0.9769,0,0,0,0,1,main,14,27,F,R,IMT,2021-07-11_14h18.47.138,ImageRatingTask_S3,2021.1.4,MacIntel,59.94125757,,,,,,,,,
,,,,,,,,,,,,0,1,1,1,1,second,14,27,F,R,IMT,2021-07-11_14h18.47.138,ImageRatingTask_S3,2021.1.4,MacIntel,59.94125757,,,,,,,,,
,,,,,,,,,,,,0,2,2,2,1,third,14,27,F,R,IMT,2021-07-11_14h18.47.138,ImageRatingTask_S3,2021.1.4,MacIntel,59.94125757,,,,,,,,,
,,,,,,,,,,,,0,3,3,3,1,fourth,14,27,F,R,IMT,2021-07-11_14h18.47.138,ImageRatingTask_S3,2021.1.4,MacIntel,59.94125757,,,,,,,,,
,,,,,,,,,,,,0,4,4,4,1,fifth,14,27,F,R,IMT,2021-07-11_14h18.47.138,ImageRatingTask_S3,2021.1.4,MacIntel,59.94125757,,,,,,,,,
,,,,,,,,,,,,0,5,5,5,1,sixth,14,27,F,R,IMT,2021-07-11_14h18.47.138,ImageRatingTask_S3,2021.1.4,MacIntel,59.94125757,,,,,,,,,
,,,,,,,,,,,,0,6,6,6,1,seventh,14,27,F,R,IMT,2021-07-11_14h18.47.138,ImageRatingTask_S3,2021.1.4,MacIntel,59.94125757,,,,,,,,,
,,,,,,,,,,,,0,7,7,7,1,last,14,27,F,R,IMT,2021-07-11_14h18.47.138,ImageRatingTask_S3,2021.1.4,MacIntel,59.94125757,,,,,,,,,
,,,,,,,,,,,,,,,,,,14,27,F,R,IMT,2021-07-11_14h18.47.138,ImageRatingTask_S3,2021.1.4,MacIntel,59.94125757,0,58,58,79,1,DreamStudyImages_rs1000x750g/Vehicles/desertroad.jpg,,,
,,3,5.6769,3,1.804,4,2.0701,1,1.5599,3,1.1252,0,0,0,0,1,main,14,27,F,R,IMT,2021-07-11_14h18.47.138,ImageRatingTask_S3,2021.1.4,MacIntel,59.94125757,,,,,,,,,
,,,,,,,,,,,,0,1,1,1,1,second,14,27,F,R,IMT,2021-07-11_14h18.47.138,ImageRatingTask_S3,2021.1.4,MacIntel,59.94125757,,,,,,,,,
,,,,,,,,,,,,0,2,2,2,1,third,14,27,F,R,IMT,2021-07-11_14h18.47.138,ImageRatingTask_S3,2021.1.4,MacIntel,59.94125757,,,,,,,,,
,,,,,,,,,,,,0,3,3,3,1,fourth,14,27,F,R,IMT,2021-07-11_14h18.47.138,ImageRatingTask_S3,2021.1.4,MacIntel,59.94125757,,,,,,,,,
,,,,,,,,,,,,0,4,4,4,1,fifth,14,27,F,R,IMT,2021-07-11_14h18.47.138,ImageRatingTask_S3,2021.1.4,MacIntel,59.94125757,,,,,,,,,
,,,,,,,,,,,,0,5,5,5,1,sixth,14,27,F,R,IMT,2021-07-11_14h18.47.138,ImageRatingTask_S3,2021.1.4,MacIntel,59.94125757,,,,,,,,,
,,,,,,,,,,,,0,6,6,6,1,seventh,14,27,F,R,IMT,2021-07-11_14h18.47.138,ImageRatingTask_S3,2021.1.4,MacIntel,59.94125757,,,,,,,,,
,,,,,,,,,,,,0,7,7,7,1,last,14,27,F,R,IMT,2021-07-11_14h18.47.138,ImageRatingTask_S3,2021.1.4,MacIntel,59.94125757,,,,,,,,,
,,,,,,,,,,,,,,,,,,14,27,F,R,IMT,2021-07-11_14h18.47.138,ImageRatingTask_S3,2021.1.4,MacIntel,59.94125757,0,59,59,124,1,DreamStudyImages_rs1000x750g/Mammals/Dog 25.jpg,,,
,,6,6.5322,2,26.1313,7,12.8363,1,1.8946,3,1.3708,0,0,0,0,1,main,14,27,F,R,IMT,2021-07-11_14h18.47.138,ImageRatingTask_S3,2021.1.4,MacIntel,59.94125757,,,,,,,,,
,,,,,,,,,,,,0,1,1,1,1,second,14,27,F,R,IMT,2021-07-11_14h18.47.138,ImageRatingTask_S3,2021.1.4,MacIntel,59.94125757,,,,,,,,,
,,,,,,,,,,,,0,2,2,2,1,third,14,27,F,R,IMT,2021-07-11_14h18.47.138,ImageRatingTask_S3,2021.1.4,MacIntel,59.94125757,,,,,,,,,
,,,,,,,,,,,,0,3,3,3,1,fourth,14,27,F,R,IMT,2021-07-11_14h18.47.138,ImageRatingTask_S3,2021.1.4,MacIntel,59.94125757,,,,,,,,,
,,,,,,,,,,,,0,4,4,4,1,fifth,14,27,F,R,IMT,2021-07-11_14h18.47.138,ImageRatingTask_S3,2021.1.4,MacIntel,59.94125757,,,,,,,,,
,,,,,,,,,,,,0,5,5,5,1,sixth,14,27,F,R,IMT,2021-07-11_14h18.47.138,ImageRatingTask_S3,2021.1.4,MacIntel,59.94125757,,,,,,,,,
,,,,,,,,,,,,0,6,6,6,1,seventh,14,27,F,R,IMT,2021-07-11_14h18.47.138,ImageRatingTask_S3,2021.1.4,MacIntel,59.94125757,,,,,,,,,
,,,,,,,,,,,,0,7,7,7,1,last,14,27,F,R,IMT,2021-07-11_14h18.47.138,ImageRatingTask_S3,2021.1.4,MacIntel,59.94125757,,,,,,,,,
,,,,,,,,,,,,,,,,,,14,27,F,R,IMT,2021-07-11_14h18.47.138,ImageRatingTask_S3,2021.1.4,MacIntel,59.94125757,0,60,60,46,1,DreamStudyImages_rs1000x750g/Mammals/Animals_002_v.jpg,,,
,,5,3.5861,2,1.8788,8,1.8094,1,0.759,6,0.8567,0,0,0,0,1,main,14,27,F,R,IMT,2021-07-11_14h18.47.138,ImageRatingTask_S3,2021.1.4,MacIntel,59.94125757,,,,,,,,,
,,,,,,,,,,,,0,1,1,1,1,second,14,27,F,R,IMT,2021-07-11_14h18.47.138,ImageRatingTask_S3,2021.1.4,MacIntel,59.94125757,,,,,,,,,
,,,,,,,,,,,,0,2,2,2,1,third,14,27,F,R,IMT,2021-07-11_14h18.47.138,ImageRatingTask_S3,2021.1.4,MacIntel,59.94125757,,,,,,,,,
,,,,,,,,,,,,0,3,3,3,1,fourth,14,27,F,R,IMT,2021-07-11_14h18.47.138,ImageRatingTask_S3,2021.1.4,MacIntel,59.94125757,,,,,,,,,
,,,,,,,,,,,,0,4,4,4,1,fifth,14,27,F,R,IMT,2021-07-11_14h18.47.138,ImageRatingTask_S3,2021.1.4,MacIntel,59.94125757,,,,,,,,,
,,,,,,,,,,,,0,5,5,5,1,sixth,14,27,F,R,IMT,2021-07-11_14h18.47.138,ImageRatingTask_S3,2021.1.4,MacIntel,59.94125757,,,,,,,,,
,,,,,,,,,,,,0,6,6,6,1,seventh,14,27,F,R,IMT,2021-07-11_14h18.47.138,ImageRatingTask_S3,2021.1.4,MacIntel,59.94125757,,,,,,,,,
,,,,,,,,,,,,0,7,7,7,1,last,14,27,F,R,IMT,2021-07-11_14h18.47.138,ImageRatingTask_S3,2021.1.4,MacIntel,59.94125757,,,,,,,,,
,,,,,,,,,,,,,,,,,,14,27,F,R,IMT,2021-07-11_14h18.47.138,ImageRatingTask_S3,2021.1.4,MacIntel,59.94125757,0,61,61,125,1,DreamStudyImages_rs1000x750g/Houses/Landscapes_042_h.jpg,,,
,,4,4.6608,2,1.7167,5,2.2666,1,2.0693,8,1.2669,0,0,0,0,1,main,14,27,F,R,IMT,2021-07-11_14h18.47.138,ImageRatingTask_S3,2021.1.4,MacIntel,59.94125757,,,,,,,,,
,,,,,,,,,,,,0,1,1,1,1,second,14,27,F,R,IMT,2021-07-11_14h18.47.138,ImageRatingTask_S3,2021.1.4,MacIntel,59.94125757,,,,,,,,,
,,,,,,,,,,,,0,2,2,2,1,third,14,27,F,R,IMT,2021-07-11_14h18.47.138,ImageRatingTask_S3,2021.1.4,MacIntel,59.94125757,,,,,,,,,
,,,,,,,,,,,,0,3,3,3,1,fourth,14,27,F,R,IMT,2021-07-11_14h18.47.138,ImageRatingTask_S3,2021.1.4,MacIntel,59.94125757,,,,,,,,,
,,,,,,,,,,,,0,4,4,4,1,fifth,14,27,F,R,IMT,2021-07-11_14h18.47.138,ImageRatingTask_S3,2021.1.4,MacIntel,59.94125757,,,,,,,,,
,,,,,,,,,,,,0,5,5,5,1,sixth,14,27,F,R,IMT,2021-07-11_14h18.47.138,ImageRatingTask_S3,2021.1.4,MacIntel,59.94125757,,,,,,,,,
,,,,,,,,,,,,0,6,6,6,1,seventh,14,27,F,R,IMT,2021-07-11_14h18.47.138,ImageRatingTask_S3,2021.1.4,MacIntel,59.94125757,,,,,,,,,
,,,,,,,,,,,,0,7,7,7,1,last,14,27,F,R,IMT,2021-07-11_14h18.47.138,ImageRatingTask_S3,2021.1.4,MacIntel,59.94125757,,,,,,,,,
,,,,,,,,,,,,,,,,,,14,27,F,R,IMT,2021-07-11_14h18.47.138,ImageRatingTask_S3,2021.1.4,MacIntel,59.94125757,0,62,62,53,1,DreamStudyImages_rs1000x750g/Water/Landscapes_129_v.jpg,,,
,,5,63.5695,1,0.5775,5,2.783,1,1.1995,6,0.9344,0,0,0,0,1,main,14,27,F,R,IMT,2021-07-11_14h18.47.138,ImageRatingTask_S3,2021.1.4,MacIntel,59.94125757,,,,,,,,,
,,,,,,,,,,,,0,1,1,1,1,second,14,27,F,R,IMT,2021-07-11_14h18.47.138,ImageRatingTask_S3,2021.1.4,MacIntel,59.94125757,,,,,,,,,
,,,,,,,,,,,,0,2,2,2,1,third,14,27,F,R,IMT,2021-07-11_14h18.47.138,ImageRatingTask_S3,2021.1.4,MacIntel,59.94125757,,,,,,,,,
,,,,,,,,,,,,0,3,3,3,1,fourth,14,27,F,R,IMT,2021-07-11_14h18.47.138,ImageRatingTask_S3,2021.1.4,MacIntel,59.94125757,,,,,,,,,
,,,,,,,,,,,,0,4,4,4,1,fifth,14,27,F,R,IMT,2021-07-11_14h18.47.138,ImageRatingTask_S3,2021.1.4,MacIntel,59.94125757,,,,,,,,,
,,,,,,,,,,,,0,5,5,5,1,sixth,14,27,F,R,IMT,2021-07-11_14h18.47.138,ImageRatingTask_S3,2021.1.4,MacIntel,59.94125757,,,,,,,,,
,,,,,,,,,,,,0,6,6,6,1,seventh,14,27,F,R,IMT,2021-07-11_14h18.47.138,ImageRatingTask_S3,2021.1.4,MacIntel,59.94125757,,,,,,,,,
,,,,,,,,,,,,0,7,7,7,1,last,14,27,F,R,IMT,2021-07-11_14h18.47.138,ImageRatingTask_S3,2021.1.4,MacIntel,59.94125757,,,,,,,,,
,,,,,,,,,,,,,,,,,,14,27,F,R,IMT,2021-07-11_14h18.47.138,ImageRatingTask_S3,2021.1.4,MacIntel,59.94125757,0,63,63,137,1,DreamStudyImages_rs1000x750g/Houses/Landscapes_059_v.jpg,,,
,,4,5.4021,2,0.9088,4,10.6067,1,1.2689,3,1.1679,0,0,0,0,1,main,14,27,F,R,IMT,2021-07-11_14h18.47.138,ImageRatingTask_S3,2021.1.4,MacIntel,59.94125757,,,,,,,,,
,,,,,,,,,,,,0,1,1,1,1,second,14,27,F,R,IMT,2021-07-11_14h18.47.138,ImageRatingTask_S3,2021.1.4,MacIntel,59.94125757,,,,,,,,,
,,,,,,,,,,,,0,2,2,2,1,third,14,27,F,R,IMT,2021-07-11_14h18.47.138,ImageRatingTask_S3,2021.1.4,MacIntel,59.94125757,,,,,,,,,
,,,,,,,,,,,,0,3,3,3,1,fourth,14,27,F,R,IMT,2021-07-11_14h18.47.138,ImageRatingTask_S3,2021.1.4,MacIntel,59.94125757,,,,,,,,,
,,,,,,,,,,,,0,4,4,4,1,fifth,14,27,F,R,IMT,2021-07-11_14h18.47.138,ImageRatingTask_S3,2021.1.4,MacIntel,59.94125757,,,,,,,,,
,,,,,,,,,,,,0,5,5,5,1,sixth,14,27,F,R,IMT,2021-07-11_14h18.47.138,ImageRatingTask_S3,2021.1.4,MacIntel,59.94125757,,,,,,,,,
,,,,,,,,,,,,0,6,6,6,1,seventh,14,27,F,R,IMT,2021-07-11_14h18.47.138,ImageRatingTask_S3,2021.1.4,MacIntel,59.94125757,,,,,,,,,
,,,,,,,,,,,,0,7,7,7,1,last,14,27,F,R,IMT,2021-07-11_14h18.47.138,ImageRatingTask_S3,2021.1.4,MacIntel,59.94125757,,,,,,,,,
,,,,,,,,,,,,,,,,,,14,27,F,R,IMT,2021-07-11_14h18.47.138,ImageRatingTask_S3,2021.1.4,MacIntel,59.94125757,0,64,64,123,1,DreamStudyImages_rs1000x750g/Mammals/Lion 5.jpg,,,
,,1,2.6779,5,1.3971,6,3.1039,1,2.9347,3,1.1072,0,0,0,0,1,main,14,27,F,R,IMT,2021-07-11_14h18.47.138,ImageRatingTask_S3,2021.1.4,MacIntel,59.94125757,,,,,,,,,
,,,,,,,,,,,,0,1,1,1,1,second,14,27,F,R,IMT,2021-07-11_14h18.47.138,ImageRatingTask_S3,2021.1.4,MacIntel,59.94125757,,,,,,,,,
,,,,,,,,,,,,0,2,2,2,1,third,14,27,F,R,IMT,2021-07-11_14h18.47.138,ImageRatingTask_S3,2021.1.4,MacIntel,59.94125757,,,,,,,,,
,,,,,,,,,,,,0,3,3,3,1,fourth,14,27,F,R,IMT,2021-07-11_14h18.47.138,ImageRatingTask_S3,2021.1.4,MacIntel,59.94125757,,,,,,,,,
,,,,,,,,,,,,0,4,4,4,1,fifth,14,27,F,R,IMT,2021-07-11_14h18.47.138,ImageRatingTask_S3,2021.1.4,MacIntel,59.94125757,,,,,,,,,
,,,,,,,,,,,,0,5,5,5,1,sixth,14,27,F,R,IMT,2021-07-11_14h18.47.138,ImageRatingTask_S3,2021.1.4,MacIntel,59.94125757,,,,,,,,,
,,,,,,,,,,,,0,6,6,6,1,seventh,14,27,F,R,IMT,2021-07-11_14h18.47.138,ImageRatingTask_S3,2021.1.4,MacIntel,59.94125757,,,,,,,,,
,,,,,,,,,,,,0,7,7,7,1,last,14,27,F,R,IMT,2021-07-11_14h18.47.138,ImageRatingTask_S3,2021.1.4,MacIntel,59.94125757,,,,,,,,,
,,,,,,,,,,,,,,,,,,14,27,F,R,IMT,2021-07-11_14h18.47.138,ImageRatingTask_S3,2021.1.4,MacIntel,59.94125757,0,65,65,144,1,DreamStudyImages_rs1000x750g/Mammals/Animals_019_h.jpg,,,
,,5,21.8306,1,0.7886,6,2.4541,1,1.9692,8,1.762,0,0,0,0,1,main,14,27,F,R,IMT,2021-07-11_14h18.47.138,ImageRatingTask_S3,2021.1.4,MacIntel,59.94125757,,,,,,,,,
,,,,,,,,,,,,0,1,1,1,1,second,14,27,F,R,IMT,2021-07-11_14h18.47.138,ImageRatingTask_S3,2021.1.4,MacIntel,59.94125757,,,,,,,,,
,,,,,,,,,,,,0,2,2,2,1,third,14,27,F,R,IMT,2021-07-11_14h18.47.138,ImageRatingTask_S3,2021.1.4,MacIntel,59.94125757,,,,,,,,,
,,,,,,,,,,,,0,3,3,3,1,fourth,14,27,F,R,IMT,2021-07-11_14h18.47.138,ImageRatingTask_S3,2021.1.4,MacIntel,59.94125757,,,,,,,,,
,,,,,,,,,,,,0,4,4,4,1,fifth,14,27,F,R,IMT,2021-07-11_14h18.47.138,ImageRatingTask_S3,2021.1.4,MacIntel,59.94125757,,,,,,,,,
,,,,,,,,,,,,0,5,5,5,1,sixth,14,27,F,R,IMT,2021-07-11_14h18.47.138,ImageRatingTask_S3,2021.1.4,MacIntel,59.94125757,,,,,,,,,
,,,,,,,,,,,,0,6,6,6,1,seventh,14,27,F,R,IMT,2021-07-11_14h18.47.138,ImageRatingTask_S3,2021.1.4,MacIntel,59.94125757,,,,,,,,,
,,,,,,,,,,,,0,7,7,7,1,last,14,27,F,R,IMT,2021-07-11_14h18.47.138,ImageRatingTask_S3,2021.1.4,MacIntel,59.94125757,,,,,,,,,
,,,,,,,,,,,,,,,,,,14,27,F,R,IMT,2021-07-11_14h18.47.138,ImageRatingTask_S3,2021.1.4,MacIntel,59.94125757,0,66,66,110,1,DreamStudyImages_rs1000x750g/Water/rockyriver.jpg,,,
,,4,4.0307,3,1.514,5,9.6333,1,1.5858,3,1.5552,0,0,0,0,1,main,14,27,F,R,IMT,2021-07-11_14h18.47.138,ImageRatingTask_S3,2021.1.4,MacIntel,59.94125757,,,,,,,,,
,,,,,,,,,,,,0,1,1,1,1,second,14,27,F,R,IMT,2021-07-11_14h18.47.138,ImageRatingTask_S3,2021.1.4,MacIntel,59.94125757,,,,,,,,,
,,,,,,,,,,,,0,2,2,2,1,third,14,27,F,R,IMT,2021-07-11_14h18.47.138,ImageRatingTask_S3,2021.1.4,MacIntel,59.94125757,,,,,,,,,
,,,,,,,,,,,,0,3,3,3,1,fourth,14,27,F,R,IMT,2021-07-11_14h18.47.138,ImageRatingTask_S3,2021.1.4,MacIntel,59.94125757,,,,,,,,,
,,,,,,,,,,,,0,4,4,4,1,fifth,14,27,F,R,IMT,2021-07-11_14h18.47.138,ImageRatingTask_S3,2021.1.4,MacIntel,59.94125757,,,,,,,,,
,,,,,,,,,,,,0,5,5,5,1,sixth,14,27,F,R,IMT,2021-07-11_14h18.47.138,ImageRatingTask_S3,2021.1.4,MacIntel,59.94125757,,,,,,,,,
,,,,,,,,,,,,0,6,6,6,1,seventh,14,27,F,R,IMT,2021-07-11_14h18.47.138,ImageRatingTask_S3,2021.1.4,MacIntel,59.94125757,,,,,,,,,
,,,,,,,,,,,,0,7,7,7,1,last,14,27,F,R,IMT,2021-07-11_14h18.47.138,ImageRatingTask_S3,2021.1.4,MacIntel,59.94125757,,,,,,,,,
,,,,,,,,,,,,,,,,,,14,27,F,R,IMT,2021-07-11_14h18.47.138,ImageRatingTask_S3,2021.1.4,MacIntel,59.94125757,0,67,67,34,1,DreamStudyImages_rs1000x750g/Mammals/Animals_085_h.jpg,,,
,,2,4.9849,4,1.5045,3,1.8023,1,1.585,2,0.8921,0,0,0,0,1,main,14,27,F,R,IMT,2021-07-11_14h18.47.138,ImageRatingTask_S3,2021.1.4,MacIntel,59.94125757,,,,,,,,,
,,,,,,,,,,,,0,1,1,1,1,second,14,27,F,R,IMT,2021-07-11_14h18.47.138,ImageRatingTask_S3,2021.1.4,MacIntel,59.94125757,,,,,,,,,
,,,,,,,,,,,,0,2,2,2,1,third,14,27,F,R,IMT,2021-07-11_14h18.47.138,ImageRatingTask_S3,2021.1.4,MacIntel,59.94125757,,,,,,,,,
,,,,,,,,,,,,0,3,3,3,1,fourth,14,27,F,R,IMT,2021-07-11_14h18.47.138,ImageRatingTask_S3,2021.1.4,MacIntel,59.94125757,,,,,,,,,
,,,,,,,,,,,,0,4,4,4,1,fifth,14,27,F,R,IMT,2021-07-11_14h18.47.138,ImageRatingTask_S3,2021.1.4,MacIntel,59.94125757,,,,,,,,,
,,,,,,,,,,,,0,5,5,5,1,sixth,14,27,F,R,IMT,2021-07-11_14h18.47.138,ImageRatingTask_S3,2021.1.4,MacIntel,59.94125757,,,,,,,,,
,,,,,,,,,,,,0,6,6,6,1,seventh,14,27,F,R,IMT,2021-07-11_14h18.47.138,ImageRatingTask_S3,2021.1.4,MacIntel,59.94125757,,,,,,,,,
,,,,,,,,,,,,0,7,7,7,1,last,14,27,F,R,IMT,2021-07-11_14h18.47.138,ImageRatingTask_S3,2021.1.4,MacIntel,59.94125757,,,,,,,,,
,,,,,,,,,,,,,,,,,,14,27,F,R,IMT,2021-07-11_14h18.47.138,ImageRatingTask_S3,2021.1.4,MacIntel,59.94125757,0,68,68,129,1,DreamStudyImages_rs1000x750g/Children/IAPS2703_children15.jpg,,,
,,5,3.3219,1,1.3919,7,3.3349,1,1.714,8,1.259,0,0,0,0,1,main,14,27,F,R,IMT,2021-07-11_14h18.47.138,ImageRatingTask_S3,2021.1.4,MacIntel,59.94125757,,,,,,,,,
,,,,,,,,,,,,0,1,1,1,1,second,14,27,F,R,IMT,2021-07-11_14h18.47.138,ImageRatingTask_S3,2021.1.4,MacIntel,59.94125757,,,,,,,,,
,,,,,,,,,,,,0,2,2,2,1,third,14,27,F,R,IMT,2021-07-11_14h18.47.138,ImageRatingTask_S3,2021.1.4,MacIntel,59.94125757,,,,,,,,,
,,,,,,,,,,,,0,3,3,3,1,fourth,14,27,F,R,IMT,2021-07-11_14h18.47.138,ImageRatingTask_S3,2021.1.4,MacIntel,59.94125757,,,,,,,,,
,,,,,,,,,,,,0,4,4,4,1,fifth,14,27,F,R,IMT,2021-07-11_14h18.47.138,ImageRatingTask_S3,2021.1.4,MacIntel,59.94125757,,,,,,,,,
,,,,,,,,,,,,0,5,5,5,1,sixth,14,27,F,R,IMT,2021-07-11_14h18.47.138,ImageRatingTask_S3,2021.1.4,MacIntel,59.94125757,,,,,,,,,
,,,,,,,,,,,,0,6,6,6,1,seventh,14,27,F,R,IMT,2021-07-11_14h18.47.138,ImageRatingTask_S3,2021.1.4,MacIntel,59.94125757,,,,,,,,,
,,,,,,,,,,,,0,7,7,7,1,last,14,27,F,R,IMT,2021-07-11_14h18.47.138,ImageRatingTask_S3,2021.1.4,MacIntel,59.94125757,,,,,,,,,
,,,,,,,,,,,,,,,,,,14,27,F,R,IMT,2021-07-11_14h18.47.138,ImageRatingTask_S3,2021.1.4,MacIntel,59.94125757,0,69,69,158,1,DreamStudyImages_rs1000x750g/Water/waterneutral2.jpg,,,
,,5,1.7733,1,0.6265,7,2.7499,1,1.4102,7,0.8784,0,0,0,0,1,main,14,27,F,R,IMT,2021-07-11_14h18.47.138,ImageRatingTask_S3,2021.1.4,MacIntel,59.94125757,,,,,,,,,
,,,,,,,,,,,,0,1,1,1,1,second,14,27,F,R,IMT,2021-07-11_14h18.47.138,ImageRatingTask_S3,2021.1.4,MacIntel,59.94125757,,,,,,,,,
,,,,,,,,,,,,0,2,2,2,1,third,14,27,F,R,IMT,2021-07-11_14h18.47.138,ImageRatingTask_S3,2021.1.4,MacIntel,59.94125757,,,,,,,,,
,,,,,,,,,,,,0,3,3,3,1,fourth,14,27,F,R,IMT,2021-07-11_14h18.47.138,ImageRatingTask_S3,2021.1.4,MacIntel,59.94125757,,,,,,,,,
,,,,,,,,,,,,0,4,4,4,1,fifth,14,27,F,R,IMT,2021-07-11_14h18.47.138,ImageRatingTask_S3,2021.1.4,MacIntel,59.94125757,,,,,,,,,
,,,,,,,,,,,,0,5,5,5,1,sixth,14,27,F,R,IMT,2021-07-11_14h18.47.138,ImageRatingTask_S3,2021.1.4,MacIntel,59.94125757,,,,,,,,,
,,,,,,,,,,,,0,6,6,6,1,seventh,14,27,F,R,IMT,2021-07-11_14h18.47.138,ImageRatingTask_S3,2021.1.4,MacIntel,59.94125757,,,,,,,,,
,,,,,,,,,,,,0,7,7,7,1,last,14,27,F,R,IMT,2021-07-11_14h18.47.138,ImageRatingTask_S3,2021.1.4,MacIntel,59.94125757,,,,,,,,,
,,,,,,,,,,,,,,,,,,14,27,F,R,IMT,2021-07-11_14h18.47.138,ImageRatingTask_S3,2021.1.4,MacIntel,59.94125757,0,70,70,2,1,DreamStudyImages_rs1000x750g/Vehicles/Objects_303_h.jpg,,,
,,6,2.3475,1,1.9481,5,1.4507,1,0.6625,2,0.7794,0,0,0,0,1,main,14,27,F,R,IMT,2021-07-11_14h18.47.138,ImageRatingTask_S3,2021.1.4,MacIntel,59.94125757,,,,,,,,,
,,,,,,,,,,,,0,1,1,1,1,second,14,27,F,R,IMT,2021-07-11_14h18.47.138,ImageRatingTask_S3,2021.1.4,MacIntel,59.94125757,,,,,,,,,
,,,,,,,,,,,,0,2,2,2,1,third,14,27,F,R,IMT,2021-07-11_14h18.47.138,ImageRatingTask_S3,2021.1.4,MacIntel,59.94125757,,,,,,,,,
,,,,,,,,,,,,0,3,3,3,1,fourth,14,27,F,R,IMT,2021-07-11_14h18.47.138,ImageRatingTask_S3,2021.1.4,MacIntel,59.94125757,,,,,,,,,
,,,,,,,,,,,,0,4,4,4,1,fifth,14,27,F,R,IMT,2021-07-11_14h18.47.138,ImageRatingTask_S3,2021.1.4,MacIntel,59.94125757,,,,,,,,,
,,,,,,,,,,,,0,5,5,5,1,sixth,14,27,F,R,IMT,2021-07-11_14h18.47.138,ImageRatingTask_S3,2021.1.4,MacIntel,59.94125757,,,,,,,,,
,,,,,,,,,,,,0,6,6,6,1,seventh,14,27,F,R,IMT,2021-07-11_14h18.47.138,ImageRatingTask_S3,2021.1.4,MacIntel,59.94125757,,,,,,,,,
,,,,,,,,,,,,0,7,7,7,1,last,14,27,F,R,IMT,2021-07-11_14h18.47.138,ImageRatingTask_S3,2021.1.4,MacIntel,59.94125757,,,,,,,,,
,,,,,,,,,,,,,,,,,,14,27,F,R,IMT,2021-07-11_14h18.47.138,ImageRatingTask_S3,2021.1.4,MacIntel,59.94125757,0,71,71,133,1,DreamStudyImages_rs1000x750g/Children/IAPS2222_children4.jpg,,,
,,5,2.2083,1,0.321,4,109.0201,1,1.5053,5,0.863,0,0,0,0,1,main,14,27,F,R,IMT,2021-07-11_14h18.47.138,ImageRatingTask_S3,2021.1.4,MacIntel,59.94125757,,,,,,,,,
,,,,,,,,,,,,0,1,1,1,1,second,14,27,F,R,IMT,2021-07-11_14h18.47.138,ImageRatingTask_S3,2021.1.4,MacIntel,59.94125757,,,,,,,,,
,,,,,,,,,,,,0,2,2,2,1,third,14,27,F,R,IMT,2021-07-11_14h18.47.138,ImageRatingTask_S3,2021.1.4,MacIntel,59.94125757,,,,,,,,,
,,,,,,,,,,,,0,3,3,3,1,fourth,14,27,F,R,IMT,2021-07-11_14h18.47.138,ImageRatingTask_S3,2021.1.4,MacIntel,59.94125757,,,,,,,,,
,,,,,,,,,,,,0,4,4,4,1,fifth,14,27,F,R,IMT,2021-07-11_14h18.47.138,ImageRatingTask_S3,2021.1.4,MacIntel,59.94125757,,,,,,,,,
,,,,,,,,,,,,0,5,5,5,1,sixth,14,27,F,R,IMT,2021-07-11_14h18.47.138,ImageRatingTask_S3,2021.1.4,MacIntel,59.94125757,,,,,,,,,
,,,,,,,,,,,,0,6,6,6,1,seventh,14,27,F,R,IMT,2021-07-11_14h18.47.138,ImageRatingTask_S3,2021.1.4,MacIntel,59.94125757,,,,,,,,,
,,,,,,,,,,,,0,7,7,7,1,last,14,27,F,R,IMT,2021-07-11_14h18.47.138,ImageRatingTask_S3,2021.1.4,MacIntel,59.94125757,,,,,,,,,
,,,,,,,,,,,,,,,,,,14,27,F,R,IMT,2021-07-11_14h18.47.138,ImageRatingTask_S3,2021.1.4,MacIntel,59.94125757,0,72,72,57,1,DreamStudyImages_rs1000x750g/Food/Objects_076_v.jpg,,,
,,1,3.4348,5,1.3159,4,4.9161,1,1.4302,2,0.3417,0,0,0,0,1,main,14,27,F,R,IMT,2021-07-11_14h18.47.138,ImageRatingTask_S3,2021.1.4,MacIntel,59.94125757,,,,,,,,,
,,,,,,,,,,,,0,1,1,1,1,second,14,27,F,R,IMT,2021-07-11_14h18.47.138,ImageRatingTask_S3,2021.1.4,MacIntel,59.94125757,,,,,,,,,
,,,,,,,,,,,,0,2,2,2,1,third,14,27,F,R,IMT,2021-07-11_14h18.47.138,ImageRatingTask_S3,2021.1.4,MacIntel,59.94125757,,,,,,,,,
,,,,,,,,,,,,0,3,3,3,1,fourth,14,27,F,R,IMT,2021-07-11_14h18.47.138,ImageRatingTask_S3,2021.1.4,MacIntel,59.94125757,,,,,,,,,
,,,,,,,,,,,,0,4,4,4,1,fifth,14,27,F,R,IMT,2021-07-11_14h18.47.138,ImageRatingTask_S3,2021.1.4,MacIntel,59.94125757,,,,,,,,,
,,,,,,,,,,,,0,5,5,5,1,sixth,14,27,F,R,IMT,2021-07-11_14h18.47.138,ImageRatingTask_S3,2021.1.4,MacIntel,59.94125757,,,,,,,,,
,,,,,,,,,,,,0,6,6,6,1,seventh,14,27,F,R,IMT,2021-07-11_14h18.47.138,ImageRatingTask_S3,2021.1.4,MacIntel,59.94125757,,,,,,,,,
,,,,,,,,,,,,0,7,7,7,1,last,14,27,F,R,IMT,2021-07-11_14h18.47.138,ImageRatingTask_S3,2021.1.4,MacIntel,59.94125757,,,,,,,,,
,,,,,,,,,,,,,,,,,,14,27,F,R,IMT,2021-07-11_14h18.47.138,ImageRatingTask_S3,2021.1.4,MacIntel,59.94125757,0,73,73,84,1,DreamStudyImages_rs1000x750g/Children/Faces_009_h.jpg,,,
,,9,8.883,3,12.8826,3,2.3146,1,1.3351,3,1.0097,0,0,0,0,1,main,14,27,F,R,IMT,2021-07-11_14h18.47.138,ImageRatingTask_S3,2021.1.4,MacIntel,59.94125757,,,,,,,,,
,,,,,,,,,,,,0,1,1,1,1,second,14,27,F,R,IMT,2021-07-11_14h18.47.138,ImageRatingTask_S3,2021.1.4,MacIntel,59.94125757,,,,,,,,,
,,,,,,,,,,,,0,2,2,2,1,third,14,27,F,R,IMT,2021-07-11_14h18.47.138,ImageRatingTask_S3,2021.1.4,MacIntel,59.94125757,,,,,,,,,
,,,,,,,,,,,,0,3,3,3,1,fourth,14,27,F,R,IMT,2021-07-11_14h18.47.138,ImageRatingTask_S3,2021.1.4,MacIntel,59.94125757,,,,,,,,,
,,,,,,,,,,,,0,4,4,4,1,fifth,14,27,F,R,IMT,2021-07-11_14h18.47.138,ImageRatingTask_S3,2021.1.4,MacIntel,59.94125757,,,,,,,,,
,,,,,,,,,,,,0,5,5,5,1,sixth,14,27,F,R,IMT,2021-07-11_14h18.47.138,ImageRatingTask_S3,2021.1.4,MacIntel,59.94125757,,,,,,,,,
,,,,,,,,,,,,0,6,6,6,1,seventh,14,27,F,R,IMT,2021-07-11_14h18.47.138,ImageRatingTask_S3,2021.1.4,MacIntel,59.94125757,,,,,,,,,
,,,,,,,,,,,,0,7,7,7,1,last,14,27,F,R,IMT,2021-07-11_14h18.47.138,ImageRatingTask_S3,2021.1.4,MacIntel,59.94125757,,,,,,,,,
,,,,,,,,,,,,,,,,,,14,27,F,R,IMT,2021-07-11_14h18.47.138,ImageRatingTask_S3,2021.1.4,MacIntel,59.94125757,0,74,74,105,1,DreamStudyImages_rs1000x750g/Mammals/Dog 3.jpg,,,
,,6,3.4259,1,1.6673,7,3.2609,1,2.5924,8,0.9831,0,0,0,0,1,main,14,27,F,R,IMT,2021-07-11_14h18.47.138,ImageRatingTask_S3,2021.1.4,MacIntel,59.94125757,,,,,,,,,
,,,,,,,,,,,,0,1,1,1,1,second,14,27,F,R,IMT,2021-07-11_14h18.47.138,ImageRatingTask_S3,2021.1.4,MacIntel,59.94125757,,,,,,,,,
,,,,,,,,,,,,0,2,2,2,1,third,14,27,F,R,IMT,2021-07-11_14h18.47.138,ImageRatingTask_S3,2021.1.4,MacIntel,59.94125757,,,,,,,,,
,,,,,,,,,,,,0,3,3,3,1,fourth,14,27,F,R,IMT,2021-07-11_14h18.47.138,ImageRatingTask_S3,2021.1.4,MacIntel,59.94125757,,,,,,,,,
,,,,,,,,,,,,0,4,4,4,1,fifth,14,27,F,R,IMT,2021-07-11_14h18.47.138,ImageRatingTask_S3,2021.1.4,MacIntel,59.94125757,,,,,,,,,
,,,,,,,,,,,,0,5,5,5,1,sixth,14,27,F,R,IMT,2021-07-11_14h18.47.138,ImageRatingTask_S3,2021.1.4,MacIntel,59.94125757,,,,,,,,,
,,,,,,,,,,,,0,6,6,6,1,seventh,14,27,F,R,IMT,2021-07-11_14h18.47.138,ImageRatingTask_S3,2021.1.4,MacIntel,59.94125757,,,,,,,,,
,,,,,,,,,,,,0,7,7,7,1,last,14,27,F,R,IMT,2021-07-11_14h18.47.138,ImageRatingTask_S3,2021.1.4,MacIntel,59.94125757,,,,,,,,,
,,,,,,,,,,,,,,,,,,14,27,F,R,IMT,2021-07-11_14h18.47.138,ImageRatingTask_S3,2021.1.4,MacIntel,59.94125757,0,75,75,90,1,DreamStudyImages_rs1000x750g/Water/fishingsunset_CROPPED.jpg,,,
,,5,14.3094,1,3.4106,7,5.037,1,2.2103,7,1.0677,0,0,0,0,1,main,14,27,F,R,IMT,2021-07-11_14h18.47.138,ImageRatingTask_S3,2021.1.4,MacIntel,59.94125757,,,,,,,,,
,,,,,,,,,,,,0,1,1,1,1,second,14,27,F,R,IMT,2021-07-11_14h18.47.138,ImageRatingTask_S3,2021.1.4,MacIntel,59.94125757,,,,,,,,,
,,,,,,,,,,,,0,2,2,2,1,third,14,27,F,R,IMT,2021-07-11_14h18.47.138,ImageRatingTask_S3,2021.1.4,MacIntel,59.94125757,,,,,,,,,
,,,,,,,,,,,,0,3,3,3,1,fourth,14,27,F,R,IMT,2021-07-11_14h18.47.138,ImageRatingTask_S3,2021.1.4,MacIntel,59.94125757,,,,,,,,,
,,,,,,,,,,,,0,4,4,4,1,fifth,14,27,F,R,IMT,2021-07-11_14h18.47.138,ImageRatingTask_S3,2021.1.4,MacIntel,59.94125757,,,,,,,,,
,,,,,,,,,,,,0,5,5,5,1,sixth,14,27,F,R,IMT,2021-07-11_14h18.47.138,ImageRatingTask_S3,2021.1.4,MacIntel,59.94125757,,,,,,,,,
,,,,,,,,,,,,0,6,6,6,1,seventh,14,27,F,R,IMT,2021-07-11_14h18.47.138,ImageRatingTask_S3,2021.1.4,MacIntel,59.94125757,,,,,,,,,
,,,,,,,,,,,,0,7,7,7,1,last,14,27,F,R,IMT,2021-07-11_14h18.47.138,ImageRatingTask_S3,2021.1.4,MacIntel,59.94125757,,,,,,,,,
,,,,,,,,,,,,,,,,,,14,27,F,R,IMT,2021-07-11_14h18.47.138,ImageRatingTask_S3,2021.1.4,MacIntel,59.94125757,0,76,76,64,1,DreamStudyImages_rs1000x750g/Vehicles/roadrailvehicle.jpg,,,
,,7,4.7437,2,1.7865,3,1.5604,2,2.2631,2,1.6513,0,0,0,0,1,main,14,27,F,R,IMT,2021-07-11_14h18.47.138,ImageRatingTask_S3,2021.1.4,MacIntel,59.94125757,,,,,,,,,
,,,,,,,,,,1,0.6182,0,1,1,1,1,second,14,27,F,R,IMT,2021-07-11_14h18.47.138,ImageRatingTask_S3,2021.1.4,MacIntel,59.94125757,,,,,,,,,
,,,,,,,,,,,,0,2,2,2,1,third,14,27,F,R,IMT,2021-07-11_14h18.47.138,ImageRatingTask_S3,2021.1.4,MacIntel,59.94125757,,,,,,,,,
,,,,,,,,,,,,0,3,3,3,1,fourth,14,27,F,R,IMT,2021-07-11_14h18.47.138,ImageRatingTask_S3,2021.1.4,MacIntel,59.94125757,,,,,,,,,
,,,,,,,,,,,,0,4,4,4,1,fifth,14,27,F,R,IMT,2021-07-11_14h18.47.138,ImageRatingTask_S3,2021.1.4,MacIntel,59.94125757,,,,,,,,,
,,,,,,,,,,,,0,5,5,5,1,sixth,14,27,F,R,IMT,2021-07-11_14h18.47.138,ImageRatingTask_S3,2021.1.4,MacIntel,59.94125757,,,,,,,,,
,,,,,,,,,,,,0,6,6,6,1,seventh,14,27,F,R,IMT,2021-07-11_14h18.47.138,ImageRatingTask_S3,2021.1.4,MacIntel,59.94125757,,,,,,,,,
,,,,,,,,,,,,0,7,7,7,1,last,14,27,F,R,IMT,2021-07-11_14h18.47.138,ImageRatingTask_S3,2021.1.4,MacIntel,59.94125757,,,,,,,,,
,,,,,,,,,,,,,,,,,,14,27,F,R,IMT,2021-07-11_14h18.47.138,ImageRatingTask_S3,2021.1.4,MacIntel,59.94125757,0,77,77,100,1,DreamStudyImages_rs1000x750g/Children/Tickling 1.jpg,,,
,,6,25.5867,1,2.4504,4,5.0642,1,1.6929,3,0.9042,0,0,0,0,1,main,14,27,F,R,IMT,2021-07-11_14h18.47.138,ImageRatingTask_S3,2021.1.4,MacIntel,59.94125757,,,,,,,,,
,,,,,,,,,,,,0,1,1,1,1,second,14,27,F,R,IMT,2021-07-11_14h18.47.138,ImageRatingTask_S3,2021.1.4,MacIntel,59.94125757,,,,,,,,,
,,,,,,,,,,,,0,2,2,2,1,third,14,27,F,R,IMT,2021-07-11_14h18.47.138,ImageRatingTask_S3,2021.1.4,MacIntel,59.94125757,,,,,,,,,
,,,,,,,,,,,,0,3,3,3,1,fourth,14,27,F,R,IMT,2021-07-11_14h18.47.138,ImageRatingTask_S3,2021.1.4,MacIntel,59.94125757,,,,,,,,,
,,,,,,,,,,,,0,4,4,4,1,fifth,14,27,F,R,IMT,2021-07-11_14h18.47.138,ImageRatingTask_S3,2021.1.4,MacIntel,59.94125757,,,,,,,,,
,,,,,,,,,,,,0,5,5,5,1,sixth,14,27,F,R,IMT,2021-07-11_14h18.47.138,ImageRatingTask_S3,2021.1.4,MacIntel,59.94125757,,,,,,,,,
,,,,,,,,,,,,0,6,6,6,1,seventh,14,27,F,R,IMT,2021-07-11_14h18.47.138,ImageRatingTask_S3,2021.1.4,MacIntel,59.94125757,,,,,,,,,
,,,,,,,,,,,,0,7,7,7,1,last,14,27,F,R,IMT,2021-07-11_14h18.47.138,ImageRatingTask_S3,2021.1.4,MacIntel,59.94125757,,,,,,,,,
,,,,,,,,,,,,,,,,,,14,27,F,R,IMT,2021-07-11_14h18.47.138,ImageRatingTask_S3,2021.1.4,MacIntel,59.94125757,0,78,78,95,1,DreamStudyImages_rs1000x750g/Mammals/Lion 1.jpg,,,
,,6,2.4764,1,2.7014,3,14.3642,1,1.3849,2,0.9488,0,0,0,0,1,main,14,27,F,R,IMT,2021-07-11_14h18.47.138,ImageRatingTask_S3,2021.1.4,MacIntel,59.94125757,,,,,,,,,
,,,,,,,,,,,,0,1,1,1,1,second,14,27,F,R,IMT,2021-07-11_14h18.47.138,ImageRatingTask_S3,2021.1.4,MacIntel,59.94125757,,,,,,,,,
,,,,,,,,,,,,0,2,2,2,1,third,14,27,F,R,IMT,2021-07-11_14h18.47.138,ImageRatingTask_S3,2021.1.4,MacIntel,59.94125757,,,,,,,,,
,,,,,,,,,,,,0,3,3,3,1,fourth,14,27,F,R,IMT,2021-07-11_14h18.47.138,ImageRatingTask_S3,2021.1.4,MacIntel,59.94125757,,,,,,,,,
,,,,,,,,,,,,0,4,4,4,1,fifth,14,27,F,R,IMT,2021-07-11_14h18.47.138,ImageRatingTask_S3,2021.1.4,MacIntel,59.94125757,,,,,,,,,
,,,,,,,,,,,,0,5,5,5,1,sixth,14,27,F,R,IMT,2021-07-11_14h18.47.138,ImageRatingTask_S3,2021.1.4,MacIntel,59.94125757,,,,,,,,,
,,,,,,,,,,,,0,6,6,6,1,seventh,14,27,F,R,IMT,2021-07-11_14h18.47.138,ImageRatingTask_S3,2021.1.4,MacIntel,59.94125757,,,,,,,,,
,,,,,,,,,,,,0,7,7,7,1,last,14,27,F,R,IMT,2021-07-11_14h18.47.138,ImageRatingTask_S3,2021.1.4,MacIntel,59.94125757,,,,,,,,,
,,,,,,,,,,,,,,,,,,14,27,F,R,IMT,2021-07-11_14h18.47.138,ImageRatingTask_S3,2021.1.4,MacIntel,59.94125757,0,79,79,98,1,DreamStudyImages_rs1000x750g/Children/Excited face 2.jpg,,,
,,6,2.365,1,0.5192,7,1.0696,1,0.7921,2,0.397,0,0,0,0,1,main,14,27,F,R,IMT,2021-07-11_14h18.47.138,ImageRatingTask_S3,2021.1.4,MacIntel,59.94125757,,,,,,,,,
,,,,,,,,,,,,0,1,1,1,1,second,14,27,F,R,IMT,2021-07-11_14h18.47.138,ImageRatingTask_S3,2021.1.4,MacIntel,59.94125757,,,,,,,,,
,,,,,,,,,,,,0,2,2,2,1,third,14,27,F,R,IMT,2021-07-11_14h18.47.138,ImageRatingTask_S3,2021.1.4,MacIntel,59.94125757,,,,,,,,,
,,,,,,,,,,,,0,3,3,3,1,fourth,14,27,F,R,IMT,2021-07-11_14h18.47.138,ImageRatingTask_S3,2021.1.4,MacIntel,59.94125757,,,,,,,,,
,,,,,,,,,,,,0,4,4,4,1,fifth,14,27,F,R,IMT,2021-07-11_14h18.47.138,ImageRatingTask_S3,2021.1.4,MacIntel,59.94125757,,,,,,,,,
,,,,,,,,,,,,0,5,5,5,1,sixth,14,27,F,R,IMT,2021-07-11_14h18.47.138,ImageRatingTask_S3,2021.1.4,MacIntel,59.94125757,,,,,,,,,
,,,,,,,,,,,,0,6,6,6,1,seventh,14,27,F,R,IMT,2021-07-11_14h18.47.138,ImageRatingTask_S3,2021.1.4,MacIntel,59.94125757,,,,,,,,,
,,,,,,,,,,,,0,7,7,7,1,last,14,27,F,R,IMT,2021-07-11_14h18.47.138,ImageRatingTask_S3,2021.1.4,MacIntel,59.94125757,,,,,,,,,
,,,,,,,,,,,,,,,,,,14,27,F,R,IMT,2021-07-11_14h18.47.138,ImageRatingTask_S3,2021.1.4,MacIntel,59.94125757,0,80,80,140,1,DreamStudyImages_rs1000x750g/Children/Baby 8.jpg,,,
,,5,2.6663,1,0.5856,2,2.1092,1,0.9985,5,0.8829,0,0,0,0,1,main,14,27,F,R,IMT,2021-07-11_14h18.47.138,ImageRatingTask_S3,2021.1.4,MacIntel,59.94125757,,,,,,,,,
,,,,,,,,,,,,0,1,1,1,1,second,14,27,F,R,IMT,2021-07-11_14h18.47.138,ImageRatingTask_S3,2021.1.4,MacIntel,59.94125757,,,,,,,,,
,,,,,,,,,,,,0,2,2,2,1,third,14,27,F,R,IMT,2021-07-11_14h18.47.138,ImageRatingTask_S3,2021.1.4,MacIntel,59.94125757,,,,,,,,,
,,,,,,,,,,,,0,3,3,3,1,fourth,14,27,F,R,IMT,2021-07-11_14h18.47.138,ImageRatingTask_S3,2021.1.4,MacIntel,59.94125757,,,,,,,,,
,,,,,,,,,,,,0,4,4,4,1,fifth,14,27,F,R,IMT,2021-07-11_14h18.47.138,ImageRatingTask_S3,2021.1.4,MacIntel,59.94125757,,,,,,,,,
,,,,,,,,,,,,0,5,5,5,1,sixth,14,27,F,R,IMT,2021-07-11_14h18.47.138,ImageRatingTask_S3,2021.1.4,MacIntel,59.94125757,,,,,,,,,
,,,,,,,,,,,,0,6,6,6,1,seventh,14,27,F,R,IMT,2021-07-11_14h18.47.138,ImageRatingTask_S3,2021.1.4,MacIntel,59.94125757,,,,,,,,,
,,,,,,,,,,,,0,7,7,7,1,last,14,27,F,R,IMT,2021-07-11_14h18.47.138,ImageRatingTask_S3,2021.1.4,MacIntel,59.94125757,,,,,,,,,
,,,,,,,,,,,,,,,,,,14,27,F,R,IMT,2021-07-11_14h18.47.138,ImageRatingTask_S3,2021.1.4,MacIntel,59.94125757,0,81,81,67,1,DreamStudyImages_rs1000x750g/Food/IAPS7284_apricots.jpg,,,
,,4,7.8813,1,1.4027,6,2.6724,1,0.9453,2,0.9493,0,0,0,0,1,main,14,27,F,R,IMT,2021-07-11_14h18.47.138,ImageRatingTask_S3,2021.1.4,MacIntel,59.94125757,,,,,,,,,
,,,,,,,,,,,,0,1,1,1,1,second,14,27,F,R,IMT,2021-07-11_14h18.47.138,ImageRatingTask_S3,2021.1.4,MacIntel,59.94125757,,,,,,,,,
,,,,,,,,,,,,0,2,2,2,1,third,14,27,F,R,IMT,2021-07-11_14h18.47.138,ImageRatingTask_S3,2021.1.4,MacIntel,59.94125757,,,,,,,,,
,,,,,,,,,,,,0,3,3,3,1,fourth,14,27,F,R,IMT,2021-07-11_14h18.47.138,ImageRatingTask_S3,2021.1.4,MacIntel,59.94125757,,,,,,,,,
,,,,,,,,,,,,0,4,4,4,1,fifth,14,27,F,R,IMT,2021-07-11_14h18.47.138,ImageRatingTask_S3,2021.1.4,MacIntel,59.94125757,,,,,,,,,
