slider_pre.response,slider_pre.rt,key_val.keys,key_val.rt,key_aro.keys,key_aro.rt,key_qual.keys,key_qual.rt,key_ncat.keys,key_ncat.rt,key_cats.keys,key_cats.rt,ncat_order.thisRepN,ncat_order.thisTrialN,ncat_order.thisN,ncat_order.thisIndex,ncat_order.ran,cond_cat,participant,age,gender,handedness (L/R),site (IMT/Donders),date,expName,psychopyVersion,OS,frameRate,img_trials.thisRepN,img_trials.thisTrialN,img_trials.thisN,img_trials.thisIndex,img_trials.ran,filename,slider_post.response,slider_post.rt,textbox_openfb.text
6,3.1501,6,3.8372,1,1.5994,4,2.1967,1,1.8258,2,0.4883,0,0,0,0,1,main,14,27,F,R,IMT,2021-07-11_18h58.09.260,ImageRatingTask_S4,2021.1.4,MacIntel,59.94125757,,,,,,,,,
,,,,,,,,,,,,0,1,1,1,1,second,14,27,F,R,IMT,2021-07-11_18h58.09.260,ImageRatingTask_S4,2021.1.4,MacIntel,59.94125757,,,,,,,,,
,,,,,,,,,,,,0,2,2,2,1,third,14,27,F,R,IMT,2021-07-11_18h58.09.260,ImageRatingTask_S4,2021.1.4,MacIntel,59.94125757,,,,,,,,,
,,,,,,,,,,,,0,3,3,3,1,fourth,14,27,F,R,IMT,2021-07-11_18h58.09.260,ImageRatingTask_S4,2021.1.4,MacIntel,59.94125757,,,,,,,,,
,,,,,,,,,,,,0,4,4,4,1,fifth,14,27,F,R,IMT,2021-07-11_18h58.09.260,ImageRatingTask_S4,2021.1.4,MacIntel,59.94125757,,,,,,,,,
,,,,,,,,,,,,0,5,5,5,1,sixth,14,27,F,R,IMT,2021-07-11_18h58.09.260,ImageRatingTask_S4,2021.1.4,MacIntel,59.94125757,,,,,,,,,
,,,,,,,,,,,,0,6,6,6,1,seventh,14,27,F,R,IMT,2021-07-11_18h58.09.260,ImageRatingTask_S4,2021.1.4,MacIntel,59.94125757,,,,,,,,,
,,,,,,,,,,,,0,7,7,7,1,last,14,27,F,R,IMT,2021-07-11_18h58.09.260,ImageRatingTask_S4,2021.1.4,MacIntel,59.94125757,,,,,,,,,
,,,,,,,,,,,,,,,,,,14,27,F,R,IMT,2021-07-11_18h58.09.260,ImageRatingTask_S4,2021.1.4,MacIntel,59.94125757,0,0,0,16,1,DreamStudyImages_rs1000x750g/Children/IAPS2410_boy8.jpg,,,
,,6,2.4769,1,0.9682,7,2.967,2,3.9728,2,1.0245,0,0,0,0,1,main,14,27,F,R,IMT,2021-07-11_18h58.09.260,ImageRatingTask_S4,2021.1.4,MacIntel,59.94125757,,,,,,,,,
,,,,,,,,,,6,2.0349,0,1,1,1,1,second,14,27,F,R,IMT,2021-07-11_18h58.09.260,ImageRatingTask_S4,2021.1.4,MacIntel,59.94125757,,,,,,,,,
,,,,,,,,,,,,0,2,2,2,1,third,14,27,F,R,IMT,2021-07-11_18h58.09.260,ImageRatingTask_S4,2021.1.4,MacIntel,59.94125757,,,,,,,,,
,,,,,,,,,,,,0,3,3,3,1,fourth,14,27,F,R,IMT,2021-07-11_18h58.09.260,ImageRatingTask_S4,2021.1.4,MacIntel,59.94125757,,,,,,,,,
,,,,,,,,,,,,0,4,4,4,1,fifth,14,27,F,R,IMT,2021-07-11_18h58.09.260,ImageRatingTask_S4,2021.1.4,MacIntel,59.94125757,,,,,,,,,
,,,,,,,,,,,,0,5,5,5,1,sixth,14,27,F,R,IMT,2021-07-11_18h58.09.260,ImageRatingTask_S4,2021.1.4,MacIntel,59.94125757,,,,,,,,,
,,,,,,,,,,,,0,6,6,6,1,seventh,14,27,F,R,IMT,2021-07-11_18h58.09.260,ImageRatingTask_S4,2021.1.4,MacIntel,59.94125757,,,,,,,,,
,,,,,,,,,,,,0,7,7,7,1,last,14,27,F,R,IMT,2021-07-11_18h58.09.260,ImageRatingTask_S4,2021.1.4,MacIntel,59.94125757,,,,,,,,,
,,,,,,,,,,,,,,,,,,14,27,F,R,IMT,2021-07-11_18h58.09.260,ImageRatingTask_S4,2021.1.4,MacIntel,59.94125757,0,1,1,15,1,DreamStudyImages_rs1000x750g/Children/Faces_050_h.jpg,,,
,,3,58.687,2,2.543,7,3.1787,1,1.8349,6,1.1656,0,0,0,0,1,main,14,27,F,R,IMT,2021-07-11_18h58.09.260,ImageRatingTask_S4,2021.1.4,MacIntel,59.94125757,,,,,,,,,
,,,,,,,,,,,,0,1,1,1,1,second,14,27,F,R,IMT,2021-07-11_18h58.09.260,ImageRatingTask_S4,2021.1.4,MacIntel,59.94125757,,,,,,,,,
,,,,,,,,,,,,0,2,2,2,1,third,14,27,F,R,IMT,2021-07-11_18h58.09.260,ImageRatingTask_S4,2021.1.4,MacIntel,59.94125757,,,,,,,,,
,,,,,,,,,,,,0,3,3,3,1,fourth,14,27,F,R,IMT,2021-07-11_18h58.09.260,ImageRatingTask_S4,2021.1.4,MacIntel,59.94125757,,,,,,,,,
,,,,,,,,,,,,0,4,4,4,1,fifth,14,27,F,R,IMT,2021-07-11_18h58.09.260,ImageRatingTask_S4,2021.1.4,MacIntel,59.94125757,,,,,,,,,
,,,,,,,,,,,,0,5,5,5,1,sixth,14,27,F,R,IMT,2021-07-11_18h58.09.260,ImageRatingTask_S4,2021.1.4,MacIntel,59.94125757,,,,,,,,,
,,,,,,,,,,,,0,6,6,6,1,seventh,14,27,F,R,IMT,2021-07-11_18h58.09.260,ImageRatingTask_S4,2021.1.4,MacIntel,59.94125757,,,,,,,,,
,,,,,,,,,,,,0,7,7,7,1,last,14,27,F,R,IMT,2021-07-11_18h58.09.260,ImageRatingTask_S4,2021.1.4,MacIntel,59.94125757,,,,,,,,,
,,,,,,,,,,,,,,,,,,14,27,F,R,IMT,2021-07-11_18h58.09.260,ImageRatingTask_S4,2021.1.4,MacIntel,59.94125757,0,2,2,5,1,DreamStudyImages_rs1000x750g/Houses/NDPS11_buildings4.jpg,,,
,,5,8.4444,1,0.4506,4,2.338,1,1.6681,8,0.9686,0,0,0,0,1,main,14,27,F,R,IMT,2021-07-11_18h58.09.260,ImageRatingTask_S4,2021.1.4,MacIntel,59.94125757,,,,,,,,,
,,,,,,,,,,,,0,1,1,1,1,second,14,27,F,R,IMT,2021-07-11_18h58.09.260,ImageRatingTask_S4,2021.1.4,MacIntel,59.94125757,,,,,,,,,
,,,,,,,,,,,,0,2,2,2,1,third,14,27,F,R,IMT,2021-07-11_18h58.09.260,ImageRatingTask_S4,2021.1.4,MacIntel,59.94125757,,,,,,,,,
,,,,,,,,,,,,0,3,3,3,1,fourth,14,27,F,R,IMT,2021-07-11_18h58.09.260,ImageRatingTask_S4,2021.1.4,MacIntel,59.94125757,,,,,,,,,
,,,,,,,,,,,,0,4,4,4,1,fifth,14,27,F,R,IMT,2021-07-11_18h58.09.260,ImageRatingTask_S4,2021.1.4,MacIntel,59.94125757,,,,,,,,,
,,,,,,,,,,,,0,5,5,5,1,sixth,14,27,F,R,IMT,2021-07-11_18h58.09.260,ImageRatingTask_S4,2021.1.4,MacIntel,59.94125757,,,,,,,,,
,,,,,,,,,,,,0,6,6,6,1,seventh,14,27,F,R,IMT,2021-07-11_18h58.09.260,ImageRatingTask_S4,2021.1.4,MacIntel,59.94125757,,,,,,,,,
,,,,,,,,,,,,0,7,7,7,1,last,14,27,F,R,IMT,2021-07-11_18h58.09.260,ImageRatingTask_S4,2021.1.4,MacIntel,59.94125757,,,,,,,,,
,,,,,,,,,,,,,,,,,,14,27,F,R,IMT,2021-07-11_18h58.09.260,ImageRatingTask_S4,2021.1.4,MacIntel,59.94125757,0,3,3,2,1,DreamStudyImages_rs1000x750g/Water/Lake 5.jpg,,,
,,5,4.5671,1,2.5582,4,2.6096,1,0.8976,3,0.8925,0,0,0,0,1,main,14,27,F,R,IMT,2021-07-11_18h58.09.260,ImageRatingTask_S4,2021.1.4,MacIntel,59.94125757,,,,,,,,,
,,,,,,,,,,,,0,1,1,1,1,second,14,27,F,R,IMT,2021-07-11_18h58.09.260,ImageRatingTask_S4,2021.1.4,MacIntel,59.94125757,,,,,,,,,
,,,,,,,,,,,,0,2,2,2,1,third,14,27,F,R,IMT,2021-07-11_18h58.09.260,ImageRatingTask_S4,2021.1.4,MacIntel,59.94125757,,,,,,,,,
,,,,,,,,,,,,0,3,3,3,1,fourth,14,27,F,R,IMT,2021-07-11_18h58.09.260,ImageRatingTask_S4,2021.1.4,MacIntel,59.94125757,,,,,,,,,
,,,,,,,,,,,,0,4,4,4,1,fifth,14,27,F,R,IMT,2021-07-11_18h58.09.260,ImageRatingTask_S4,2021.1.4,MacIntel,59.94125757,,,,,,,,,
,,,,,,,,,,,,0,5,5,5,1,sixth,14,27,F,R,IMT,2021-07-11_18h58.09.260,ImageRatingTask_S4,2021.1.4,MacIntel,59.94125757,,,,,,,,,
,,,,,,,,,,,,0,6,6,6,1,seventh,14,27,F,R,IMT,2021-07-11_18h58.09.260,ImageRatingTask_S4,2021.1.4,MacIntel,59.94125757,,,,,,,,,
,,,,,,,,,,,,0,7,7,7,1,last,14,27,F,R,IMT,2021-07-11_18h58.09.260,ImageRatingTask_S4,2021.1.4,MacIntel,59.94125757,,,,,,,,,
,,,,,,,,,,,,,,,,,,14,27,F,R,IMT,2021-07-11_18h58.09.260,ImageRatingTask_S4,2021.1.4,MacIntel,59.94125757,0,4,4,147,1,DreamStudyImages_rs1000x750g/Mammals/Cat 7.jpg,,,
,,9,2.6515,5,1.3971,4,1.9137,1,1.8186,3,1.7111,0,0,0,0,1,main,14,27,F,R,IMT,2021-07-11_18h58.09.260,ImageRatingTask_S4,2021.1.4,MacIntel,59.94125757,,,,,,,,,
,,,,,,,,,,,,0,1,1,1,1,second,14,27,F,R,IMT,2021-07-11_18h58.09.260,ImageRatingTask_S4,2021.1.4,MacIntel,59.94125757,,,,,,,,,
,,,,,,,,,,,,0,2,2,2,1,third,14,27,F,R,IMT,2021-07-11_18h58.09.260,ImageRatingTask_S4,2021.1.4,MacIntel,59.94125757,,,,,,,,,
,,,,,,,,,,,,0,3,3,3,1,fourth,14,27,F,R,IMT,2021-07-11_18h58.09.260,ImageRatingTask_S4,2021.1.4,MacIntel,59.94125757,,,,,,,,,
,,,,,,,,,,,,0,4,4,4,1,fifth,14,27,F,R,IMT,2021-07-11_18h58.09.260,ImageRatingTask_S4,2021.1.4,MacIntel,59.94125757,,,,,,,,,
,,,,,,,,,,,,0,5,5,5,1,sixth,14,27,F,R,IMT,2021-07-11_18h58.09.260,ImageRatingTask_S4,2021.1.4,MacIntel,59.94125757,,,,,,,,,
,,,,,,,,,,,,0,6,6,6,1,seventh,14,27,F,R,IMT,2021-07-11_18h58.09.260,ImageRatingTask_S4,2021.1.4,MacIntel,59.94125757,,,,,,,,,
,,,,,,,,,,,,0,7,7,7,1,last,14,27,F,R,IMT,2021-07-11_18h58.09.260,ImageRatingTask_S4,2021.1.4,MacIntel,59.94125757,,,,,,,,,
,,,,,,,,,,,,,,,,,,14,27,F,R,IMT,2021-07-11_18h58.09.260,ImageRatingTask_S4,2021.1.4,MacIntel,59.94125757,0,5,5,102,1,DreamStudyImages_rs1000x750g/Mammals/Elephant 1.jpg,,,
,,5,21.6643,1,0.4963,3,2.0761,1,1.01,7,0.9907,0,0,0,0,1,main,14,27,F,R,IMT,2021-07-11_18h58.09.260,ImageRatingTask_S4,2021.1.4,MacIntel,59.94125757,,,,,,,,,
,,,,,,,,,,,,0,1,1,1,1,second,14,27,F,R,IMT,2021-07-11_18h58.09.260,ImageRatingTask_S4,2021.1.4,MacIntel,59.94125757,,,,,,,,,
,,,,,,,,,,,,0,2,2,2,1,third,14,27,F,R,IMT,2021-07-11_18h58.09.260,ImageRatingTask_S4,2021.1.4,MacIntel,59.94125757,,,,,,,,,
,,,,,,,,,,,,0,3,3,3,1,fourth,14,27,F,R,IMT,2021-07-11_18h58.09.260,ImageRatingTask_S4,2021.1.4,MacIntel,59.94125757,,,,,,,,,
,,,,,,,,,,,,0,4,4,4,1,fifth,14,27,F,R,IMT,2021-07-11_18h58.09.260,ImageRatingTask_S4,2021.1.4,MacIntel,59.94125757,,,,,,,,,
,,,,,,,,,,,,0,5,5,5,1,sixth,14,27,F,R,IMT,2021-07-11_18h58.09.260,ImageRatingTask_S4,2021.1.4,MacIntel,59.94125757,,,,,,,,,
,,,,,,,,,,,,0,6,6,6,1,seventh,14,27,F,R,IMT,2021-07-11_18h58.09.260,ImageRatingTask_S4,2021.1.4,MacIntel,59.94125757,,,,,,,,,
,,,,,,,,,,,,0,7,7,7,1,last,14,27,F,R,IMT,2021-07-11_18h58.09.260,ImageRatingTask_S4,2021.1.4,MacIntel,59.94125757,,,,,,,,,
,,,,,,,,,,,,,,,,,,14,27,F,R,IMT,2021-07-11_18h58.09.260,ImageRatingTask_S4,2021.1.4,MacIntel,59.94125757,0,6,6,17,1,DreamStudyImages_rs1000x750g/Vehicles/IAPS7130_truck.jpg,,,
,,6,11.811,1,11.6161,7,2.38,1,1.4445,8,1.1407,0,0,0,0,1,main,14,27,F,R,IMT,2021-07-11_18h58.09.260,ImageRatingTask_S4,2021.1.4,MacIntel,59.94125757,,,,,,,,,
,,,,,,,,,,,,0,1,1,1,1,second,14,27,F,R,IMT,2021-07-11_18h58.09.260,ImageRatingTask_S4,2021.1.4,MacIntel,59.94125757,,,,,,,,,
,,,,,,,,,,,,0,2,2,2,1,third,14,27,F,R,IMT,2021-07-11_18h58.09.260,ImageRatingTask_S4,2021.1.4,MacIntel,59.94125757,,,,,,,,,
,,,,,,,,,,,,0,3,3,3,1,fourth,14,27,F,R,IMT,2021-07-11_18h58.09.260,ImageRatingTask_S4,2021.1.4,MacIntel,59.94125757,,,,,,,,,
,,,,,,,,,,,,0,4,4,4,1,fifth,14,27,F,R,IMT,2021-07-11_18h58.09.260,ImageRatingTask_S4,2021.1.4,MacIntel,59.94125757,,,,,,,,,
,,,,,,,,,,,,0,5,5,5,1,sixth,14,27,F,R,IMT,2021-07-11_18h58.09.260,ImageRatingTask_S4,2021.1.4,MacIntel,59.94125757,,,,,,,,,
,,,,,,,,,,,,0,6,6,6,1,seventh,14,27,F,R,IMT,2021-07-11_18h58.09.260,ImageRatingTask_S4,2021.1.4,MacIntel,59.94125757,,,,,,,,,
,,,,,,,,,,,,0,7,7,7,1,last,14,27,F,R,IMT,2021-07-11_18h58.09.260,ImageRatingTask_S4,2021.1.4,MacIntel,59.94125757,,,,,,,,,
,,,,,,,,,,,,,,,,,,14,27,F,R,IMT,2021-07-11_18h58.09.260,ImageRatingTask_S4,2021.1.4,MacIntel,59.94125757,0,7,7,45,1,DreamStudyImages_rs1000x750g/Water/Landscapes_116_v.jpg,,,
,,6,2.2811,2,1.1683,5,1.8486,1,1.4692,2,0.4748,0,0,0,0,1,main,14,27,F,R,IMT,2021-07-11_18h58.09.260,ImageRatingTask_S4,2021.1.4,MacIntel,59.94125757,,,,,,,,,
,,,,,,,,,,,,0,1,1,1,1,second,14,27,F,R,IMT,2021-07-11_18h58.09.260,ImageRatingTask_S4,2021.1.4,MacIntel,59.94125757,,,,,,,,,
,,,,,,,,,,,,0,2,2,2,1,third,14,27,F,R,IMT,2021-07-11_18h58.09.260,ImageRatingTask_S4,2021.1.4,MacIntel,59.94125757,,,,,,,,,
,,,,,,,,,,,,0,3,3,3,1,fourth,14,27,F,R,IMT,2021-07-11_18h58.09.260,ImageRatingTask_S4,2021.1.4,MacIntel,59.94125757,,,,,,,,,
,,,,,,,,,,,,0,4,4,4,1,fifth,14,27,F,R,IMT,2021-07-11_18h58.09.260,ImageRatingTask_S4,2021.1.4,MacIntel,59.94125757,,,,,,,,,
,,,,,,,,,,,,0,5,5,5,1,sixth,14,27,F,R,IMT,2021-07-11_18h58.09.260,ImageRatingTask_S4,2021.1.4,MacIntel,59.94125757,,,,,,,,,
,,,,,,,,,,,,0,6,6,6,1,seventh,14,27,F,R,IMT,2021-07-11_18h58.09.260,ImageRatingTask_S4,2021.1.4,MacIntel,59.94125757,,,,,,,,,
,,,,,,,,,,,,0,7,7,7,1,last,14,27,F,R,IMT,2021-07-11_18h58.09.260,ImageRatingTask_S4,2021.1.4,MacIntel,59.94125757,,,,,,,,,
,,,,,,,,,,,,,,,,,,14,27,F,R,IMT,2021-07-11_18h58.09.260,ImageRatingTask_S4,2021.1.4,MacIntel,59.94125757,0,8,8,80,1,DreamStudyImages_rs1000x750g/Children/IAPS2458_child4.jpg,,,
,,4,3.6387,1,1.8165,4,1.7397,1,2.2081,2,0.729,0,0,0,0,1,main,14,27,F,R,IMT,2021-07-11_18h58.09.260,ImageRatingTask_S4,2021.1.4,MacIntel,59.94125757,,,,,,,,,
,,,,,,,,,,,,0,1,1,1,1,second,14,27,F,R,IMT,2021-07-11_18h58.09.260,ImageRatingTask_S4,2021.1.4,MacIntel,59.94125757,,,,,,,,,
,,,,,,,,,,,,0,2,2,2,1,third,14,27,F,R,IMT,2021-07-11_18h58.09.260,ImageRatingTask_S4,2021.1.4,MacIntel,59.94125757,,,,,,,,,
,,,,,,,,,,,,0,3,3,3,1,fourth,14,27,F,R,IMT,2021-07-11_18h58.09.260,ImageRatingTask_S4,2021.1.4,MacIntel,59.94125757,,,,,,,,,
,,,,,,,,,,,,0,4,4,4,1,fifth,14,27,F,R,IMT,2021-07-11_18h58.09.260,ImageRatingTask_S4,2021.1.4,MacIntel,59.94125757,,,,,,,,,
,,,,,,,,,,,,0,5,5,5,1,sixth,14,27,F,R,IMT,2021-07-11_18h58.09.260,ImageRatingTask_S4,2021.1.4,MacIntel,59.94125757,,,,,,,,,
,,,,,,,,,,,,0,6,6,6,1,seventh,14,27,F,R,IMT,2021-07-11_18h58.09.260,ImageRatingTask_S4,2021.1.4,MacIntel,59.94125757,,,,,,,,,
,,,,,,,,,,,,0,7,7,7,1,last,14,27,F,R,IMT,2021-07-11_18h58.09.260,ImageRatingTask_S4,2021.1.4,MacIntel,59.94125757,,,,,,,,,
,,,,,,,,,,,,,,,,,,14,27,F,R,IMT,2021-07-11_18h58.09.260,ImageRatingTask_S4,2021.1.4,MacIntel,59.94125757,0,9,9,47,1,DreamStudyImages_rs1000x750g/Children/IAPS2301_boy5.jpg,,,
,,3,2.803,4,2.9227,7,1.9472,1,0.9102,2,0.4467,0,0,0,0,1,main,14,27,F,R,IMT,2021-07-11_18h58.09.260,ImageRatingTask_S4,2021.1.4,MacIntel,59.94125757,,,,,,,,,
,,,,,,,,,,,,0,1,1,1,1,second,14,27,F,R,IMT,2021-07-11_18h58.09.260,ImageRatingTask_S4,2021.1.4,MacIntel,59.94125757,,,,,,,,,
,,,,,,,,,,,,0,2,2,2,1,third,14,27,F,R,IMT,2021-07-11_18h58.09.260,ImageRatingTask_S4,2021.1.4,MacIntel,59.94125757,,,,,,,,,
,,,,,,,,,,,,0,3,3,3,1,fourth,14,27,F,R,IMT,2021-07-11_18h58.09.260,ImageRatingTask_S4,2021.1.4,MacIntel,59.94125757,,,,,,,,,
,,,,,,,,,,,,0,4,4,4,1,fifth,14,27,F,R,IMT,2021-07-11_18h58.09.260,ImageRatingTask_S4,2021.1.4,MacIntel,59.94125757,,,,,,,,,
,,,,,,,,,,,,0,5,5,5,1,sixth,14,27,F,R,IMT,2021-07-11_18h58.09.260,ImageRatingTask_S4,2021.1.4,MacIntel,59.94125757,,,,,,,,,
,,,,,,,,,,,,0,6,6,6,1,seventh,14,27,F,R,IMT,2021-07-11_18h58.09.260,ImageRatingTask_S4,2021.1.4,MacIntel,59.94125757,,,,,,,,,
,,,,,,,,,,,,0,7,7,7,1,last,14,27,F,R,IMT,2021-07-11_18h58.09.260,ImageRatingTask_S4,2021.1.4,MacIntel,59.94125757,,,,,,,,,
,,,,,,,,,,,,,,,,,,14,27,F,R,IMT,2021-07-11_18h58.09.260,ImageRatingTask_S4,2021.1.4,MacIntel,59.94125757,0,10,10,158,1,DreamStudyImages_rs1000x750g/Children/Faces_019_h.jpg,,,
,,6,5.9846,1,2.2938,2,1.2342,1,1.2729,8,0.8447,0,0,0,0,1,main,14,27,F,R,IMT,2021-07-11_18h58.09.260,ImageRatingTask_S4,2021.1.4,MacIntel,59.94125757,,,,,,,,,
,,,,,,,,,,,,0,1,1,1,1,second,14,27,F,R,IMT,2021-07-11_18h58.09.260,ImageRatingTask_S4,2021.1.4,MacIntel,59.94125757,,,,,,,,,
,,,,,,,,,,,,0,2,2,2,1,third,14,27,F,R,IMT,2021-07-11_18h58.09.260,ImageRatingTask_S4,2021.1.4,MacIntel,59.94125757,,,,,,,,,
,,,,,,,,,,,,0,3,3,3,1,fourth,14,27,F,R,IMT,2021-07-11_18h58.09.260,ImageRatingTask_S4,2021.1.4,MacIntel,59.94125757,,,,,,,,,
,,,,,,,,,,,,0,4,4,4,1,fifth,14,27,F,R,IMT,2021-07-11_18h58.09.260,ImageRatingTask_S4,2021.1.4,MacIntel,59.94125757,,,,,,,,,
,,,,,,,,,,,,0,5,5,5,1,sixth,14,27,F,R,IMT,2021-07-11_18h58.09.260,ImageRatingTask_S4,2021.1.4,MacIntel,59.94125757,,,,,,,,,
,,,,,,,,,,,,0,6,6,6,1,seventh,14,27,F,R,IMT,2021-07-11_18h58.09.260,ImageRatingTask_S4,2021.1.4,MacIntel,59.94125757,,,,,,,,,
,,,,,,,,,,,,0,7,7,7,1,last,14,27,F,R,IMT,2021-07-11_18h58.09.260,ImageRatingTask_S4,2021.1.4,MacIntel,59.94125757,,,,,,,,,
,,,,,,,,,,,,,,,,,,14,27,F,R,IMT,2021-07-11_18h58.09.260,ImageRatingTask_S4,2021.1.4,MacIntel,59.94125757,0,11,11,142,1,DreamStudyImages_rs1000x750g/Water/Lake 10.jpg,,,
,,6,2.6329,2,1.3364,3,1.6612,1,1.5352,3,1.0244,0,0,0,0,1,main,14,27,F,R,IMT,2021-07-11_18h58.09.260,ImageRatingTask_S4,2021.1.4,MacIntel,59.94125757,,,,,,,,,
,,,,,,,,,,,,0,1,1,1,1,second,14,27,F,R,IMT,2021-07-11_18h58.09.260,ImageRatingTask_S4,2021.1.4,MacIntel,59.94125757,,,,,,,,,
,,,,,,,,,,,,0,2,2,2,1,third,14,27,F,R,IMT,2021-07-11_18h58.09.260,ImageRatingTask_S4,2021.1.4,MacIntel,59.94125757,,,,,,,,,
,,,,,,,,,,,,0,3,3,3,1,fourth,14,27,F,R,IMT,2021-07-11_18h58.09.260,ImageRatingTask_S4,2021.1.4,MacIntel,59.94125757,,,,,,,,,
,,,,,,,,,,,,0,4,4,4,1,fifth,14,27,F,R,IMT,2021-07-11_18h58.09.260,ImageRatingTask_S4,2021.1.4,MacIntel,59.94125757,,,,,,,,,
,,,,,,,,,,,,0,5,5,5,1,sixth,14,27,F,R,IMT,2021-07-11_18h58.09.260,ImageRatingTask_S4,2021.1.4,MacIntel,59.94125757,,,,,,,,,
,,,,,,,,,,,,0,6,6,6,1,seventh,14,27,F,R,IMT,2021-07-11_18h58.09.260,ImageRatingTask_S4,2021.1.4,MacIntel,59.94125757,,,,,,,,,
,,,,,,,,,,,,0,7,7,7,1,last,14,27,F,R,IMT,2021-07-11_18h58.09.260,ImageRatingTask_S4,2021.1.4,MacIntel,59.94125757,,,,,,,,,
,,,,,,,,,,,,,,,,,,14,27,F,R,IMT,2021-07-11_18h58.09.260,ImageRatingTask_S4,2021.1.4,MacIntel,59.94125757,0,12,12,152,1,DreamStudyImages_rs1000x750g/Mammals/IAPS1610_rabbit.jpg,,,
,,7,10.4741,3,1.9624,6,2.7447,1,1.0595,3,1.2258,0,0,0,0,1,main,14,27,F,R,IMT,2021-07-11_18h58.09.260,ImageRatingTask_S4,2021.1.4,MacIntel,59.94125757,,,,,,,,,
,,,,,,,,,,,,0,1,1,1,1,second,14,27,F,R,IMT,2021-07-11_18h58.09.260,ImageRatingTask_S4,2021.1.4,MacIntel,59.94125757,,,,,,,,,
,,,,,,,,,,,,0,2,2,2,1,third,14,27,F,R,IMT,2021-07-11_18h58.09.260,ImageRatingTask_S4,2021.1.4,MacIntel,59.94125757,,,,,,,,,
,,,,,,,,,,,,0,3,3,3,1,fourth,14,27,F,R,IMT,2021-07-11_18h58.09.260,ImageRatingTask_S4,2021.1.4,MacIntel,59.94125757,,,,,,,,,
,,,,,,,,,,,,0,4,4,4,1,fifth,14,27,F,R,IMT,2021-07-11_18h58.09.260,ImageRatingTask_S4,2021.1.4,MacIntel,59.94125757,,,,,,,,,
,,,,,,,,,,,,0,5,5,5,1,sixth,14,27,F,R,IMT,2021-07-11_18h58.09.260,ImageRatingTask_S4,2021.1.4,MacIntel,59.94125757,,,,,,,,,
,,,,,,,,,,,,0,6,6,6,1,seventh,14,27,F,R,IMT,2021-07-11_18h58.09.260,ImageRatingTask_S4,2021.1.4,MacIntel,59.94125757,,,,,,,,,
,,,,,,,,,,,,0,7,7,7,1,last,14,27,F,R,IMT,2021-07-11_18h58.09.260,ImageRatingTask_S4,2021.1.4,MacIntel,59.94125757,,,,,,,,,
,,,,,,,,,,,,,,,,,,14,27,F,R,IMT,2021-07-11_18h58.09.260,ImageRatingTask_S4,2021.1.4,MacIntel,59.94125757,0,13,13,108,1,DreamStudyImages_rs1000x750g/Mammals/Animals_165_h.jpg,,,
,,4,4.2659,2,1.6665,7,2.1908,1,1.7677,3,1.1817,0,0,0,0,1,main,14,27,F,R,IMT,2021-07-11_18h58.09.260,ImageRatingTask_S4,2021.1.4,MacIntel,59.94125757,,,,,,,,,
,,,,,,,,,,,,0,1,1,1,1,second,14,27,F,R,IMT,2021-07-11_18h58.09.260,ImageRatingTask_S4,2021.1.4,MacIntel,59.94125757,,,,,,,,,
,,,,,,,,,,,,0,2,2,2,1,third,14,27,F,R,IMT,2021-07-11_18h58.09.260,ImageRatingTask_S4,2021.1.4,MacIntel,59.94125757,,,,,,,,,
,,,,,,,,,,,,0,3,3,3,1,fourth,14,27,F,R,IMT,2021-07-11_18h58.09.260,ImageRatingTask_S4,2021.1.4,MacIntel,59.94125757,,,,,,,,,
,,,,,,,,,,,,0,4,4,4,1,fifth,14,27,F,R,IMT,2021-07-11_18h58.09.260,ImageRatingTask_S4,2021.1.4,MacIntel,59.94125757,,,,,,,,,
,,,,,,,,,,,,0,5,5,5,1,sixth,14,27,F,R,IMT,2021-07-11_18h58.09.260,ImageRatingTask_S4,2021.1.4,MacIntel,59.94125757,,,,,,,,,
,,,,,,,,,,,,0,6,6,6,1,seventh,14,27,F,R,IMT,2021-07-11_18h58.09.260,ImageRatingTask_S4,2021.1.4,MacIntel,59.94125757,,,,,,,,,
,,,,,,,,,,,,0,7,7,7,1,last,14,27,F,R,IMT,2021-07-11_18h58.09.260,ImageRatingTask_S4,2021.1.4,MacIntel,59.94125757,,,,,,,,,
,,,,,,,,,,,,,,,,,,14,27,F,R,IMT,2021-07-11_18h58.09.260,ImageRatingTask_S4,2021.1.4,MacIntel,59.94125757,0,14,14,13,1,DreamStudyImages_rs1000x750g/Mammals/Animals_066_h.jpg,,,
,,6,5.9809,2,30.9779,7,2.8022,1,1.5774,3,1.4272,0,0,0,0,1,main,14,27,F,R,IMT,2021-07-11_18h58.09.260,ImageRatingTask_S4,2021.1.4,MacIntel,59.94125757,,,,,,,,,
,,,,,,,,,,,,0,1,1,1,1,second,14,27,F,R,IMT,2021-07-11_18h58.09.260,ImageRatingTask_S4,2021.1.4,MacIntel,59.94125757,,,,,,,,,
,,,,,,,,,,,,0,2,2,2,1,third,14,27,F,R,IMT,2021-07-11_18h58.09.260,ImageRatingTask_S4,2021.1.4,MacIntel,59.94125757,,,,,,,,,
,,,,,,,,,,,,0,3,3,3,1,fourth,14,27,F,R,IMT,2021-07-11_18h58.09.260,ImageRatingTask_S4,2021.1.4,MacIntel,59.94125757,,,,,,,,,
,,,,,,,,,,,,0,4,4,4,1,fifth,14,27,F,R,IMT,2021-07-11_18h58.09.260,ImageRatingTask_S4,2021.1.4,MacIntel,59.94125757,,,,,,,,,
,,,,,,,,,,,,0,5,5,5,1,sixth,14,27,F,R,IMT,2021-07-11_18h58.09.260,ImageRatingTask_S4,2021.1.4,MacIntel,59.94125757,,,,,,,,,
,,,,,,,,,,,,0,6,6,6,1,seventh,14,27,F,R,IMT,2021-07-11_18h58.09.260,ImageRatingTask_S4,2021.1.4,MacIntel,59.94125757,,,,,,,,,
,,,,,,,,,,,,0,7,7,7,1,last,14,27,F,R,IMT,2021-07-11_18h58.09.260,ImageRatingTask_S4,2021.1.4,MacIntel,59.94125757,,,,,,,,,
,,,,,,,,,,,,,,,,,,14,27,F,R,IMT,2021-07-11_18h58.09.260,ImageRatingTask_S4,2021.1.4,MacIntel,59.94125757,0,15,15,49,1,DreamStudyImages_rs1000x750g/Mammals/Animal carcass 4.jpg,,,
,,4,3.4472,1,2.1022,5,3.1399,1,2.3724,6,1.3114,0,0,0,0,1,main,14,27,F,R,IMT,2021-07-11_18h58.09.260,ImageRatingTask_S4,2021.1.4,MacIntel,59.94125757,,,,,,,,,
,,,,,,,,,,,,0,1,1,1,1,second,14,27,F,R,IMT,2021-07-11_18h58.09.260,ImageRatingTask_S4,2021.1.4,MacIntel,59.94125757,,,,,,,,,
,,,,,,,,,,,,0,2,2,2,1,third,14,27,F,R,IMT,2021-07-11_18h58.09.260,ImageRatingTask_S4,2021.1.4,MacIntel,59.94125757,,,,,,,,,
,,,,,,,,,,,,0,3,3,3,1,fourth,14,27,F,R,IMT,2021-07-11_18h58.09.260,ImageRatingTask_S4,2021.1.4,MacIntel,59.94125757,,,,,,,,,
,,,,,,,,,,,,0,4,4,4,1,fifth,14,27,F,R,IMT,2021-07-11_18h58.09.260,ImageRatingTask_S4,2021.1.4,MacIntel,59.94125757,,,,,,,,,
,,,,,,,,,,,,0,5,5,5,1,sixth,14,27,F,R,IMT,2021-07-11_18h58.09.260,ImageRatingTask_S4,2021.1.4,MacIntel,59.94125757,,,,,,,,,
,,,,,,,,,,,,0,6,6,6,1,seventh,14,27,F,R,IMT,2021-07-11_18h58.09.260,ImageRatingTask_S4,2021.1.4,MacIntel,59.94125757,,,,,,,,,
,,,,,,,,,,,,0,7,7,7,1,last,14,27,F,R,IMT,2021-07-11_18h58.09.260,ImageRatingTask_S4,2021.1.4,MacIntel,59.94125757,,,,,,,,,
,,,,,,,,,,,,,,,,,,14,27,F,R,IMT,2021-07-11_18h58.09.260,ImageRatingTask_S4,2021.1.4,MacIntel,59.94125757,0,16,16,37,1,DreamStudyImages_rs1000x750g/Houses/Thunderstorm 1.jpg,,,
,,3,11.1527,2,0.6954,7,1.9307,1,1.5122,3,1.0402,0,0,0,0,1,main,14,27,F,R,IMT,2021-07-11_18h58.09.260,ImageRatingTask_S4,2021.1.4,MacIntel,59.94125757,,,,,,,,,
,,,,,,,,,,,,0,1,1,1,1,second,14,27,F,R,IMT,2021-07-11_18h58.09.260,ImageRatingTask_S4,2021.1.4,MacIntel,59.94125757,,,,,,,,,
,,,,,,,,,,,,0,2,2,2,1,third,14,27,F,R,IMT,2021-07-11_18h58.09.260,ImageRatingTask_S4,2021.1.4,MacIntel,59.94125757,,,,,,,,,
,,,,,,,,,,,,0,3,3,3,1,fourth,14,27,F,R,IMT,2021-07-11_18h58.09.260,ImageRatingTask_S4,2021.1.4,MacIntel,59.94125757,,,,,,,,,
,,,,,,,,,,,,0,4,4,4,1,fifth,14,27,F,R,IMT,2021-07-11_18h58.09.260,ImageRatingTask_S4,2021.1.4,MacIntel,59.94125757,,,,,,,,,
,,,,,,,,,,,,0,5,5,5,1,sixth,14,27,F,R,IMT,2021-07-11_18h58.09.260,ImageRatingTask_S4,2021.1.4,MacIntel,59.94125757,,,,,,,,,
,,,,,,,,,,,,0,6,6,6,1,seventh,14,27,F,R,IMT,2021-07-11_18h58.09.260,ImageRatingTask_S4,2021.1.4,MacIntel,59.94125757,,,,,,,,,
,,,,,,,,,,,,0,7,7,7,1,last,14,27,F,R,IMT,2021-07-11_18h58.09.260,ImageRatingTask_S4,2021.1.4,MacIntel,59.94125757,,,,,,,,,
,,,,,,,,,,,,,,,,,,14,27,F,R,IMT,2021-07-11_18h58.09.260,ImageRatingTask_S4,2021.1.4,MacIntel,59.94125757,0,17,17,31,1,DreamStudyImages_rs1000x750g/Mammals/1321.jpg,,,
,,4,6.5046,1,0.9665,7,2.1429,1,1.1585,7,0.9223,0,0,0,0,1,main,14,27,F,R,IMT,2021-07-11_18h58.09.260,ImageRatingTask_S4,2021.1.4,MacIntel,59.94125757,,,,,,,,,
,,,,,,,,,,,,0,1,1,1,1,second,14,27,F,R,IMT,2021-07-11_18h58.09.260,ImageRatingTask_S4,2021.1.4,MacIntel,59.94125757,,,,,,,,,
,,,,,,,,,,,,0,2,2,2,1,third,14,27,F,R,IMT,2021-07-11_18h58.09.260,ImageRatingTask_S4,2021.1.4,MacIntel,59.94125757,,,,,,,,,
,,,,,,,,,,,,0,3,3,3,1,fourth,14,27,F,R,IMT,2021-07-11_18h58.09.260,ImageRatingTask_S4,2021.1.4,MacIntel,59.94125757,,,,,,,,,
,,,,,,,,,,,,0,4,4,4,1,fifth,14,27,F,R,IMT,2021-07-11_18h58.09.260,ImageRatingTask_S4,2021.1.4,MacIntel,59.94125757,,,,,,,,,
,,,,,,,,,,,,0,5,5,5,1,sixth,14,27,F,R,IMT,2021-07-11_18h58.09.260,ImageRatingTask_S4,2021.1.4,MacIntel,59.94125757,,,,,,,,,
,,,,,,,,,,,,0,6,6,6,1,seventh,14,27,F,R,IMT,2021-07-11_18h58.09.260,ImageRatingTask_S4,2021.1.4,MacIntel,59.94125757,,,,,,,,,
,,,,,,,,,,,,0,7,7,7,1,last,14,27,F,R,IMT,2021-07-11_18h58.09.260,ImageRatingTask_S4,2021.1.4,MacIntel,59.94125757,,,,,,,,,
,,,,,,,,,,,,,,,,,,14,27,F,R,IMT,2021-07-11_18h58.09.260,ImageRatingTask_S4,2021.1.4,MacIntel,59.94125757,0,18,18,103,1,DreamStudyImages_rs1000x750g/Vehicles/Objects_002_h.jpg,,,
,,3,3.3199,3,0.9199,2,1.5815,1,2.1625,2,1.0818,0,0,0,0,1,main,14,27,F,R,IMT,2021-07-11_18h58.09.260,ImageRatingTask_S4,2021.1.4,MacIntel,59.94125757,,,,,,,,,
,,,,,,,,,,,,0,1,1,1,1,second,14,27,F,R,IMT,2021-07-11_18h58.09.260,ImageRatingTask_S4,2021.1.4,MacIntel,59.94125757,,,,,,,,,
,,,,,,,,,,,,0,2,2,2,1,third,14,27,F,R,IMT,2021-07-11_18h58.09.260,ImageRatingTask_S4,2021.1.4,MacIntel,59.94125757,,,,,,,,,
,,,,,,,,,,,,0,3,3,3,1,fourth,14,27,F,R,IMT,2021-07-11_18h58.09.260,ImageRatingTask_S4,2021.1.4,MacIntel,59.94125757,,,,,,,,,
,,,,,,,,,,,,0,4,4,4,1,fifth,14,27,F,R,IMT,2021-07-11_18h58.09.260,ImageRatingTask_S4,2021.1.4,MacIntel,59.94125757,,,,,,,,,
,,,,,,,,,,,,0,5,5,5,1,sixth,14,27,F,R,IMT,2021-07-11_18h58.09.260,ImageRatingTask_S4,2021.1.4,MacIntel,59.94125757,,,,,,,,,
,,,,,,,,,,,,0,6,6,6,1,seventh,14,27,F,R,IMT,2021-07-11_18h58.09.260,ImageRatingTask_S4,2021.1.4,MacIntel,59.94125757,,,,,,,,,
,,,,,,,,,,,,0,7,7,7,1,last,14,27,F,R,IMT,2021-07-11_18h58.09.260,ImageRatingTask_S4,2021.1.4,MacIntel,59.94125757,,,,,,,,,
,,,,,,,,,,,,,,,,,,14,27,F,R,IMT,2021-07-11_18h58.09.260,ImageRatingTask_S4,2021.1.4,MacIntel,59.94125757,0,19,19,18,1,DreamStudyImages_rs1000x750g/Children/IAPS3301_babyaccident2.jpg,,,
,,1,3.5853,5,1.2535,7,3.2557,1,1.0555,3,2.4162,0,0,0,0,1,main,14,27,F,R,IMT,2021-07-11_18h58.09.260,ImageRatingTask_S4,2021.1.4,MacIntel,59.94125757,,,,,,,,,
,,,,,,,,,,,,0,1,1,1,1,second,14,27,F,R,IMT,2021-07-11_18h58.09.260,ImageRatingTask_S4,2021.1.4,MacIntel,59.94125757,,,,,,,,,
,,,,,,,,,,,,0,2,2,2,1,third,14,27,F,R,IMT,2021-07-11_18h58.09.260,ImageRatingTask_S4,2021.1.4,MacIntel,59.94125757,,,,,,,,,
,,,,,,,,,,,,0,3,3,3,1,fourth,14,27,F,R,IMT,2021-07-11_18h58.09.260,ImageRatingTask_S4,2021.1.4,MacIntel,59.94125757,,,,,,,,,
,,,,,,,,,,,,0,4,4,4,1,fifth,14,27,F,R,IMT,2021-07-11_18h58.09.260,ImageRatingTask_S4,2021.1.4,MacIntel,59.94125757,,,,,,,,,
,,,,,,,,,,,,0,5,5,5,1,sixth,14,27,F,R,IMT,2021-07-11_18h58.09.260,ImageRatingTask_S4,2021.1.4,MacIntel,59.94125757,,,,,,,,,
,,,,,,,,,,,,0,6,6,6,1,seventh,14,27,F,R,IMT,2021-07-11_18h58.09.260,ImageRatingTask_S4,2021.1.4,MacIntel,59.94125757,,,,,,,,,
,,,,,,,,,,,,0,7,7,7,1,last,14,27,F,R,IMT,2021-07-11_18h58.09.260,ImageRatingTask_S4,2021.1.4,MacIntel,59.94125757,,,,,,,,,
,,,,,,,,,,,,,,,,,,14,27,F,R,IMT,2021-07-11_18h58.09.260,ImageRatingTask_S4,2021.1.4,MacIntel,59.94125757,0,20,20,141,1,DreamStudyImages_rs1000x750g/Mammals/Animals_049_h.jpg,,,
,,2,5.9359,4,1.2206,6,1.9499,1,1.5298,3,0.9283,0,0,0,0,1,main,14,27,F,R,IMT,2021-07-11_18h58.09.260,ImageRatingTask_S4,2021.1.4,MacIntel,59.94125757,,,,,,,,,
,,,,,,,,,,,,0,1,1,1,1,second,14,27,F,R,IMT,2021-07-11_18h58.09.260,ImageRatingTask_S4,2021.1.4,MacIntel,59.94125757,,,,,,,,,
,,,,,,,,,,,,0,2,2,2,1,third,14,27,F,R,IMT,2021-07-11_18h58.09.260,ImageRatingTask_S4,2021.1.4,MacIntel,59.94125757,,,,,,,,,
,,,,,,,,,,,,0,3,3,3,1,fourth,14,27,F,R,IMT,2021-07-11_18h58.09.260,ImageRatingTask_S4,2021.1.4,MacIntel,59.94125757,,,,,,,,,
,,,,,,,,,,,,0,4,4,4,1,fifth,14,27,F,R,IMT,2021-07-11_18h58.09.260,ImageRatingTask_S4,2021.1.4,MacIntel,59.94125757,,,,,,,,,
,,,,,,,,,,,,0,5,5,5,1,sixth,14,27,F,R,IMT,2021-07-11_18h58.09.260,ImageRatingTask_S4,2021.1.4,MacIntel,59.94125757,,,,,,,,,
,,,,,,,,,,,,0,6,6,6,1,seventh,14,27,F,R,IMT,2021-07-11_18h58.09.260,ImageRatingTask_S4,2021.1.4,MacIntel,59.94125757,,,,,,,,,
,,,,,,,,,,,,0,7,7,7,1,last,14,27,F,R,IMT,2021-07-11_18h58.09.260,ImageRatingTask_S4,2021.1.4,MacIntel,59.94125757,,,,,,,,,
,,,,,,,,,,,,,,,,,,14,27,F,R,IMT,2021-07-11_18h58.09.260,ImageRatingTask_S4,2021.1.4,MacIntel,59.94125757,0,21,21,54,1,DreamStudyImages_rs1000x750g/Mammals/Animals_207_h.jpg,,,
,,7,18.1808,2,3.3732,5,1.9794,1,2.8532,3,0.7468,0,0,0,0,1,main,14,27,F,R,IMT,2021-07-11_18h58.09.260,ImageRatingTask_S4,2021.1.4,MacIntel,59.94125757,,,,,,,,,
,,,,,,,,,,,,0,1,1,1,1,second,14,27,F,R,IMT,2021-07-11_18h58.09.260,ImageRatingTask_S4,2021.1.4,MacIntel,59.94125757,,,,,,,,,
,,,,,,,,,,,,0,2,2,2,1,third,14,27,F,R,IMT,2021-07-11_18h58.09.260,ImageRatingTask_S4,2021.1.4,MacIntel,59.94125757,,,,,,,,,
,,,,,,,,,,,,0,3,3,3,1,fourth,14,27,F,R,IMT,2021-07-11_18h58.09.260,ImageRatingTask_S4,2021.1.4,MacIntel,59.94125757,,,,,,,,,
,,,,,,,,,,,,0,4,4,4,1,fifth,14,27,F,R,IMT,2021-07-11_18h58.09.260,ImageRatingTask_S4,2021.1.4,MacIntel,59.94125757,,,,,,,,,
,,,,,,,,,,,,0,5,5,5,1,sixth,14,27,F,R,IMT,2021-07-11_18h58.09.260,ImageRatingTask_S4,2021.1.4,MacIntel,59.94125757,,,,,,,,,
,,,,,,,,,,,,0,6,6,6,1,seventh,14,27,F,R,IMT,2021-07-11_18h58.09.260,ImageRatingTask_S4,2021.1.4,MacIntel,59.94125757,,,,,,,,,
,,,,,,,,,,,,0,7,7,7,1,last,14,27,F,R,IMT,2021-07-11_18h58.09.260,ImageRatingTask_S4,2021.1.4,MacIntel,59.94125757,,,,,,,,,
,,,,,,,,,,,,,,,,,,14,27,F,R,IMT,2021-07-11_18h58.09.260,ImageRatingTask_S4,2021.1.4,MacIntel,59.94125757,0,22,22,30,1,DreamStudyImages_rs1000x750g/Mammals/Animals_134_h.jpg,,,
,,5,2.1142,1,0.3499,3,1.559,1,1.0264,3,0.9344,0,0,0,0,1,main,14,27,F,R,IMT,2021-07-11_18h58.09.260,ImageRatingTask_S4,2021.1.4,MacIntel,59.94125757,,,,,,,,,
,,,,,,,,,,,,0,1,1,1,1,second,14,27,F,R,IMT,2021-07-11_18h58.09.260,ImageRatingTask_S4,2021.1.4,MacIntel,59.94125757,,,,,,,,,
,,,,,,,,,,,,0,2,2,2,1,third,14,27,F,R,IMT,2021-07-11_18h58.09.260,ImageRatingTask_S4,2021.1.4,MacIntel,59.94125757,,,,,,,,,
,,,,,,,,,,,,0,3,3,3,1,fourth,14,27,F,R,IMT,2021-07-11_18h58.09.260,ImageRatingTask_S4,2021.1.4,MacIntel,59.94125757,,,,,,,,,
,,,,,,,,,,,,0,4,4,4,1,fifth,14,27,F,R,IMT,2021-07-11_18h58.09.260,ImageRatingTask_S4,2021.1.4,MacIntel,59.94125757,,,,,,,,,
,,,,,,,,,,,,0,5,5,5,1,sixth,14,27,F,R,IMT,2021-07-11_18h58.09.260,ImageRatingTask_S4,2021.1.4,MacIntel,59.94125757,,,,,,,,,
,,,,,,,,,,,,0,6,6,6,1,seventh,14,27,F,R,IMT,2021-07-11_18h58.09.260,ImageRatingTask_S4,2021.1.4,MacIntel,59.94125757,,,,,,,,,
,,,,,,,,,,,,0,7,7,7,1,last,14,27,F,R,IMT,2021-07-11_18h58.09.260,ImageRatingTask_S4,2021.1.4,MacIntel,59.94125757,,,,,,,,,
,,,,,,,,,,,,,,,,,,14,27,F,R,IMT,2021-07-11_18h58.09.260,ImageRatingTask_S4,2021.1.4,MacIntel,59.94125757,0,23,23,40,1,DreamStudyImages_rs1000x750g/Mammals/IAPS1670_cow.jpg,,,
,,9,2.6698,4,0.776,8,1.9676,1,1.1593,3,0.8168,0,0,0,0,1,main,14,27,F,R,IMT,2021-07-11_18h58.09.260,ImageRatingTask_S4,2021.1.4,MacIntel,59.94125757,,,,,,,,,
,,,,,,,,,,,,0,1,1,1,1,second,14,27,F,R,IMT,2021-07-11_18h58.09.260,ImageRatingTask_S4,2021.1.4,MacIntel,59.94125757,,,,,,,,,
,,,,,,,,,,,,0,2,2,2,1,third,14,27,F,R,IMT,2021-07-11_18h58.09.260,ImageRatingTask_S4,2021.1.4,MacIntel,59.94125757,,,,,,,,,
,,,,,,,,,,,,0,3,3,3,1,fourth,14,27,F,R,IMT,2021-07-11_18h58.09.260,ImageRatingTask_S4,2021.1.4,MacIntel,59.94125757,,,,,,,,,
,,,,,,,,,,,,0,4,4,4,1,fifth,14,27,F,R,IMT,2021-07-11_18h58.09.260,ImageRatingTask_S4,2021.1.4,MacIntel,59.94125757,,,,,,,,,
,,,,,,,,,,,,0,5,5,5,1,sixth,14,27,F,R,IMT,2021-07-11_18h58.09.260,ImageRatingTask_S4,2021.1.4,MacIntel,59.94125757,,,,,,,,,
,,,,,,,,,,,,0,6,6,6,1,seventh,14,27,F,R,IMT,2021-07-11_18h58.09.260,ImageRatingTask_S4,2021.1.4,MacIntel,59.94125757,,,,,,,,,
,,,,,,,,,,,,0,7,7,7,1,last,14,27,F,R,IMT,2021-07-11_18h58.09.260,ImageRatingTask_S4,2021.1.4,MacIntel,59.94125757,,,,,,,,,
,,,,,,,,,,,,,,,,,,14,27,F,R,IMT,2021-07-11_18h58.09.260,ImageRatingTask_S4,2021.1.4,MacIntel,59.94125757,0,24,24,118,1,DreamStudyImages_rs1000x750g/Mammals/Dog 14.jpg,,,
,,5,2.3417,1,0.6512,7,4.3118,1,0.9539,2,0.3417,0,0,0,0,1,main,14,27,F,R,IMT,2021-07-11_18h58.09.260,ImageRatingTask_S4,2021.1.4,MacIntel,59.94125757,,,,,,,,,
,,,,,,,,,,,,0,1,1,1,1,second,14,27,F,R,IMT,2021-07-11_18h58.09.260,ImageRatingTask_S4,2021.1.4,MacIntel,59.94125757,,,,,,,,,
,,,,,,,,,,,,0,2,2,2,1,third,14,27,F,R,IMT,2021-07-11_18h58.09.260,ImageRatingTask_S4,2021.1.4,MacIntel,59.94125757,,,,,,,,,
,,,,,,,,,,,,0,3,3,3,1,fourth,14,27,F,R,IMT,2021-07-11_18h58.09.260,ImageRatingTask_S4,2021.1.4,MacIntel,59.94125757,,,,,,,,,
,,,,,,,,,,,,0,4,4,4,1,fifth,14,27,F,R,IMT,2021-07-11_18h58.09.260,ImageRatingTask_S4,2021.1.4,MacIntel,59.94125757,,,,,,,,,
,,,,,,,,,,,,0,5,5,5,1,sixth,14,27,F,R,IMT,2021-07-11_18h58.09.260,ImageRatingTask_S4,2021.1.4,MacIntel,59.94125757,,,,,,,,,
,,,,,,,,,,,,0,6,6,6,1,seventh,14,27,F,R,IMT,2021-07-11_18h58.09.260,ImageRatingTask_S4,2021.1.4,MacIntel,59.94125757,,,,,,,,,
,,,,,,,,,,,,0,7,7,7,1,last,14,27,F,R,IMT,2021-07-11_18h58.09.260,ImageRatingTask_S4,2021.1.4,MacIntel,59.94125757,,,,,,,,,
,,,,,,,,,,,,,,,,,,14,27,F,R,IMT,2021-07-11_18h58.09.260,ImageRatingTask_S4,2021.1.4,MacIntel,59.94125757,0,25,25,29,1,DreamStudyImages_rs1000x750g/Children/Baby 5.jpg,,,
,,5,2.8446,1,0.4087,6,1.5962,1,1.1923,5,1.1254,0,0,0,0,1,main,14,27,F,R,IMT,2021-07-11_18h58.09.260,ImageRatingTask_S4,2021.1.4,MacIntel,59.94125757,,,,,,,,,
,,,,,,,,,,,,0,1,1,1,1,second,14,27,F,R,IMT,2021-07-11_18h58.09.260,ImageRatingTask_S4,2021.1.4,MacIntel,59.94125757,,,,,,,,,
,,,,,,,,,,,,0,2,2,2,1,third,14,27,F,R,IMT,2021-07-11_18h58.09.260,ImageRatingTask_S4,2021.1.4,MacIntel,59.94125757,,,,,,,,,
,,,,,,,,,,,,0,3,3,3,1,fourth,14,27,F,R,IMT,2021-07-11_18h58.09.260,ImageRatingTask_S4,2021.1.4,MacIntel,59.94125757,,,,,,,,,
,,,,,,,,,,,,0,4,4,4,1,fifth,14,27,F,R,IMT,2021-07-11_18h58.09.260,ImageRatingTask_S4,2021.1.4,MacIntel,59.94125757,,,,,,,,,
,,,,,,,,,,,,0,5,5,5,1,sixth,14,27,F,R,IMT,2021-07-11_18h58.09.260,ImageRatingTask_S4,2021.1.4,MacIntel,59.94125757,,,,,,,,,
,,,,,,,,,,,,0,6,6,6,1,seventh,14,27,F,R,IMT,2021-07-11_18h58.09.260,ImageRatingTask_S4,2021.1.4,MacIntel,59.94125757,,,,,,,,,
,,,,,,,,,,,,0,7,7,7,1,last,14,27,F,R,IMT,2021-07-11_18h58.09.260,ImageRatingTask_S4,2021.1.4,MacIntel,59.94125757,,,,,,,,,
,,,,,,,,,,,,,,,,,,14,27,F,R,IMT,2021-07-11_18h58.09.260,ImageRatingTask_S4,2021.1.4,MacIntel,59.94125757,0,26,26,35,1,DreamStudyImages_rs1000x750g/Food/Objects_092_v.jpg,,,
,,6,3.6577,1,1.649,8,3.0673,1,0.662,2,0.3385,0,0,0,0,1,main,14,27,F,R,IMT,2021-07-11_18h58.09.260,ImageRatingTask_S4,2021.1.4,MacIntel,59.94125757,,,,,,,,,
,,,,,,,,,,,,0,1,1,1,1,second,14,27,F,R,IMT,2021-07-11_18h58.09.260,ImageRatingTask_S4,2021.1.4,MacIntel,59.94125757,,,,,,,,,
,,,,,,,,,,,,0,2,2,2,1,third,14,27,F,R,IMT,2021-07-11_18h58.09.260,ImageRatingTask_S4,2021.1.4,MacIntel,59.94125757,,,,,,,,,
,,,,,,,,,,,,0,3,3,3,1,fourth,14,27,F,R,IMT,2021-07-11_18h58.09.260,ImageRatingTask_S4,2021.1.4,MacIntel,59.94125757,,,,,,,,,
,,,,,,,,,,,,0,4,4,4,1,fifth,14,27,F,R,IMT,2021-07-11_18h58.09.260,ImageRatingTask_S4,2021.1.4,MacIntel,59.94125757,,,,,,,,,
,,,,,,,,,,,,0,5,5,5,1,sixth,14,27,F,R,IMT,2021-07-11_18h58.09.260,ImageRatingTask_S4,2021.1.4,MacIntel,59.94125757,,,,,,,,,
,,,,,,,,,,,,0,6,6,6,1,seventh,14,27,F,R,IMT,2021-07-11_18h58.09.260,ImageRatingTask_S4,2021.1.4,MacIntel,59.94125757,,,,,,,,,
,,,,,,,,,,,,0,7,7,7,1,last,14,27,F,R,IMT,2021-07-11_18h58.09.260,ImageRatingTask_S4,2021.1.4,MacIntel,59.94125757,,,,,,,,,
,,,,,,,,,,,,,,,,,,14,27,F,R,IMT,2021-07-11_18h58.09.260,ImageRatingTask_S4,2021.1.4,MacIntel,59.94125757,0,27,27,9,1,DreamStudyImages_rs1000x750g/Children/Faces_100_h.jpg,,,
,,7,2.6273,3,1.4931,8,2.0624,1,0.8368,3,0.9428,0,0,0,0,1,main,14,27,F,R,IMT,2021-07-11_18h58.09.260,ImageRatingTask_S4,2021.1.4,MacIntel,59.94125757,,,,,,,,,
,,,,,,,,,,,,0,1,1,1,1,second,14,27,F,R,IMT,2021-07-11_18h58.09.260,ImageRatingTask_S4,2021.1.4,MacIntel,59.94125757,,,,,,,,,
,,,,,,,,,,,,0,2,2,2,1,third,14,27,F,R,IMT,2021-07-11_18h58.09.260,ImageRatingTask_S4,2021.1.4,MacIntel,59.94125757,,,,,,,,,
,,,,,,,,,,,,0,3,3,3,1,fourth,14,27,F,R,IMT,2021-07-11_18h58.09.260,ImageRatingTask_S4,2021.1.4,MacIntel,59.94125757,,,,,,,,,
,,,,,,,,,,,,0,4,4,4,1,fifth,14,27,F,R,IMT,2021-07-11_18h58.09.260,ImageRatingTask_S4,2021.1.4,MacIntel,59.94125757,,,,,,,,,
,,,,,,,,,,,,0,5,5,5,1,sixth,14,27,F,R,IMT,2021-07-11_18h58.09.260,ImageRatingTask_S4,2021.1.4,MacIntel,59.94125757,,,,,,,,,
,,,,,,,,,,,,0,6,6,6,1,seventh,14,27,F,R,IMT,2021-07-11_18h58.09.260,ImageRatingTask_S4,2021.1.4,MacIntel,59.94125757,,,,,,,,,
,,,,,,,,,,,,0,7,7,7,1,last,14,27,F,R,IMT,2021-07-11_18h58.09.260,ImageRatingTask_S4,2021.1.4,MacIntel,59.94125757,,,,,,,,,
,,,,,,,,,,,,,,,,,,14,27,F,R,IMT,2021-07-11_18h58.09.260,ImageRatingTask_S4,2021.1.4,MacIntel,59.94125757,0,28,28,95,1,DreamStudyImages_rs1000x750g/Mammals/Animals_178_v.jpg,,,
,,6,47.2967,1,0.5931,8,3.837,1,0.9978,2,0.5039,0,0,0,0,1,main,14,27,F,R,IMT,2021-07-11_18h58.09.260,ImageRatingTask_S4,2021.1.4,MacIntel,59.94125757,,,,,,,,,
,,,,,,,,,,,,0,1,1,1,1,second,14,27,F,R,IMT,2021-07-11_18h58.09.260,ImageRatingTask_S4,2021.1.4,MacIntel,59.94125757,,,,,,,,,
,,,,,,,,,,,,0,2,2,2,1,third,14,27,F,R,IMT,2021-07-11_18h58.09.260,ImageRatingTask_S4,2021.1.4,MacIntel,59.94125757,,,,,,,,,
,,,,,,,,,,,,0,3,3,3,1,fourth,14,27,F,R,IMT,2021-07-11_18h58.09.260,ImageRatingTask_S4,2021.1.4,MacIntel,59.94125757,,,,,,,,,
,,,,,,,,,,,,0,4,4,4,1,fifth,14,27,F,R,IMT,2021-07-11_18h58.09.260,ImageRatingTask_S4,2021.1.4,MacIntel,59.94125757,,,,,,,,,
,,,,,,,,,,,,0,5,5,5,1,sixth,14,27,F,R,IMT,2021-07-11_18h58.09.260,ImageRatingTask_S4,2021.1.4,MacIntel,59.94125757,,,,,,,,,
,,,,,,,,,,,,0,6,6,6,1,seventh,14,27,F,R,IMT,2021-07-11_18h58.09.260,ImageRatingTask_S4,2021.1.4,MacIntel,59.94125757,,,,,,,,,
,,,,,,,,,,,,0,7,7,7,1,last,14,27,F,R,IMT,2021-07-11_18h58.09.260,ImageRatingTask_S4,2021.1.4,MacIntel,59.94125757,,,,,,,,,
,,,,,,,,,,,,,,,,,,14,27,F,R,IMT,2021-07-11_18h58.09.260,ImageRatingTask_S4,2021.1.4,MacIntel,59.94125757,0,29,29,23,1,DreamStudyImages_rs1000x750g/Children/Faces_123_h.jpg,,,
,,5,12.7979,1,1.0253,8,2.6787,1,2.4042,8,0.8623,0,0,0,0,1,main,14,27,F,R,IMT,2021-07-11_18h58.09.260,ImageRatingTask_S4,2021.1.4,MacIntel,59.94125757,,,,,,,,,
,,,,,,,,,,,,0,1,1,1,1,second,14,27,F,R,IMT,2021-07-11_18h58.09.260,ImageRatingTask_S4,2021.1.4,MacIntel,59.94125757,,,,,,,,,
,,,,,,,,,,,,0,2,2,2,1,third,14,27,F,R,IMT,2021-07-11_18h58.09.260,ImageRatingTask_S4,2021.1.4,MacIntel,59.94125757,,,,,,,,,
,,,,,,,,,,,,0,3,3,3,1,fourth,14,27,F,R,IMT,2021-07-11_18h58.09.260,ImageRatingTask_S4,2021.1.4,MacIntel,59.94125757,,,,,,,,,
,,,,,,,,,,,,0,4,4,4,1,fifth,14,27,F,R,IMT,2021-07-11_18h58.09.260,ImageRatingTask_S4,2021.1.4,MacIntel,59.94125757,,,,,,,,,
,,,,,,,,,,,,0,5,5,5,1,sixth,14,27,F,R,IMT,2021-07-11_18h58.09.260,ImageRatingTask_S4,2021.1.4,MacIntel,59.94125757,,,,,,,,,
,,,,,,,,,,,,0,6,6,6,1,seventh,14,27,F,R,IMT,2021-07-11_18h58.09.260,ImageRatingTask_S4,2021.1.4,MacIntel,59.94125757,,,,,,,,,
,,,,,,,,,,,,0,7,7,7,1,last,14,27,F,R,IMT,2021-07-11_18h58.09.260,ImageRatingTask_S4,2021.1.4,MacIntel,59.94125757,,,,,,,,,
,,,,,,,,,,,,,,,,,,14,27,F,R,IMT,2021-07-11_18h58.09.260,ImageRatingTask_S4,2021.1.4,MacIntel,59.94125757,0,30,30,53,1,DreamStudyImages_rs1000x750g/Water/Bottle 1.jpg,,,
,,5,3.7704,1,0.4651,8,1.7155,1,1.7044,6,1.2917,0,0,0,0,1,main,14,27,F,R,IMT,2021-07-11_18h58.09.260,ImageRatingTask_S4,2021.1.4,MacIntel,59.94125757,,,,,,,,,
,,,,,,,,,,,,0,1,1,1,1,second,14,27,F,R,IMT,2021-07-11_18h58.09.260,ImageRatingTask_S4,2021.1.4,MacIntel,59.94125757,,,,,,,,,
,,,,,,,,,,,,0,2,2,2,1,third,14,27,F,R,IMT,2021-07-11_18h58.09.260,ImageRatingTask_S4,2021.1.4,MacIntel,59.94125757,,,,,,,,,
,,,,,,,,,,,,0,3,3,3,1,fourth,14,27,F,R,IMT,2021-07-11_18h58.09.260,ImageRatingTask_S4,2021.1.4,MacIntel,59.94125757,,,,,,,,,
,,,,,,,,,,,,0,4,4,4,1,fifth,14,27,F,R,IMT,2021-07-11_18h58.09.260,ImageRatingTask_S4,2021.1.4,MacIntel,59.94125757,,,,,,,,,
,,,,,,,,,,,,0,5,5,5,1,sixth,14,27,F,R,IMT,2021-07-11_18h58.09.260,ImageRatingTask_S4,2021.1.4,MacIntel,59.94125757,,,,,,,,,
,,,,,,,,,,,,0,6,6,6,1,seventh,14,27,F,R,IMT,2021-07-11_18h58.09.260,ImageRatingTask_S4,2021.1.4,MacIntel,59.94125757,,,,,,,,,
,,,,,,,,,,,,0,7,7,7,1,last,14,27,F,R,IMT,2021-07-11_18h58.09.260,ImageRatingTask_S4,2021.1.4,MacIntel,59.94125757,,,,,,,,,
,,,,,,,,,,,,,,,,,,14,27,F,R,IMT,2021-07-11_18h58.09.260,ImageRatingTask_S4,2021.1.4,MacIntel,59.94125757,0,31,31,0,1,DreamStudyImages_rs1000x750g/Houses/Landscapes_087_h.jpg,,,
,,5,3.4308,1,0.8006,6,0.9272,1,1.0089,5,0.8223,0,0,0,0,1,main,14,27,F,R,IMT,2021-07-11_18h58.09.260,ImageRatingTask_S4,2021.1.4,MacIntel,59.94125757,,,,,,,,,
,,,,,,,,,,,,0,1,1,1,1,second,14,27,F,R,IMT,2021-07-11_18h58.09.260,ImageRatingTask_S4,2021.1.4,MacIntel,59.94125757,,,,,,,,,
,,,,,,,,,,,,0,2,2,2,1,third,14,27,F,R,IMT,2021-07-11_18h58.09.260,ImageRatingTask_S4,2021.1.4,MacIntel,59.94125757,,,,,,,,,
,,,,,,,,,,,,0,3,3,3,1,fourth,14,27,F,R,IMT,2021-07-11_18h58.09.260,ImageRatingTask_S4,2021.1.4,MacIntel,59.94125757,,,,,,,,,
,,,,,,,,,,,,0,4,4,4,1,fifth,14,27,F,R,IMT,2021-07-11_18h58.09.260,ImageRatingTask_S4,2021.1.4,MacIntel,59.94125757,,,,,,,,,
,,,,,,,,,,,,0,5,5,5,1,sixth,14,27,F,R,IMT,2021-07-11_18h58.09.260,ImageRatingTask_S4,2021.1.4,MacIntel,59.94125757,,,,,,,,,
,,,,,,,,,,,,0,6,6,6,1,seventh,14,27,F,R,IMT,2021-07-11_18h58.09.260,ImageRatingTask_S4,2021.1.4,MacIntel,59.94125757,,,,,,,,,
,,,,,,,,,,,,0,7,7,7,1,last,14,27,F,R,IMT,2021-07-11_18h58.09.260,ImageRatingTask_S4,2021.1.4,MacIntel,59.94125757,,,,,,,,,
,,,,,,,,,,,,,,,,,,14,27,F,R,IMT,2021-07-11_18h58.09.260,ImageRatingTask_S4,2021.1.4,MacIntel,59.94125757,0,32,32,91,1,DreamStudyImages_rs1000x750g/Food/Objects_087_h.jpg,,,
,,6,4.187,1,0.3565,4,1.6221,1,2.6873,8,1.682,0,0,0,0,1,main,14,27,F,R,IMT,2021-07-11_18h58.09.260,ImageRatingTask_S4,2021.1.4,MacIntel,59.94125757,,,,,,,,,
,,,,,,,,,,,,0,1,1,1,1,second,14,27,F,R,IMT,2021-07-11_18h58.09.260,ImageRatingTask_S4,2021.1.4,MacIntel,59.94125757,,,,,,,,,
,,,,,,,,,,,,0,2,2,2,1,third,14,27,F,R,IMT,2021-07-11_18h58.09.260,ImageRatingTask_S4,2021.1.4,MacIntel,59.94125757,,,,,,,,,
,,,,,,,,,,,,0,3,3,3,1,fourth,14,27,F,R,IMT,2021-07-11_18h58.09.260,ImageRatingTask_S4,2021.1.4,MacIntel,59.94125757,,,,,,,,,
,,,,,,,,,,,,0,4,4,4,1,fifth,14,27,F,R,IMT,2021-07-11_18h58.09.260,ImageRatingTask_S4,2021.1.4,MacIntel,59.94125757,,,,,,,,,
,,,,,,,,,,,,0,5,5,5,1,sixth,14,27,F,R,IMT,2021-07-11_18h58.09.260,ImageRatingTask_S4,2021.1.4,MacIntel,59.94125757,,,,,,,,,
,,,,,,,,,,,,0,6,6,6,1,seventh,14,27,F,R,IMT,2021-07-11_18h58.09.260,ImageRatingTask_S4,2021.1.4,MacIntel,59.94125757,,,,,,,,,
,,,,,,,,,,,,0,7,7,7,1,last,14,27,F,R,IMT,2021-07-11_18h58.09.260,ImageRatingTask_S4,2021.1.4,MacIntel,59.94125757,,,,,,,,,
,,,,,,,,,,,,,,,,,,14,27,F,R,IMT,2021-07-11_18h58.09.260,ImageRatingTask_S4,2021.1.4,MacIntel,59.94125757,0,33,33,98,1,DreamStudyImages_rs1000x750g/Water/Lake 8.jpg,,,
,,5,3.2354,1,0.2816,4,2.1449,1,1.073,7,1.0174,0,0,0,0,1,main,14,27,F,R,IMT,2021-07-11_18h58.09.260,ImageRatingTask_S4,2021.1.4,MacIntel,59.94125757,,,,,,,,,
,,,,,,,,,,,,0,1,1,1,1,second,14,27,F,R,IMT,2021-07-11_18h58.09.260,ImageRatingTask_S4,2021.1.4,MacIntel,59.94125757,,,,,,,,,
,,,,,,,,,,,,0,2,2,2,1,third,14,27,F,R,IMT,2021-07-11_18h58.09.260,ImageRatingTask_S4,2021.1.4,MacIntel,59.94125757,,,,,,,,,
,,,,,,,,,,,,0,3,3,3,1,fourth,14,27,F,R,IMT,2021-07-11_18h58.09.260,ImageRatingTask_S4,2021.1.4,MacIntel,59.94125757,,,,,,,,,
,,,,,,,,,,,,0,4,4,4,1,fifth,14,27,F,R,IMT,2021-07-11_18h58.09.260,ImageRatingTask_S4,2021.1.4,MacIntel,59.94125757,,,,,,,,,
,,,,,,,,,,,,0,5,5,5,1,sixth,14,27,F,R,IMT,2021-07-11_18h58.09.260,ImageRatingTask_S4,2021.1.4,MacIntel,59.94125757,,,,,,,,,
,,,,,,,,,,,,0,6,6,6,1,seventh,14,27,F,R,IMT,2021-07-11_18h58.09.260,ImageRatingTask_S4,2021.1.4,MacIntel,59.94125757,,,,,,,,,
,,,,,,,,,,,,0,7,7,7,1,last,14,27,F,R,IMT,2021-07-11_18h58.09.260,ImageRatingTask_S4,2021.1.4,MacIntel,59.94125757,,,,,,,,,
,,,,,,,,,,,,,,,,,,14,27,F,R,IMT,2021-07-11_18h58.09.260,ImageRatingTask_S4,2021.1.4,MacIntel,59.94125757,0,34,34,145,1,DreamStudyImages_rs1000x750g/Vehicles/Desert 1.jpg,,,
,,6,6.2727,1,1.453,2,4.0206,1,0.9628,3,1.1086,0,0,0,0,1,main,14,27,F,R,IMT,2021-07-11_18h58.09.260,ImageRatingTask_S4,2021.1.4,MacIntel,59.94125757,,,,,,,,,
,,,,,,,,,,,,0,1,1,1,1,second,14,27,F,R,IMT,2021-07-11_18h58.09.260,ImageRatingTask_S4,2021.1.4,MacIntel,59.94125757,,,,,,,,,
,,,,,,,,,,,,0,2,2,2,1,third,14,27,F,R,IMT,2021-07-11_18h58.09.260,ImageRatingTask_S4,2021.1.4,MacIntel,59.94125757,,,,,,,,,
,,,,,,,,,,,,0,3,3,3,1,fourth,14,27,F,R,IMT,2021-07-11_18h58.09.260,ImageRatingTask_S4,2021.1.4,MacIntel,59.94125757,,,,,,,,,
,,,,,,,,,,,,0,4,4,4,1,fifth,14,27,F,R,IMT,2021-07-11_18h58.09.260,ImageRatingTask_S4,2021.1.4,MacIntel,59.94125757,,,,,,,,,
,,,,,,,,,,,,0,5,5,5,1,sixth,14,27,F,R,IMT,2021-07-11_18h58.09.260,ImageRatingTask_S4,2021.1.4,MacIntel,59.94125757,,,,,,,,,
,,,,,,,,,,,,0,6,6,6,1,seventh,14,27,F,R,IMT,2021-07-11_18h58.09.260,ImageRatingTask_S4,2021.1.4,MacIntel,59.94125757,,,,,,,,,
,,,,,,,,,,,,0,7,7,7,1,last,14,27,F,R,IMT,2021-07-11_18h58.09.260,ImageRatingTask_S4,2021.1.4,MacIntel,59.94125757,,,,,,,,,
,,,,,,,,,,,,,,,,,,14,27,F,R,IMT,2021-07-11_18h58.09.260,ImageRatingTask_S4,2021.1.4,MacIntel,59.94125757,0,35,35,8,1,DreamStudyImages_rs1000x750g/Mammals/IAPS1811_apes.jpg,,,
,,5,3.7323,1,0.4039,4,1.8963,1,0.7933,7,1.0444,0,0,0,0,1,main,14,27,F,R,IMT,2021-07-11_18h58.09.260,ImageRatingTask_S4,2021.1.4,MacIntel,59.94125757,,,,,,,,,
,,,,,,,,,,,,0,1,1,1,1,second,14,27,F,R,IMT,2021-07-11_18h58.09.260,ImageRatingTask_S4,2021.1.4,MacIntel,59.94125757,,,,,,,,,
,,,,,,,,,,,,0,2,2,2,1,third,14,27,F,R,IMT,2021-07-11_18h58.09.260,ImageRatingTask_S4,2021.1.4,MacIntel,59.94125757,,,,,,,,,
,,,,,,,,,,,,0,3,3,3,1,fourth,14,27,F,R,IMT,2021-07-11_18h58.09.260,ImageRatingTask_S4,2021.1.4,MacIntel,59.94125757,,,,,,,,,
,,,,,,,,,,,,0,4,4,4,1,fifth,14,27,F,R,IMT,2021-07-11_18h58.09.260,ImageRatingTask_S4,2021.1.4,MacIntel,59.94125757,,,,,,,,,
,,,,,,,,,,,,0,5,5,5,1,sixth,14,27,F,R,IMT,2021-07-11_18h58.09.260,ImageRatingTask_S4,2021.1.4,MacIntel,59.94125757,,,,,,,,,
,,,,,,,,,,,,0,6,6,6,1,seventh,14,27,F,R,IMT,2021-07-11_18h58.09.260,ImageRatingTask_S4,2021.1.4,MacIntel,59.94125757,,,,,,,,,
,,,,,,,,,,,,0,7,7,7,1,last,14,27,F,R,IMT,2021-07-11_18h58.09.260,ImageRatingTask_S4,2021.1.4,MacIntel,59.94125757,,,,,,,,,
,,,,,,,,,,,,,,,,,,14,27,F,R,IMT,2021-07-11_18h58.09.260,ImageRatingTask_S4,2021.1.4,MacIntel,59.94125757,0,36,36,76,1,DreamStudyImages_rs1000x750g/Vehicles/Destruction 10.jpg,,,
,,5,2.7462,1,0.4461,7,1.5156,1,0.7558,7,0.7456,0,0,0,0,1,main,14,27,F,R,IMT,2021-07-11_18h58.09.260,ImageRatingTask_S4,2021.1.4,MacIntel,59.94125757,,,,,,,,,
,,,,,,,,,,,,0,1,1,1,1,second,14,27,F,R,IMT,2021-07-11_18h58.09.260,ImageRatingTask_S4,2021.1.4,MacIntel,59.94125757,,,,,,,,,
,,,,,,,,,,,,0,2,2,2,1,third,14,27,F,R,IMT,2021-07-11_18h58.09.260,ImageRatingTask_S4,2021.1.4,MacIntel,59.94125757,,,,,,,,,
,,,,,,,,,,,,0,3,3,3,1,fourth,14,27,F,R,IMT,2021-07-11_18h58.09.260,ImageRatingTask_S4,2021.1.4,MacIntel,59.94125757,,,,,,,,,
,,,,,,,,,,,,0,4,4,4,1,fifth,14,27,F,R,IMT,2021-07-11_18h58.09.260,ImageRatingTask_S4,2021.1.4,MacIntel,59.94125757,,,,,,,,,
,,,,,,,,,,,,0,5,5,5,1,sixth,14,27,F,R,IMT,2021-07-11_18h58.09.260,ImageRatingTask_S4,2021.1.4,MacIntel,59.94125757,,,,,,,,,
,,,,,,,,,,,,0,6,6,6,1,seventh,14,27,F,R,IMT,2021-07-11_18h58.09.260,ImageRatingTask_S4,2021.1.4,MacIntel,59.94125757,,,,,,,,,
,,,,,,,,,,,,0,7,7,7,1,last,14,27,F,R,IMT,2021-07-11_18h58.09.260,ImageRatingTask_S4,2021.1.4,MacIntel,59.94125757,,,,,,,,,
,,,,,,,,,,,,,,,,,,14,27,F,R,IMT,2021-07-11_18h58.09.260,ImageRatingTask_S4,2021.1.4,MacIntel,59.94125757,0,37,37,28,1,DreamStudyImages_rs1000x750g/Vehicles/Objects_284_h.jpg,,,
,,5,1.548,1,0.4512,2,1.2499,1,1.2023,7,0.9783,0,0,0,0,1,main,14,27,F,R,IMT,2021-07-11_18h58.09.260,ImageRatingTask_S4,2021.1.4,MacIntel,59.94125757,,,,,,,,,
,,,,,,,,,,,,0,1,1,1,1,second,14,27,F,R,IMT,2021-07-11_18h58.09.260,ImageRatingTask_S4,2021.1.4,MacIntel,59.94125757,,,,,,,,,
,,,,,,,,,,,,0,2,2,2,1,third,14,27,F,R,IMT,2021-07-11_18h58.09.260,ImageRatingTask_S4,2021.1.4,MacIntel,59.94125757,,,,,,,,,
,,,,,,,,,,,,0,3,3,3,1,fourth,14,27,F,R,IMT,2021-07-11_18h58.09.260,ImageRatingTask_S4,2021.1.4,MacIntel,59.94125757,,,,,,,,,
,,,,,,,,,,,,0,4,4,4,1,fifth,14,27,F,R,IMT,2021-07-11_18h58.09.260,ImageRatingTask_S4,2021.1.4,MacIntel,59.94125757,,,,,,,,,
,,,,,,,,,,,,0,5,5,5,1,sixth,14,27,F,R,IMT,2021-07-11_18h58.09.260,ImageRatingTask_S4,2021.1.4,MacIntel,59.94125757,,,,,,,,,
,,,,,,,,,,,,0,6,6,6,1,seventh,14,27,F,R,IMT,2021-07-11_18h58.09.260,ImageRatingTask_S4,2021.1.4,MacIntel,59.94125757,,,,,,,,,
,,,,,,,,,,,,0,7,7,7,1,last,14,27,F,R,IMT,2021-07-11_18h58.09.260,ImageRatingTask_S4,2021.1.4,MacIntel,59.94125757,,,,,,,,,
,,,,,,,,,,,,,,,,,,14,27,F,R,IMT,2021-07-11_18h58.09.260,ImageRatingTask_S4,2021.1.4,MacIntel,59.94125757,0,38,38,144,1,DreamStudyImages_rs1000x750g/Vehicles/Objects_301_h.jpg,,,
,,2,4.8525,3,0.6274,6,1.6939,1,1.4586,8,1.1956,0,0,0,0,1,main,14,27,F,R,IMT,2021-07-11_18h58.09.260,ImageRatingTask_S4,2021.1.4,MacIntel,59.94125757,,,,,,,,,
,,,,,,,,,,,,0,1,1,1,1,second,14,27,F,R,IMT,2021-07-11_18h58.09.260,ImageRatingTask_S4,2021.1.4,MacIntel,59.94125757,,,,,,,,,
,,,,,,,,,,,,0,2,2,2,1,third,14,27,F,R,IMT,2021-07-11_18h58.09.260,ImageRatingTask_S4,2021.1.4,MacIntel,59.94125757,,,,,,,,,
,,,,,,,,,,,,0,3,3,3,1,fourth,14,27,F,R,IMT,2021-07-11_18h58.09.260,ImageRatingTask_S4,2021.1.4,MacIntel,59.94125757,,,,,,,,,
,,,,,,,,,,,,0,4,4,4,1,fifth,14,27,F,R,IMT,2021-07-11_18h58.09.260,ImageRatingTask_S4,2021.1.4,MacIntel,59.94125757,,,,,,,,,
,,,,,,,,,,,,0,5,5,5,1,sixth,14,27,F,R,IMT,2021-07-11_18h58.09.260,ImageRatingTask_S4,2021.1.4,MacIntel,59.94125757,,,,,,,,,
,,,,,,,,,,,,0,6,6,6,1,seventh,14,27,F,R,IMT,2021-07-11_18h58.09.260,ImageRatingTask_S4,2021.1.4,MacIntel,59.94125757,,,,,,,,,
,,,,,,,,,,,,0,7,7,7,1,last,14,27,F,R,IMT,2021-07-11_18h58.09.260,ImageRatingTask_S4,2021.1.4,MacIntel,59.94125757,,,,,,,,,
,,,,,,,,,,,,,,,,,,14,27,F,R,IMT,2021-07-11_18h58.09.260,ImageRatingTask_S4,2021.1.4,MacIntel,59.94125757,0,39,39,83,1,DreamStudyImages_rs1000x750g/Water/Landscapes_004_h.jpg,,,
,,6,2.4898,1,0.773,7,1.5468,1,0.8134,8,1.0201,0,0,0,0,1,main,14,27,F,R,IMT,2021-07-11_18h58.09.260,ImageRatingTask_S4,2021.1.4,MacIntel,59.94125757,,,,,,,,,
,,,,,,,,,,,,0,1,1,1,1,second,14,27,F,R,IMT,2021-07-11_18h58.09.260,ImageRatingTask_S4,2021.1.4,MacIntel,59.94125757,,,,,,,,,
,,,,,,,,,,,,0,2,2,2,1,third,14,27,F,R,IMT,2021-07-11_18h58.09.260,ImageRatingTask_S4,2021.1.4,MacIntel,59.94125757,,,,,,,,,
,,,,,,,,,,,,0,3,3,3,1,fourth,14,27,F,R,IMT,2021-07-11_18h58.09.260,ImageRatingTask_S4,2021.1.4,MacIntel,59.94125757,,,,,,,,,
,,,,,,,,,,,,0,4,4,4,1,fifth,14,27,F,R,IMT,2021-07-11_18h58.09.260,ImageRatingTask_S4,2021.1.4,MacIntel,59.94125757,,,,,,,,,
,,,,,,,,,,,,0,5,5,5,1,sixth,14,27,F,R,IMT,2021-07-11_18h58.09.260,ImageRatingTask_S4,2021.1.4,MacIntel,59.94125757,,,,,,,,,
,,,,,,,,,,,,0,6,6,6,1,seventh,14,27,F,R,IMT,2021-07-11_18h58.09.260,ImageRatingTask_S4,2021.1.4,MacIntel,59.94125757,,,,,,,,,
,,,,,,,,,,,,0,7,7,7,1,last,14,27,F,R,IMT,2021-07-11_18h58.09.260,ImageRatingTask_S4,2021.1.4,MacIntel,59.94125757,,,,,,,,,
,,,,,,,,,,,,,,,,,,14,27,F,R,IMT,2021-07-11_18h58.09.260,ImageRatingTask_S4,2021.1.4,MacIntel,59.94125757,0,40,40,46,1,DreamStudyImages_rs1000x750g/Water/lakepontoon2.jpg,,,
,,6,8.3878,1,1.9624,5,1.8185,1,1.0968,6,0.7059,0,0,0,0,1,main,14,27,F,R,IMT,2021-07-11_18h58.09.260,ImageRatingTask_S4,2021.1.4,MacIntel,59.94125757,,,,,,,,,
,,,,,,,,,,,,0,1,1,1,1,second,14,27,F,R,IMT,2021-07-11_18h58.09.260,ImageRatingTask_S4,2021.1.4,MacIntel,59.94125757,,,,,,,,,
,,,,,,,,,,,,0,2,2,2,1,third,14,27,F,R,IMT,2021-07-11_18h58.09.260,ImageRatingTask_S4,2021.1.4,MacIntel,59.94125757,,,,,,,,,
,,,,,,,,,,,,0,3,3,3,1,fourth,14,27,F,R,IMT,2021-07-11_18h58.09.260,ImageRatingTask_S4,2021.1.4,MacIntel,59.94125757,,,,,,,,,
,,,,,,,,,,,,0,4,4,4,1,fifth,14,27,F,R,IMT,2021-07-11_18h58.09.260,ImageRatingTask_S4,2021.1.4,MacIntel,59.94125757,,,,,,,,,
,,,,,,,,,,,,0,5,5,5,1,sixth,14,27,F,R,IMT,2021-07-11_18h58.09.260,ImageRatingTask_S4,2021.1.4,MacIntel,59.94125757,,,,,,,,,
,,,,,,,,,,,,0,6,6,6,1,seventh,14,27,F,R,IMT,2021-07-11_18h58.09.260,ImageRatingTask_S4,2021.1.4,MacIntel,59.94125757,,,,,,,,,
,,,,,,,,,,,,0,7,7,7,1,last,14,27,F,R,IMT,2021-07-11_18h58.09.260,ImageRatingTask_S4,2021.1.4,MacIntel,59.94125757,,,,,,,,,
,,,,,,,,,,,,,,,,,,14,27,F,R,IMT,2021-07-11_18h58.09.260,ImageRatingTask_S4,2021.1.4,MacIntel,59.94125757,0,41,41,92,1,DreamStudyImages_rs1000x750g/Houses/Landscapes_018_h_CROPPED.jpg,,,
,,4,2.5232,2,2.0896,7,2.7496,1,0.7719,6,0.9079,0,0,0,0,1,main,14,27,F,R,IMT,2021-07-11_18h58.09.260,ImageRatingTask_S4,2021.1.4,MacIntel,59.94125757,,,,,,,,,
,,,,,,,,,,,,0,1,1,1,1,second,14,27,F,R,IMT,2021-07-11_18h58.09.260,ImageRatingTask_S4,2021.1.4,MacIntel,59.94125757,,,,,,,,,
,,,,,,,,,,,,0,2,2,2,1,third,14,27,F,R,IMT,2021-07-11_18h58.09.260,ImageRatingTask_S4,2021.1.4,MacIntel,59.94125757,,,,,,,,,
,,,,,,,,,,,,0,3,3,3,1,fourth,14,27,F,R,IMT,2021-07-11_18h58.09.260,ImageRatingTask_S4,2021.1.4,MacIntel,59.94125757,,,,,,,,,
,,,,,,,,,,,,0,4,4,4,1,fifth,14,27,F,R,IMT,2021-07-11_18h58.09.260,ImageRatingTask_S4,2021.1.4,MacIntel,59.94125757,,,,,,,,,
,,,,,,,,,,,,0,5,5,5,1,sixth,14,27,F,R,IMT,2021-07-11_18h58.09.260,ImageRatingTask_S4,2021.1.4,MacIntel,59.94125757,,,,,,,,,
,,,,,,,,,,,,0,6,6,6,1,seventh,14,27,F,R,IMT,2021-07-11_18h58.09.260,ImageRatingTask_S4,2021.1.4,MacIntel,59.94125757,,,,,,,,,
,,,,,,,,,,,,0,7,7,7,1,last,14,27,F,R,IMT,2021-07-11_18h58.09.260,ImageRatingTask_S4,2021.1.4,MacIntel,59.94125757,,,,,,,,,
,,,,,,,,,,,,,,,,,,14,27,F,R,IMT,2021-07-11_18h58.09.260,ImageRatingTask_S4,2021.1.4,MacIntel,59.94125757,0,42,42,104,1,DreamStudyImages_rs1000x750g/Houses/Landscapes_025_h.jpg,,,
,,3,5.4818,4,2.3569,2,1.6611,1,1.7227,3,1.0667,0,0,0,0,1,main,14,27,F,R,IMT,2021-07-11_18h58.09.260,ImageRatingTask_S4,2021.1.4,MacIntel,59.94125757,,,,,,,,,
,,,,,,,,,,,,0,1,1,1,1,second,14,27,F,R,IMT,2021-07-11_18h58.09.260,ImageRatingTask_S4,2021.1.4,MacIntel,59.94125757,,,,,,,,,
,,,,,,,,,,,,0,2,2,2,1,third,14,27,F,R,IMT,2021-07-11_18h58.09.260,ImageRatingTask_S4,2021.1.4,MacIntel,59.94125757,,,,,,,,,
,,,,,,,,,,,,0,3,3,3,1,fourth,14,27,F,R,IMT,2021-07-11_18h58.09.260,ImageRatingTask_S4,2021.1.4,MacIntel,59.94125757,,,,,,,,,
,,,,,,,,,,,,0,4,4,4,1,fifth,14,27,F,R,IMT,2021-07-11_18h58.09.260,ImageRatingTask_S4,2021.1.4,MacIntel,59.94125757,,,,,,,,,
,,,,,,,,,,,,0,5,5,5,1,sixth,14,27,F,R,IMT,2021-07-11_18h58.09.260,ImageRatingTask_S4,2021.1.4,MacIntel,59.94125757,,,,,,,,,
,,,,,,,,,,,,0,6,6,6,1,seventh,14,27,F,R,IMT,2021-07-11_18h58.09.260,ImageRatingTask_S4,2021.1.4,MacIntel,59.94125757,,,,,,,,,
,,,,,,,,,,,,0,7,7,7,1,last,14,27,F,R,IMT,2021-07-11_18h58.09.260,ImageRatingTask_S4,2021.1.4,MacIntel,59.94125757,,,,,,,,,
,,,,,,,,,,,,,,,,,,14,27,F,R,IMT,2021-07-11_18h58.09.260,ImageRatingTask_S4,2021.1.4,MacIntel,59.94125757,0,43,43,72,1,DreamStudyImages_rs1000x750g/Mammals/Gorrila 1.jpg,,,
,,4,2.6024,2,1.8188,6,1.644,1,1.2105,6,0.923,0,0,0,0,1,main,14,27,F,R,IMT,2021-07-11_18h58.09.260,ImageRatingTask_S4,2021.1.4,MacIntel,59.94125757,,,,,,,,,
,,,,,,,,,,,,0,1,1,1,1,second,14,27,F,R,IMT,2021-07-11_18h58.09.260,ImageRatingTask_S4,2021.1.4,MacIntel,59.94125757,,,,,,,,,
,,,,,,,,,,,,0,2,2,2,1,third,14,27,F,R,IMT,2021-07-11_18h58.09.260,ImageRatingTask_S4,2021.1.4,MacIntel,59.94125757,,,,,,,,,
,,,,,,,,,,,,0,3,3,3,1,fourth,14,27,F,R,IMT,2021-07-11_18h58.09.260,ImageRatingTask_S4,2021.1.4,MacIntel,59.94125757,,,,,,,,,
,,,,,,,,,,,,0,4,4,4,1,fifth,14,27,F,R,IMT,2021-07-11_18h58.09.260,ImageRatingTask_S4,2021.1.4,MacIntel,59.94125757,,,,,,,,,
,,,,,,,,,,,,0,5,5,5,1,sixth,14,27,F,R,IMT,2021-07-11_18h58.09.260,ImageRatingTask_S4,2021.1.4,MacIntel,59.94125757,,,,,,,,,
,,,,,,,,,,,,0,6,6,6,1,seventh,14,27,F,R,IMT,2021-07-11_18h58.09.260,ImageRatingTask_S4,2021.1.4,MacIntel,59.94125757,,,,,,,,,
,,,,,,,,,,,,0,7,7,7,1,last,14,27,F,R,IMT,2021-07-11_18h58.09.260,ImageRatingTask_S4,2021.1.4,MacIntel,59.94125757,,,,,,,,,
,,,,,,,,,,,,,,,,,,14,27,F,R,IMT,2021-07-11_18h58.09.260,ImageRatingTask_S4,2021.1.4,MacIntel,59.94125757,0,44,44,66,1,DreamStudyImages_rs1000x750g/Houses/Landscapes_003_v.jpg,,,
,,5,3.8254,1,0.4176,7,3.6779,1,0.7083,2,1.0473,0,0,0,0,1,main,14,27,F,R,IMT,2021-07-11_18h58.09.260,ImageRatingTask_S4,2021.1.4,MacIntel,59.94125757,,,,,,,,,
,,,,,,,,,,,,0,1,1,1,1,second,14,27,F,R,IMT,2021-07-11_18h58.09.260,ImageRatingTask_S4,2021.1.4,MacIntel,59.94125757,,,,,,,,,
,,,,,,,,,,,,0,2,2,2,1,third,14,27,F,R,IMT,2021-07-11_18h58.09.260,ImageRatingTask_S4,2021.1.4,MacIntel,59.94125757,,,,,,,,,
,,,,,,,,,,,,0,3,3,3,1,fourth,14,27,F,R,IMT,2021-07-11_18h58.09.260,ImageRatingTask_S4,2021.1.4,MacIntel,59.94125757,,,,,,,,,
,,,,,,,,,,,,0,4,4,4,1,fifth,14,27,F,R,IMT,2021-07-11_18h58.09.260,ImageRatingTask_S4,2021.1.4,MacIntel,59.94125757,,,,,,,,,
,,,,,,,,,,,,0,5,5,5,1,sixth,14,27,F,R,IMT,2021-07-11_18h58.09.260,ImageRatingTask_S4,2021.1.4,MacIntel,59.94125757,,,,,,,,,
,,,,,,,,,,,,0,6,6,6,1,seventh,14,27,F,R,IMT,2021-07-11_18h58.09.260,ImageRatingTask_S4,2021.1.4,MacIntel,59.94125757,,,,,,,,,
,,,,,,,,,,,,0,7,7,7,1,last,14,27,F,R,IMT,2021-07-11_18h58.09.260,ImageRatingTask_S4,2021.1.4,MacIntel,59.94125757,,,,,,,,,
,,,,,,,,,,,,,,,,,,14,27,F,R,IMT,2021-07-11_18h58.09.260,ImageRatingTask_S4,2021.1.4,MacIntel,59.94125757,0,45,45,63,1,DreamStudyImages_rs1000x750g/Children/Faces_077_v.jpg,,,
,,5,3.8134,1,0.407,7,2.6449,1,1.1899,6,1.0741,0,0,0,0,1,main,14,27,F,R,IMT,2021-07-11_18h58.09.260,ImageRatingTask_S4,2021.1.4,MacIntel,59.94125757,,,,,,,,,
,,,,,,,,,,,,0,1,1,1,1,second,14,27,F,R,IMT,2021-07-11_18h58.09.260,ImageRatingTask_S4,2021.1.4,MacIntel,59.94125757,,,,,,,,,
,,,,,,,,,,,,0,2,2,2,1,third,14,27,F,R,IMT,2021-07-11_18h58.09.260,ImageRatingTask_S4,2021.1.4,MacIntel,59.94125757,,,,,,,,,
,,,,,,,,,,,,0,3,3,3,1,fourth,14,27,F,R,IMT,2021-07-11_18h58.09.260,ImageRatingTask_S4,2021.1.4,MacIntel,59.94125757,,,,,,,,,
,,,,,,,,,,,,0,4,4,4,1,fifth,14,27,F,R,IMT,2021-07-11_18h58.09.260,ImageRatingTask_S4,2021.1.4,MacIntel,59.94125757,,,,,,,,,
,,,,,,,,,,,,0,5,5,5,1,sixth,14,27,F,R,IMT,2021-07-11_18h58.09.260,ImageRatingTask_S4,2021.1.4,MacIntel,59.94125757,,,,,,,,,
,,,,,,,,,,,,0,6,6,6,1,seventh,14,27,F,R,IMT,2021-07-11_18h58.09.260,ImageRatingTask_S4,2021.1.4,MacIntel,59.94125757,,,,,,,,,
,,,,,,,,,,,,0,7,7,7,1,last,14,27,F,R,IMT,2021-07-11_18h58.09.260,ImageRatingTask_S4,2021.1.4,MacIntel,59.94125757,,,,,,,,,
,,,,,,,,,,,,,,,,,,14,27,F,R,IMT,2021-07-11_18h58.09.260,ImageRatingTask_S4,2021.1.4,MacIntel,59.94125757,0,46,46,11,1,DreamStudyImages_rs1000x750g/Houses/Landscapes_041_h.jpg,,,
,,5,4.0659,1,0.8611,4,1.3154,1,0.9797,8,0.8729,0,0,0,0,1,main,14,27,F,R,IMT,2021-07-11_18h58.09.260,ImageRatingTask_S4,2021.1.4,MacIntel,59.94125757,,,,,,,,,
,,,,,,,,,,,,0,1,1,1,1,second,14,27,F,R,IMT,2021-07-11_18h58.09.260,ImageRatingTask_S4,2021.1.4,MacIntel,59.94125757,,,,,,,,,
,,,,,,,,,,,,0,2,2,2,1,third,14,27,F,R,IMT,2021-07-11_18h58.09.260,ImageRatingTask_S4,2021.1.4,MacIntel,59.94125757,,,,,,,,,
,,,,,,,,,,,,0,3,3,3,1,fourth,14,27,F,R,IMT,2021-07-11_18h58.09.260,ImageRatingTask_S4,2021.1.4,MacIntel,59.94125757,,,,,,,,,
,,,,,,,,,,,,0,4,4,4,1,fifth,14,27,F,R,IMT,2021-07-11_18h58.09.260,ImageRatingTask_S4,2021.1.4,MacIntel,59.94125757,,,,,,,,,
,,,,,,,,,,,,0,5,5,5,1,sixth,14,27,F,R,IMT,2021-07-11_18h58.09.260,ImageRatingTask_S4,2021.1.4,MacIntel,59.94125757,,,,,,,,,
,,,,,,,,,,,,0,6,6,6,1,seventh,14,27,F,R,IMT,2021-07-11_18h58.09.260,ImageRatingTask_S4,2021.1.4,MacIntel,59.94125757,,,,,,,,,
,,,,,,,,,,,,0,7,7,7,1,last,14,27,F,R,IMT,2021-07-11_18h58.09.260,ImageRatingTask_S4,2021.1.4,MacIntel,59.94125757,,,,,,,,,
,,,,,,,,,,,,,,,,,,14,27,F,R,IMT,2021-07-11_18h58.09.260,ImageRatingTask_S4,2021.1.4,MacIntel,59.94125757,0,47,47,97,1,DreamStudyImages_rs1000x750g/Water/Landscapes_109_h.jpg,,,
,,5,7.6096,1,0.4836,7,1.2228,1,0.857,7,0.8479,0,0,0,0,1,main,14,27,F,R,IMT,2021-07-11_18h58.09.260,ImageRatingTask_S4,2021.1.4,MacIntel,59.94125757,,,,,,,,,
,,,,,,,,,,,,0,1,1,1,1,second,14,27,F,R,IMT,2021-07-11_18h58.09.260,ImageRatingTask_S4,2021.1.4,MacIntel,59.94125757,,,,,,,,,
,,,,,,,,,,,,0,2,2,2,1,third,14,27,F,R,IMT,2021-07-11_18h58.09.260,ImageRatingTask_S4,2021.1.4,MacIntel,59.94125757,,,,,,,,,
,,,,,,,,,,,,0,3,3,3,1,fourth,14,27,F,R,IMT,2021-07-11_18h58.09.260,ImageRatingTask_S4,2021.1.4,MacIntel,59.94125757,,,,,,,,,
,,,,,,,,,,,,0,4,4,4,1,fifth,14,27,F,R,IMT,2021-07-11_18h58.09.260,ImageRatingTask_S4,2021.1.4,MacIntel,59.94125757,,,,,,,,,
,,,,,,,,,,,,0,5,5,5,1,sixth,14,27,F,R,IMT,2021-07-11_18h58.09.260,ImageRatingTask_S4,2021.1.4,MacIntel,59.94125757,,,,,,,,,
,,,,,,,,,,,,0,6,6,6,1,seventh,14,27,F,R,IMT,2021-07-11_18h58.09.260,ImageRatingTask_S4,2021.1.4,MacIntel,59.94125757,,,,,,,,,
,,,,,,,,,,,,0,7,7,7,1,last,14,27,F,R,IMT,2021-07-11_18h58.09.260,ImageRatingTask_S4,2021.1.4,MacIntel,59.94125757,,,,,,,,,
,,,,,,,,,,,,,,,,,,14,27,F,R,IMT,2021-07-11_18h58.09.260,ImageRatingTask_S4,2021.1.4,MacIntel,59.94125757,0,48,48,136,1,DreamStudyImages_rs1000x750g/Vehicles/quad.jpg,,,
,,1,2.2632,5,2.2672,5,3.0205,1,4.1708,3,1.2726,0,0,0,0,1,main,14,27,F,R,IMT,2021-07-11_18h58.09.260,ImageRatingTask_S4,2021.1.4,MacIntel,59.94125757,,,,,,,,,
,,,,,,,,,,,,0,1,1,1,1,second,14,27,F,R,IMT,2021-07-11_18h58.09.260,ImageRatingTask_S4,2021.1.4,MacIntel,59.94125757,,,,,,,,,
,,,,,,,,,,,,0,2,2,2,1,third,14,27,F,R,IMT,2021-07-11_18h58.09.260,ImageRatingTask_S4,2021.1.4,MacIntel,59.94125757,,,,,,,,,
,,,,,,,,,,,,0,3,3,3,1,fourth,14,27,F,R,IMT,2021-07-11_18h58.09.260,ImageRatingTask_S4,2021.1.4,MacIntel,59.94125757,,,,,,,,,
,,,,,,,,,,,,0,4,4,4,1,fifth,14,27,F,R,IMT,2021-07-11_18h58.09.260,ImageRatingTask_S4,2021.1.4,MacIntel,59.94125757,,,,,,,,,
,,,,,,,,,,,,0,5,5,5,1,sixth,14,27,F,R,IMT,2021-07-11_18h58.09.260,ImageRatingTask_S4,2021.1.4,MacIntel,59.94125757,,,,,,,,,
,,,,,,,,,,,,0,6,6,6,1,seventh,14,27,F,R,IMT,2021-07-11_18h58.09.260,ImageRatingTask_S4,2021.1.4,MacIntel,59.94125757,,,,,,,,,
,,,,,,,,,,,,0,7,7,7,1,last,14,27,F,R,IMT,2021-07-11_18h58.09.260,ImageRatingTask_S4,2021.1.4,MacIntel,59.94125757,,,,,,,,,
,,,,,,,,,,,,,,,,,,14,27,F,R,IMT,2021-07-11_18h58.09.260,ImageRatingTask_S4,2021.1.4,MacIntel,59.94125757,0,49,49,148,1,DreamStudyImages_rs1000x750g/Mammals/Animals_013_h.jpg,,,
,,5,5.1762,1,0.5171,6,2.0623,1,0.951,5,0.8967,0,0,0,0,1,main,14,27,F,R,IMT,2021-07-11_18h58.09.260,ImageRatingTask_S4,2021.1.4,MacIntel,59.94125757,,,,,,,,,
,,,,,,,,,,,,0,1,1,1,1,second,14,27,F,R,IMT,2021-07-11_18h58.09.260,ImageRatingTask_S4,2021.1.4,MacIntel,59.94125757,,,,,,,,,
,,,,,,,,,,,,0,2,2,2,1,third,14,27,F,R,IMT,2021-07-11_18h58.09.260,ImageRatingTask_S4,2021.1.4,MacIntel,59.94125757,,,,,,,,,
,,,,,,,,,,,,0,3,3,3,1,fourth,14,27,F,R,IMT,2021-07-11_18h58.09.260,ImageRatingTask_S4,2021.1.4,MacIntel,59.94125757,,,,,,,,,
,,,,,,,,,,,,0,4,4,4,1,fifth,14,27,F,R,IMT,2021-07-11_18h58.09.260,ImageRatingTask_S4,2021.1.4,MacIntel,59.94125757,,,,,,,,,
,,,,,,,,,,,,0,5,5,5,1,sixth,14,27,F,R,IMT,2021-07-11_18h58.09.260,ImageRatingTask_S4,2021.1.4,MacIntel,59.94125757,,,,,,,,,
,,,,,,,,,,,,0,6,6,6,1,seventh,14,27,F,R,IMT,2021-07-11_18h58.09.260,ImageRatingTask_S4,2021.1.4,MacIntel,59.94125757,,,,,,,,,
,,,,,,,,,,,,0,7,7,7,1,last,14,27,F,R,IMT,2021-07-11_18h58.09.260,ImageRatingTask_S4,2021.1.4,MacIntel,59.94125757,,,,,,,,,
,,,,,,,,,,,,,,,,,,14,27,F,R,IMT,2021-07-11_18h58.09.260,ImageRatingTask_S4,2021.1.4,MacIntel,59.94125757,0,50,50,42,1,DreamStudyImages_rs1000x750g/Food/Objects_032_v.jpg,,,
,,6,4.5084,1,0.3481,5,2.1789,1,1.0606,2,0.9261,0,0,0,0,1,main,14,27,F,R,IMT,2021-07-11_18h58.09.260,ImageRatingTask_S4,2021.1.4,MacIntel,59.94125757,,,,,,,,,
,,,,,,,,,,,,0,1,1,1,1,second,14,27,F,R,IMT,2021-07-11_18h58.09.260,ImageRatingTask_S4,2021.1.4,MacIntel,59.94125757,,,,,,,,,
,,,,,,,,,,,,0,2,2,2,1,third,14,27,F,R,IMT,2021-07-11_18h58.09.260,ImageRatingTask_S4,2021.1.4,MacIntel,59.94125757,,,,,,,,,
,,,,,,,,,,,,0,3,3,3,1,fourth,14,27,F,R,IMT,2021-07-11_18h58.09.260,ImageRatingTask_S4,2021.1.4,MacIntel,59.94125757,,,,,,,,,
,,,,,,,,,,,,0,4,4,4,1,fifth,14,27,F,R,IMT,2021-07-11_18h58.09.260,ImageRatingTask_S4,2021.1.4,MacIntel,59.94125757,,,,,,,,,
,,,,,,,,,,,,0,5,5,5,1,sixth,14,27,F,R,IMT,2021-07-11_18h58.09.260,ImageRatingTask_S4,2021.1.4,MacIntel,59.94125757,,,,,,,,,
,,,,,,,,,,,,0,6,6,6,1,seventh,14,27,F,R,IMT,2021-07-11_18h58.09.260,ImageRatingTask_S4,2021.1.4,MacIntel,59.94125757,,,,,,,,,
,,,,,,,,,,,,0,7,7,7,1,last,14,27,F,R,IMT,2021-07-11_18h58.09.260,ImageRatingTask_S4,2021.1.4,MacIntel,59.94125757,,,,,,,,,
,,,,,,,,,,,,,,,,,,14,27,F,R,IMT,2021-07-11_18h58.09.260,ImageRatingTask_S4,2021.1.4,MacIntel,59.94125757,0,51,51,39,1,DreamStudyImages_rs1000x750g/Children/Sad face 5.jpg,,,
,,1,4.2587,6,1.3514,6,5.2981,1,1.0216,6,0.8654,0,0,0,0,1,main,14,27,F,R,IMT,2021-07-11_18h58.09.260,ImageRatingTask_S4,2021.1.4,MacIntel,59.94125757,,,,,,,,,
,,,,,,,,,,,,0,1,1,1,1,second,14,27,F,R,IMT,2021-07-11_18h58.09.260,ImageRatingTask_S4,2021.1.4,MacIntel,59.94125757,,,,,,,,,
,,,,,,,,,,,,0,2,2,2,1,third,14,27,F,R,IMT,2021-07-11_18h58.09.260,ImageRatingTask_S4,2021.1.4,MacIntel,59.94125757,,,,,,,,,
,,,,,,,,,,,,0,3,3,3,1,fourth,14,27,F,R,IMT,2021-07-11_18h58.09.260,ImageRatingTask_S4,2021.1.4,MacIntel,59.94125757,,,,,,,,,
,,,,,,,,,,,,0,4,4,4,1,fifth,14,27,F,R,IMT,2021-07-11_18h58.09.260,ImageRatingTask_S4,2021.1.4,MacIntel,59.94125757,,,,,,,,,
,,,,,,,,,,,,0,5,5,5,1,sixth,14,27,F,R,IMT,2021-07-11_18h58.09.260,ImageRatingTask_S4,2021.1.4,MacIntel,59.94125757,,,,,,,,,
,,,,,,,,,,,,0,6,6,6,1,seventh,14,27,F,R,IMT,2021-07-11_18h58.09.260,ImageRatingTask_S4,2021.1.4,MacIntel,59.94125757,,,,,,,,,
,,,,,,,,,,,,0,7,7,7,1,last,14,27,F,R,IMT,2021-07-11_18h58.09.260,ImageRatingTask_S4,2021.1.4,MacIntel,59.94125757,,,,,,,,,
,,,,,,,,,,,,,,,,,,14,27,F,R,IMT,2021-07-11_18h58.09.260,ImageRatingTask_S4,2021.1.4,MacIntel,59.94125757,0,52,52,126,1,DreamStudyImages_rs1000x750g/Houses/Landscapes_002_h.jpg,,,
,,5,4.8716,1,0.354,7,1.0935,1,2.4374,7,0.8529,0,0,0,0,1,main,14,27,F,R,IMT,2021-07-11_18h58.09.260,ImageRatingTask_S4,2021.1.4,MacIntel,59.94125757,,,,,,,,,
,,,,,,,,,,,,0,1,1,1,1,second,14,27,F,R,IMT,2021-07-11_18h58.09.260,ImageRatingTask_S4,2021.1.4,MacIntel,59.94125757,,,,,,,,,
,,,,,,,,,,,,0,2,2,2,1,third,14,27,F,R,IMT,2021-07-11_18h58.09.260,ImageRatingTask_S4,2021.1.4,MacIntel,59.94125757,,,,,,,,,
,,,,,,,,,,,,0,3,3,3,1,fourth,14,27,F,R,IMT,2021-07-11_18h58.09.260,ImageRatingTask_S4,2021.1.4,MacIntel,59.94125757,,,,,,,,,
,,,,,,,,,,,,0,4,4,4,1,fifth,14,27,F,R,IMT,2021-07-11_18h58.09.260,ImageRatingTask_S4,2021.1.4,MacIntel,59.94125757,,,,,,,,,
,,,,,,,,,,,,0,5,5,5,1,sixth,14,27,F,R,IMT,2021-07-11_18h58.09.260,ImageRatingTask_S4,2021.1.4,MacIntel,59.94125757,,,,,,,,,
,,,,,,,,,,,,0,6,6,6,1,seventh,14,27,F,R,IMT,2021-07-11_18h58.09.260,ImageRatingTask_S4,2021.1.4,MacIntel,59.94125757,,,,,,,,,
,,,,,,,,,,,,0,7,7,7,1,last,14,27,F,R,IMT,2021-07-11_18h58.09.260,ImageRatingTask_S4,2021.1.4,MacIntel,59.94125757,,,,,,,,,
,,,,,,,,,,,,,,,,,,14,27,F,R,IMT,2021-07-11_18h58.09.260,ImageRatingTask_S4,2021.1.4,MacIntel,59.94125757,0,53,53,12,1,DreamStudyImages_rs1000x750g/Vehicles/toytruck.jpg,,,
,,5,1.6945,1,0.3802,7,1.1778,1,0.7323,2,0.6718,0,0,0,0,1,main,14,27,F,R,IMT,2021-07-11_18h58.09.260,ImageRatingTask_S4,2021.1.4,MacIntel,59.94125757,,,,,,,,,
,,,,,,,,,,,,0,1,1,1,1,second,14,27,F,R,IMT,2021-07-11_18h58.09.260,ImageRatingTask_S4,2021.1.4,MacIntel,59.94125757,,,,,,,,,
,,,,,,,,,,,,0,2,2,2,1,third,14,27,F,R,IMT,2021-07-11_18h58.09.260,ImageRatingTask_S4,2021.1.4,MacIntel,59.94125757,,,,,,,,,
,,,,,,,,,,,,0,3,3,3,1,fourth,14,27,F,R,IMT,2021-07-11_18h58.09.260,ImageRatingTask_S4,2021.1.4,MacIntel,59.94125757,,,,,,,,,
,,,,,,,,,,,,0,4,4,4,1,fifth,14,27,F,R,IMT,2021-07-11_18h58.09.260,ImageRatingTask_S4,2021.1.4,MacIntel,59.94125757,,,,,,,,,
,,,,,,,,,,,,0,5,5,5,1,sixth,14,27,F,R,IMT,2021-07-11_18h58.09.260,ImageRatingTask_S4,2021.1.4,MacIntel,59.94125757,,,,,,,,,
,,,,,,,,,,,,0,6,6,6,1,seventh,14,27,F,R,IMT,2021-07-11_18h58.09.260,ImageRatingTask_S4,2021.1.4,MacIntel,59.94125757,,,,,,,,,
,,,,,,,,,,,,0,7,7,7,1,last,14,27,F,R,IMT,2021-07-11_18h58.09.260,ImageRatingTask_S4,2021.1.4,MacIntel,59.94125757,,,,,,,,,
,,,,,,,,,,,,,,,,,,14,27,F,R,IMT,2021-07-11_18h58.09.260,ImageRatingTask_S4,2021.1.4,MacIntel,59.94125757,0,54,54,32,1,DreamStudyImages_rs1000x750g/Children/Faces_057_h.jpg,,,
,,5,2.0554,1,0.3406,7,0.7215,1,0.9957,7,0.6573,0,0,0,0,1,main,14,27,F,R,IMT,2021-07-11_18h58.09.260,ImageRatingTask_S4,2021.1.4,MacIntel,59.94125757,,,,,,,,,
,,,,,,,,,,,,0,1,1,1,1,second,14,27,F,R,IMT,2021-07-11_18h58.09.260,ImageRatingTask_S4,2021.1.4,MacIntel,59.94125757,,,,,,,,,
,,,,,,,,,,,,0,2,2,2,1,third,14,27,F,R,IMT,2021-07-11_18h58.09.260,ImageRatingTask_S4,2021.1.4,MacIntel,59.94125757,,,,,,,,,
,,,,,,,,,,,,0,3,3,3,1,fourth,14,27,F,R,IMT,2021-07-11_18h58.09.260,ImageRatingTask_S4,2021.1.4,MacIntel,59.94125757,,,,,,,,,
,,,,,,,,,,,,0,4,4,4,1,fifth,14,27,F,R,IMT,2021-07-11_18h58.09.260,ImageRatingTask_S4,2021.1.4,MacIntel,59.94125757,,,,,,,,,
,,,,,,,,,,,,0,5,5,5,1,sixth,14,27,F,R,IMT,2021-07-11_18h58.09.260,ImageRatingTask_S4,2021.1.4,MacIntel,59.94125757,,,,,,,,,
,,,,,,,,,,,,0,6,6,6,1,seventh,14,27,F,R,IMT,2021-07-11_18h58.09.260,ImageRatingTask_S4,2021.1.4,MacIntel,59.94125757,,,,,,,,,
,,,,,,,,,,,,0,7,7,7,1,last,14,27,F,R,IMT,2021-07-11_18h58.09.260,ImageRatingTask_S4,2021.1.4,MacIntel,59.94125757,,,,,,,,,
,,,,,,,,,,,,,,,,,,14,27,F,R,IMT,2021-07-11_18h58.09.260,ImageRatingTask_S4,2021.1.4,MacIntel,59.94125757,0,55,55,99,1,DreamStudyImages_rs1000x750g/Vehicles/retrolocomotive.jpg,,,
,,6,3.6101,2,2.0969,4,2.005,1,0.7808,3,1.5197,0,0,0,0,1,main,14,27,F,R,IMT,2021-07-11_18h58.09.260,ImageRatingTask_S4,2021.1.4,MacIntel,59.94125757,,,,,,,,,
,,,,,,,,,,,,0,1,1,1,1,second,14,27,F,R,IMT,2021-07-11_18h58.09.260,ImageRatingTask_S4,2021.1.4,MacIntel,59.94125757,,,,,,,,,
,,,,,,,,,,,,0,2,2,2,1,third,14,27,F,R,IMT,2021-07-11_18h58.09.260,ImageRatingTask_S4,2021.1.4,MacIntel,59.94125757,,,,,,,,,
,,,,,,,,,,,,0,3,3,3,1,fourth,14,27,F,R,IMT,2021-07-11_18h58.09.260,ImageRatingTask_S4,2021.1.4,MacIntel,59.94125757,,,,,,,,,
,,,,,,,,,,,,0,4,4,4,1,fifth,14,27,F,R,IMT,2021-07-11_18h58.09.260,ImageRatingTask_S4,2021.1.4,MacIntel,59.94125757,,,,,,,,,
,,,,,,,,,,,,0,5,5,5,1,sixth,14,27,F,R,IMT,2021-07-11_18h58.09.260,ImageRatingTask_S4,2021.1.4,MacIntel,59.94125757,,,,,,,,,
,,,,,,,,,,,,0,6,6,6,1,seventh,14,27,F,R,IMT,2021-07-11_18h58.09.260,ImageRatingTask_S4,2021.1.4,MacIntel,59.94125757,,,,,,,,,
,,,,,,,,,,,,0,7,7,7,1,last,14,27,F,R,IMT,2021-07-11_18h58.09.260,ImageRatingTask_S4,2021.1.4,MacIntel,59.94125757,,,,,,,,,
,,,,,,,,,,,,,,,,,,14,27,F,R,IMT,2021-07-11_18h58.09.260,ImageRatingTask_S4,2021.1.4,MacIntel,59.94125757,0,56,56,127,1,DreamStudyImages_rs1000x750g/Mammals/Animals_117_h.jpg,,,
,,6,11.3038,1,2.871,7,2.4499,1,0.8105,2,0.5568,0,0,0,0,1,main,14,27,F,R,IMT,2021-07-11_18h58.09.260,ImageRatingTask_S4,2021.1.4,MacIntel,59.94125757,,,,,,,,,
,,,,,,,,,,,,0,1,1,1,1,second,14,27,F,R,IMT,2021-07-11_18h58.09.260,ImageRatingTask_S4,2021.1.4,MacIntel,59.94125757,,,,,,,,,
,,,,,,,,,,,,0,2,2,2,1,third,14,27,F,R,IMT,2021-07-11_18h58.09.260,ImageRatingTask_S4,2021.1.4,MacIntel,59.94125757,,,,,,,,,
,,,,,,,,,,,,0,3,3,3,1,fourth,14,27,F,R,IMT,2021-07-11_18h58.09.260,ImageRatingTask_S4,2021.1.4,MacIntel,59.94125757,,,,,,,,,
,,,,,,,,,,,,0,4,4,4,1,fifth,14,27,F,R,IMT,2021-07-11_18h58.09.260,ImageRatingTask_S4,2021.1.4,MacIntel,59.94125757,,,,,,,,,
,,,,,,,,,,,,0,5,5,5,1,sixth,14,27,F,R,IMT,2021-07-11_18h58.09.260,ImageRatingTask_S4,2021.1.4,MacIntel,59.94125757,,,,,,,,,
,,,,,,,,,,,,0,6,6,6,1,seventh,14,27,F,R,IMT,2021-07-11_18h58.09.260,ImageRatingTask_S4,2021.1.4,MacIntel,59.94125757,,,,,,,,,
,,,,,,,,,,,,0,7,7,7,1,last,14,27,F,R,IMT,2021-07-11_18h58.09.260,ImageRatingTask_S4,2021.1.4,MacIntel,59.94125757,,,,,,,,,
,,,,,,,,,,,,,,,,,,14,27,F,R,IMT,2021-07-11_18h58.09.260,ImageRatingTask_S4,2021.1.4,MacIntel,59.94125757,0,57,57,128,1,DreamStudyImages_rs1000x750g/Children/Faces_119_v.jpg,,,
,,6,2.6181,2,0.9025,3,1.2452,1,0.8959,2,1.0323,0,0,0,0,1,main,14,27,F,R,IMT,2021-07-11_18h58.09.260,ImageRatingTask_S4,2021.1.4,MacIntel,59.94125757,,,,,,,,,
,,,,,,,,,,,,0,1,1,1,1,second,14,27,F,R,IMT,2021-07-11_18h58.09.260,ImageRatingTask_S4,2021.1.4,MacIntel,59.94125757,,,,,,,,,
,,,,,,,,,,,,0,2,2,2,1,third,14,27,F,R,IMT,2021-07-11_18h58.09.260,ImageRatingTask_S4,2021.1.4,MacIntel,59.94125757,,,,,,,,,
,,,,,,,,,,,,0,3,3,3,1,fourth,14,27,F,R,IMT,2021-07-11_18h58.09.260,ImageRatingTask_S4,2021.1.4,MacIntel,59.94125757,,,,,,,,,
,,,,,,,,,,,,0,4,4,4,1,fifth,14,27,F,R,IMT,2021-07-11_18h58.09.260,ImageRatingTask_S4,2021.1.4,MacIntel,59.94125757,,,,,,,,,
,,,,,,,,,,,,0,5,5,5,1,sixth,14,27,F,R,IMT,2021-07-11_18h58.09.260,ImageRatingTask_S4,2021.1.4,MacIntel,59.94125757,,,,,,,,,
,,,,,,,,,,,,0,6,6,6,1,seventh,14,27,F,R,IMT,2021-07-11_18h58.09.260,ImageRatingTask_S4,2021.1.4,MacIntel,59.94125757,,,,,,,,,
,,,,,,,,,,,,0,7,7,7,1,last,14,27,F,R,IMT,2021-07-11_18h58.09.260,ImageRatingTask_S4,2021.1.4,MacIntel,59.94125757,,,,,,,,,
,,,,,,,,,,,,,,,,,,14,27,F,R,IMT,2021-07-11_18h58.09.260,ImageRatingTask_S4,2021.1.4,MacIntel,59.94125757,0,58,58,10,1,DreamStudyImages_rs1000x750g/Children/IAPS2050_baby3.jpg,,,
,,9,2.2498,3,2.1826,7,2.0335,1,0.9366,3,0.9487,0,0,0,0,1,main,14,27,F,R,IMT,2021-07-11_18h58.09.260,ImageRatingTask_S4,2021.1.4,MacIntel,59.94125757,,,,,,,,,
,,,,,,,,,,,,0,1,1,1,1,second,14,27,F,R,IMT,2021-07-11_18h58.09.260,ImageRatingTask_S4,2021.1.4,MacIntel,59.94125757,,,,,,,,,
,,,,,,,,,,,,0,2,2,2,1,third,14,27,F,R,IMT,2021-07-11_18h58.09.260,ImageRatingTask_S4,2021.1.4,MacIntel,59.94125757,,,,,,,,,
,,,,,,,,,,,,0,3,3,3,1,fourth,14,27,F,R,IMT,2021-07-11_18h58.09.260,ImageRatingTask_S4,2021.1.4,MacIntel,59.94125757,,,,,,,,,
,,,,,,,,,,,,0,4,4,4,1,fifth,14,27,F,R,IMT,2021-07-11_18h58.09.260,ImageRatingTask_S4,2021.1.4,MacIntel,59.94125757,,,,,,,,,
,,,,,,,,,,,,0,5,5,5,1,sixth,14,27,F,R,IMT,2021-07-11_18h58.09.260,ImageRatingTask_S4,2021.1.4,MacIntel,59.94125757,,,,,,,,,
,,,,,,,,,,,,0,6,6,6,1,seventh,14,27,F,R,IMT,2021-07-11_18h58.09.260,ImageRatingTask_S4,2021.1.4,MacIntel,59.94125757,,,,,,,,,
,,,,,,,,,,,,0,7,7,7,1,last,14,27,F,R,IMT,2021-07-11_18h58.09.260,ImageRatingTask_S4,2021.1.4,MacIntel,59.94125757,,,,,,,,,
,,,,,,,,,,,,,,,,,,14,27,F,R,IMT,2021-07-11_18h58.09.260,ImageRatingTask_S4,2021.1.4,MacIntel,59.94125757,0,59,59,89,1,DreamStudyImages_rs1000x750g/Mammals/Chipmunk 3.jpg,,,
,,5,25.3467,1,0.4447,5,1.6437,1,2.9163,7,0.8733,0,0,0,0,1,main,14,27,F,R,IMT,2021-07-11_18h58.09.260,ImageRatingTask_S4,2021.1.4,MacIntel,59.94125757,,,,,,,,,
,,,,,,,,,,,,0,1,1,1,1,second,14,27,F,R,IMT,2021-07-11_18h58.09.260,ImageRatingTask_S4,2021.1.4,MacIntel,59.94125757,,,,,,,,,
,,,,,,,,,,,,0,2,2,2,1,third,14,27,F,R,IMT,2021-07-11_18h58.09.260,ImageRatingTask_S4,2021.1.4,MacIntel,59.94125757,,,,,,,,,
,,,,,,,,,,,,0,3,3,3,1,fourth,14,27,F,R,IMT,2021-07-11_18h58.09.260,ImageRatingTask_S4,2021.1.4,MacIntel,59.94125757,,,,,,,,,
,,,,,,,,,,,,0,4,4,4,1,fifth,14,27,F,R,IMT,2021-07-11_18h58.09.260,ImageRatingTask_S4,2021.1.4,MacIntel,59.94125757,,,,,,,,,
,,,,,,,,,,,,0,5,5,5,1,sixth,14,27,F,R,IMT,2021-07-11_18h58.09.260,ImageRatingTask_S4,2021.1.4,MacIntel,59.94125757,,,,,,,,,
,,,,,,,,,,,,0,6,6,6,1,seventh,14,27,F,R,IMT,2021-07-11_18h58.09.260,ImageRatingTask_S4,2021.1.4,MacIntel,59.94125757,,,,,,,,,
,,,,,,,,,,,,0,7,7,7,1,last,14,27,F,R,IMT,2021-07-11_18h58.09.260,ImageRatingTask_S4,2021.1.4,MacIntel,59.94125757,,,,,,,,,
,,,,,,,,,,,,,,,,,,14,27,F,R,IMT,2021-07-11_18h58.09.260,ImageRatingTask_S4,2021.1.4,MacIntel,59.94125757,0,60,60,154,1,DreamStudyImages_rs1000x750g/Vehicles/Objects_308_h.jpg,,,
,,5,5.2314,1,1.3134,8,31.2233,1,0.7816,5,0.8683,0,0,0,0,1,main,14,27,F,R,IMT,2021-07-11_18h58.09.260,ImageRatingTask_S4,2021.1.4,MacIntel,59.94125757,,,,,,,,,
,,,,,,,,,,,,0,1,1,1,1,second,14,27,F,R,IMT,2021-07-11_18h58.09.260,ImageRatingTask_S4,2021.1.4,MacIntel,59.94125757,,,,,,,,,
,,,,,,,,,,,,0,2,2,2,1,third,14,27,F,R,IMT,2021-07-11_18h58.09.260,ImageRatingTask_S4,2021.1.4,MacIntel,59.94125757,,,,,,,,,
,,,,,,,,,,,,0,3,3,3,1,fourth,14,27,F,R,IMT,2021-07-11_18h58.09.260,ImageRatingTask_S4,2021.1.4,MacIntel,59.94125757,,,,,,,,,
,,,,,,,,,,,,0,4,4,4,1,fifth,14,27,F,R,IMT,2021-07-11_18h58.09.260,ImageRatingTask_S4,2021.1.4,MacIntel,59.94125757,,,,,,,,,
,,,,,,,,,,,,0,5,5,5,1,sixth,14,27,F,R,IMT,2021-07-11_18h58.09.260,ImageRatingTask_S4,2021.1.4,MacIntel,59.94125757,,,,,,,,,
,,,,,,,,,,,,0,6,6,6,1,seventh,14,27,F,R,IMT,2021-07-11_18h58.09.260,ImageRatingTask_S4,2021.1.4,MacIntel,59.94125757,,,,,,,,,
,,,,,,,,,,,,0,7,7,7,1,last,14,27,F,R,IMT,2021-07-11_18h58.09.260,ImageRatingTask_S4,2021.1.4,MacIntel,59.94125757,,,,,,,,,
,,,,,,,,,,,,,,,,,,14,27,F,R,IMT,2021-07-11_18h58.09.260,ImageRatingTask_S4,2021.1.4,MacIntel,59.94125757,0,61,61,116,1,DreamStudyImages_rs1000x750g/Food/Objects_078_h.jpg,,,
,,6,13.3794,2,4.4358,7,1.8278,1,0.6218,2,0.44,0,0,0,0,1,main,14,27,F,R,IMT,2021-07-11_18h58.09.260,ImageRatingTask_S4,2021.1.4,MacIntel,59.94125757,,,,,,,,,
,,,,,,,,,,,,0,1,1,1,1,second,14,27,F,R,IMT,2021-07-11_18h58.09.260,ImageRatingTask_S4,2021.1.4,MacIntel,59.94125757,,,,,,,,,
,,,,,,,,,,,,0,2,2,2,1,third,14,27,F,R,IMT,2021-07-11_18h58.09.260,ImageRatingTask_S4,2021.1.4,MacIntel,59.94125757,,,,,,,,,
,,,,,,,,,,,,0,3,3,3,1,fourth,14,27,F,R,IMT,2021-07-11_18h58.09.260,ImageRatingTask_S4,2021.1.4,MacIntel,59.94125757,,,,,,,,,
,,,,,,,,,,,,0,4,4,4,1,fifth,14,27,F,R,IMT,2021-07-11_18h58.09.260,ImageRatingTask_S4,2021.1.4,MacIntel,59.94125757,,,,,,,,,
,,,,,,,,,,,,0,5,5,5,1,sixth,14,27,F,R,IMT,2021-07-11_18h58.09.260,ImageRatingTask_S4,2021.1.4,MacIntel,59.94125757,,,,,,,,,
,,,,,,,,,,,,0,6,6,6,1,seventh,14,27,F,R,IMT,2021-07-11_18h58.09.260,ImageRatingTask_S4,2021.1.4,MacIntel,59.94125757,,,,,,,,,
,,,,,,,,,,,,0,7,7,7,1,last,14,27,F,R,IMT,2021-07-11_18h58.09.260,ImageRatingTask_S4,2021.1.4,MacIntel,59.94125757,,,,,,,,,
,,,,,,,,,,,,,,,,,,14,27,F,R,IMT,2021-07-11_18h58.09.260,ImageRatingTask_S4,2021.1.4,MacIntel,59.94125757,0,62,62,90,1,DreamStudyImages_rs1000x750g/Children/Faces_116_h.jpg,,,
,,4,2.9118,2,1.6322,3,5.8393,1,2.9577,2,0.4035,0,0,0,0,1,main,14,27,F,R,IMT,2021-07-11_18h58.09.260,ImageRatingTask_S4,2021.1.4,MacIntel,59.94125757,,,,,,,,,
,,,,,,,,,,,,0,1,1,1,1,second,14,27,F,R,IMT,2021-07-11_18h58.09.260,ImageRatingTask_S4,2021.1.4,MacIntel,59.94125757,,,,,,,,,
,,,,,,,,,,,,0,2,2,2,1,third,14,27,F,R,IMT,2021-07-11_18h58.09.260,ImageRatingTask_S4,2021.1.4,MacIntel,59.94125757,,,,,,,,,
,,,,,,,,,,,,0,3,3,3,1,fourth,14,27,F,R,IMT,2021-07-11_18h58.09.260,ImageRatingTask_S4,2021.1.4,MacIntel,59.94125757,,,,,,,,,
,,,,,,,,,,,,0,4,4,4,1,fifth,14,27,F,R,IMT,2021-07-11_18h58.09.260,ImageRatingTask_S4,2021.1.4,MacIntel,59.94125757,,,,,,,,,
,,,,,,,,,,,,0,5,5,5,1,sixth,14,27,F,R,IMT,2021-07-11_18h58.09.260,ImageRatingTask_S4,2021.1.4,MacIntel,59.94125757,,,,,,,,,
,,,,,,,,,,,,0,6,6,6,1,seventh,14,27,F,R,IMT,2021-07-11_18h58.09.260,ImageRatingTask_S4,2021.1.4,MacIntel,59.94125757,,,,,,,,,
,,,,,,,,,,,,0,7,7,7,1,last,14,27,F,R,IMT,2021-07-11_18h58.09.260,ImageRatingTask_S4,2021.1.4,MacIntel,59.94125757,,,,,,,,,
,,,,,,,,,,,,,,,,,,14,27,F,R,IMT,2021-07-11_18h58.09.260,ImageRatingTask_S4,2021.1.4,MacIntel,59.94125757,0,63,63,106,1,DreamStudyImages_rs1000x750g/Children/Faces_029_h.jpg,,,
,,5,3.0616,1,0.5131,6,1.577,1,1.0428,5,0.9811,0,0,0,0,1,main,14,27,F,R,IMT,2021-07-11_18h58.09.260,ImageRatingTask_S4,2021.1.4,MacIntel,59.94125757,,,,,,,,,
,,,,,,,,,,,,0,1,1,1,1,second,14,27,F,R,IMT,2021-07-11_18h58.09.260,ImageRatingTask_S4,2021.1.4,MacIntel,59.94125757,,,,,,,,,
,,,,,,,,,,,,0,2,2,2,1,third,14,27,F,R,IMT,2021-07-11_18h58.09.260,ImageRatingTask_S4,2021.1.4,MacIntel,59.94125757,,,,,,,,,
,,,,,,,,,,,,0,3,3,3,1,fourth,14,27,F,R,IMT,2021-07-11_18h58.09.260,ImageRatingTask_S4,2021.1.4,MacIntel,59.94125757,,,,,,,,,
,,,,,,,,,,,,0,4,4,4,1,fifth,14,27,F,R,IMT,2021-07-11_18h58.09.260,ImageRatingTask_S4,2021.1.4,MacIntel,59.94125757,,,,,,,,,
,,,,,,,,,,,,0,5,5,5,1,sixth,14,27,F,R,IMT,2021-07-11_18h58.09.260,ImageRatingTask_S4,2021.1.4,MacIntel,59.94125757,,,,,,,,,
,,,,,,,,,,,,0,6,6,6,1,seventh,14,27,F,R,IMT,2021-07-11_18h58.09.260,ImageRatingTask_S4,2021.1.4,MacIntel,59.94125757,,,,,,,,,
,,,,,,,,,,,,0,7,7,7,1,last,14,27,F,R,IMT,2021-07-11_18h58.09.260,ImageRatingTask_S4,2021.1.4,MacIntel,59.94125757,,,,,,,,,
,,,,,,,,,,,,,,,,,,14,27,F,R,IMT,2021-07-11_18h58.09.260,ImageRatingTask_S4,2021.1.4,MacIntel,59.94125757,0,64,64,94,1,DreamStudyImages_rs1000x750g/Food/Objects_014_h.jpg,,,
,,5,1.9588,1,0.3206,1,0.8028,1,1.3494,8,0.8773,0,0,0,0,1,main,14,27,F,R,IMT,2021-07-11_18h58.09.260,ImageRatingTask_S4,2021.1.4,MacIntel,59.94125757,,,,,,,,,
,,,,,,,,,,,,0,1,1,1,1,second,14,27,F,R,IMT,2021-07-11_18h58.09.260,ImageRatingTask_S4,2021.1.4,MacIntel,59.94125757,,,,,,,,,
,,,,,,,,,,,,0,2,2,2,1,third,14,27,F,R,IMT,2021-07-11_18h58.09.260,ImageRatingTask_S4,2021.1.4,MacIntel,59.94125757,,,,,,,,,
,,,,,,,,,,,,0,3,3,3,1,fourth,14,27,F,R,IMT,2021-07-11_18h58.09.260,ImageRatingTask_S4,2021.1.4,MacIntel,59.94125757,,,,,,,,,
,,,,,,,,,,,,0,4,4,4,1,fifth,14,27,F,R,IMT,2021-07-11_18h58.09.260,ImageRatingTask_S4,2021.1.4,MacIntel,59.94125757,,,,,,,,,
,,,,,,,,,,,,0,5,5,5,1,sixth,14,27,F,R,IMT,2021-07-11_18h58.09.260,ImageRatingTask_S4,2021.1.4,MacIntel,59.94125757,,,,,,,,,
,,,,,,,,,,,,0,6,6,6,1,seventh,14,27,F,R,IMT,2021-07-11_18h58.09.260,ImageRatingTask_S4,2021.1.4,MacIntel,59.94125757,,,,,,,,,
,,,,,,,,,,,,0,7,7,7,1,last,14,27,F,R,IMT,2021-07-11_18h58.09.260,ImageRatingTask_S4,2021.1.4,MacIntel,59.94125757,,,,,,,,,
,,,,,,,,,,,,,,,,,,14,27,F,R,IMT,2021-07-11_18h58.09.260,ImageRatingTask_S4,2021.1.4,MacIntel,59.94125757,0,65,65,131,1,DreamStudyImages_rs1000x750g/Water/IAPS5220_tropicalbridge_CHECK.jpg,,,
,,5,5.8557,1,0.4891,2,1.231,1,1.3297,5,0.8241,0,0,0,0,1,main,14,27,F,R,IMT,2021-07-11_18h58.09.260,ImageRatingTask_S4,2021.1.4,MacIntel,59.94125757,,,,,,,,,
,,,,,,,,,,,,0,1,1,1,1,second,14,27,F,R,IMT,2021-07-11_18h58.09.260,ImageRatingTask_S4,2021.1.4,MacIntel,59.94125757,,,,,,,,,
,,,,,,,,,,,,0,2,2,2,1,third,14,27,F,R,IMT,2021-07-11_18h58.09.260,ImageRatingTask_S4,2021.1.4,MacIntel,59.94125757,,,,,,,,,
,,,,,,,,,,,,0,3,3,3,1,fourth,14,27,F,R,IMT,2021-07-11_18h58.09.260,ImageRatingTask_S4,2021.1.4,MacIntel,59.94125757,,,,,,,,,
,,,,,,,,,,,,0,4,4,4,1,fifth,14,27,F,R,IMT,2021-07-11_18h58.09.260,ImageRatingTask_S4,2021.1.4,MacIntel,59.94125757,,,,,,,,,
,,,,,,,,,,,,0,5,5,5,1,sixth,14,27,F,R,IMT,2021-07-11_18h58.09.260,ImageRatingTask_S4,2021.1.4,MacIntel,59.94125757,,,,,,,,,
,,,,,,,,,,,,0,6,6,6,1,seventh,14,27,F,R,IMT,2021-07-11_18h58.09.260,ImageRatingTask_S4,2021.1.4,MacIntel,59.94125757,,,,,,,,,
,,,,,,,,,,,,0,7,7,7,1,last,14,27,F,R,IMT,2021-07-11_18h58.09.260,ImageRatingTask_S4,2021.1.4,MacIntel,59.94125757,,,,,,,,,
,,,,,,,,,,,,,,,,,,14,27,F,R,IMT,2021-07-11_18h58.09.260,ImageRatingTask_S4,2021.1.4,MacIntel,59.94125757,0,66,66,133,1,DreamStudyImages_rs1000x750g/Food/IAPS7481_diner3.jpg,,,
,,5,2.3933,1,0.3005,1,1.6696,1,1.7321,6,0.8298,0,0,0,0,1,main,14,27,F,R,IMT,2021-07-11_18h58.09.260,ImageRatingTask_S4,2021.1.4,MacIntel,59.94125757,,,,,,,,,
,,,,,,,,,,,,0,1,1,1,1,second,14,27,F,R,IMT,2021-07-11_18h58.09.260,ImageRatingTask_S4,2021.1.4,MacIntel,59.94125757,,,,,,,,,
,,,,,,,,,,,,0,2,2,2,1,third,14,27,F,R,IMT,2021-07-11_18h58.09.260,ImageRatingTask_S4,2021.1.4,MacIntel,59.94125757,,,,,,,,,
,,,,,,,,,,,,0,3,3,3,1,fourth,14,27,F,R,IMT,2021-07-11_18h58.09.260,ImageRatingTask_S4,2021.1.4,MacIntel,59.94125757,,,,,,,,,
,,,,,,,,,,,,0,4,4,4,1,fifth,14,27,F,R,IMT,2021-07-11_18h58.09.260,ImageRatingTask_S4,2021.1.4,MacIntel,59.94125757,,,,,,,,,
,,,,,,,,,,,,0,5,5,5,1,sixth,14,27,F,R,IMT,2021-07-11_18h58.09.260,ImageRatingTask_S4,2021.1.4,MacIntel,59.94125757,,,,,,,,,
,,,,,,,,,,,,0,6,6,6,1,seventh,14,27,F,R,IMT,2021-07-11_18h58.09.260,ImageRatingTask_S4,2021.1.4,MacIntel,59.94125757,,,,,,,,,
,,,,,,,,,,,,0,7,7,7,1,last,14,27,F,R,IMT,2021-07-11_18h58.09.260,ImageRatingTask_S4,2021.1.4,MacIntel,59.94125757,,,,,,,,,
,,,,,,,,,,,,,,,,,,14,27,F,R,IMT,2021-07-11_18h58.09.260,ImageRatingTask_S4,2021.1.4,MacIntel,59.94125757,0,67,67,155,1,DreamStudyImages_rs1000x750g/Houses/IAPS7510_building2.jpg,,,
,,5,9.1926,1,0.3516,6,1.8967,1,0.9815,6,1.0419,0,0,0,0,1,main,14,27,F,R,IMT,2021-07-11_18h58.09.260,ImageRatingTask_S4,2021.1.4,MacIntel,59.94125757,,,,,,,,,
,,,,,,,,,,,,0,1,1,1,1,second,14,27,F,R,IMT,2021-07-11_18h58.09.260,ImageRatingTask_S4,2021.1.4,MacIntel,59.94125757,,,,,,,,,
,,,,,,,,,,,,0,2,2,2,1,third,14,27,F,R,IMT,2021-07-11_18h58.09.260,ImageRatingTask_S4,2021.1.4,MacIntel,59.94125757,,,,,,,,,
,,,,,,,,,,,,0,3,3,3,1,fourth,14,27,F,R,IMT,2021-07-11_18h58.09.260,ImageRatingTask_S4,2021.1.4,MacIntel,59.94125757,,,,,,,,,
,,,,,,,,,,,,0,4,4,4,1,fifth,14,27,F,R,IMT,2021-07-11_18h58.09.260,ImageRatingTask_S4,2021.1.4,MacIntel,59.94125757,,,,,,,,,
,,,,,,,,,,,,0,5,5,5,1,sixth,14,27,F,R,IMT,2021-07-11_18h58.09.260,ImageRatingTask_S4,2021.1.4,MacIntel,59.94125757,,,,,,,,,
,,,,,,,,,,,,0,6,6,6,1,seventh,14,27,F,R,IMT,2021-07-11_18h58.09.260,ImageRatingTask_S4,2021.1.4,MacIntel,59.94125757,,,,,,,,,
,,,,,,,,,,,,0,7,7,7,1,last,14,27,F,R,IMT,2021-07-11_18h58.09.260,ImageRatingTask_S4,2021.1.4,MacIntel,59.94125757,,,,,,,,,
,,,,,,,,,,,,,,,,,,14,27,F,R,IMT,2021-07-11_18h58.09.260,ImageRatingTask_S4,2021.1.4,MacIntel,59.94125757,0,68,68,55,1,DreamStudyImages_rs1000x750g/Houses/Landscapes_034_h.jpg,,,
,,5,3.2946,1,0.4999,1,0.4321,1,1.5002,8,0.912,0,0,0,0,1,main,14,27,F,R,IMT,2021-07-11_18h58.09.260,ImageRatingTask_S4,2021.1.4,MacIntel,59.94125757,,,,,,,,,
,,,,,,,,,,,,0,1,1,1,1,second,14,27,F,R,IMT,2021-07-11_18h58.09.260,ImageRatingTask_S4,2021.1.4,MacIntel,59.94125757,,,,,,,,,
,,,,,,,,,,,,0,2,2,2,1,third,14,27,F,R,IMT,2021-07-11_18h58.09.260,ImageRatingTask_S4,2021.1.4,MacIntel,59.94125757,,,,,,,,,
,,,,,,,,,,,,0,3,3,3,1,fourth,14,27,F,R,IMT,2021-07-11_18h58.09.260,ImageRatingTask_S4,2021.1.4,MacIntel,59.94125757,,,,,,,,,
,,,,,,,,,,,,0,4,4,4,1,fifth,14,27,F,R,IMT,2021-07-11_18h58.09.260,ImageRatingTask_S4,2021.1.4,MacIntel,59.94125757,,,,,,,,,
,,,,,,,,,,,,0,5,5,5,1,sixth,14,27,F,R,IMT,2021-07-11_18h58.09.260,ImageRatingTask_S4,2021.1.4,MacIntel,59.94125757,,,,,,,,,
,,,,,,,,,,,,0,6,6,6,1,seventh,14,27,F,R,IMT,2021-07-11_18h58.09.260,ImageRatingTask_S4,2021.1.4,MacIntel,59.94125757,,,,,,,,,
,,,,,,,,,,,,0,7,7,7,1,last,14,27,F,R,IMT,2021-07-11_18h58.09.260,ImageRatingTask_S4,2021.1.4,MacIntel,59.94125757,,,,,,,,,
,,,,,,,,,,,,,,,,,,14,27,F,R,IMT,2021-07-11_18h58.09.260,ImageRatingTask_S4,2021.1.4,MacIntel,59.94125757,0,69,69,62,1,DreamStudyImages_rs1000x750g/Water/Beach 1.jpg,,,
,,5,2.575,1,0.4399,5,1.5169,1,1.1649,7,0.8091,0,0,0,0,1,main,14,27,F,R,IMT,2021-07-11_18h58.09.260,ImageRatingTask_S4,2021.1.4,MacIntel,59.94125757,,,,,,,,,
,,,,,,,,,,,,0,1,1,1,1,second,14,27,F,R,IMT,2021-07-11_18h58.09.260,ImageRatingTask_S4,2021.1.4,MacIntel,59.94125757,,,,,,,,,
,,,,,,,,,,,,0,2,2,2,1,third,14,27,F,R,IMT,2021-07-11_18h58.09.260,ImageRatingTask_S4,2021.1.4,MacIntel,59.94125757,,,,,,,,,
,,,,,,,,,,,,0,3,3,3,1,fourth,14,27,F,R,IMT,2021-07-11_18h58.09.260,ImageRatingTask_S4,2021.1.4,MacIntel,59.94125757,,,,,,,,,
,,,,,,,,,,,,0,4,4,4,1,fifth,14,27,F,R,IMT,2021-07-11_18h58.09.260,ImageRatingTask_S4,2021.1.4,MacIntel,59.94125757,,,,,,,,,
,,,,,,,,,,,,0,5,5,5,1,sixth,14,27,F,R,IMT,2021-07-11_18h58.09.260,ImageRatingTask_S4,2021.1.4,MacIntel,59.94125757,,,,,,,,,
,,,,,,,,,,,,0,6,6,6,1,seventh,14,27,F,R,IMT,2021-07-11_18h58.09.260,ImageRatingTask_S4,2021.1.4,MacIntel,59.94125757,,,,,,,,,
,,,,,,,,,,,,0,7,7,7,1,last,14,27,F,R,IMT,2021-07-11_18h58.09.260,ImageRatingTask_S4,2021.1.4,MacIntel,59.94125757,,,,,,,,,
,,,,,,,,,,,,,,,,,,14,27,F,R,IMT,2021-07-11_18h58.09.260,ImageRatingTask_S4,2021.1.4,MacIntel,59.94125757,0,70,70,157,1,DreamStudyImages_rs1000x750g/Vehicles/Objects_293_h.jpg,,,
,,6,4.5931,1,1.9105,6,2.0289,1,0.797,2,2.0089,0,0,0,0,1,main,14,27,F,R,IMT,2021-07-11_18h58.09.260,ImageRatingTask_S4,2021.1.4,MacIntel,59.94125757,,,,,,,,,
,,,,,,,,,,,,0,1,1,1,1,second,14,27,F,R,IMT,2021-07-11_18h58.09.260,ImageRatingTask_S4,2021.1.4,MacIntel,59.94125757,,,,,,,,,
,,,,,,,,,,,,0,2,2,2,1,third,14,27,F,R,IMT,2021-07-11_18h58.09.260,ImageRatingTask_S4,2021.1.4,MacIntel,59.94125757,,,,,,,,,
,,,,,,,,,,,,0,3,3,3,1,fourth,14,27,F,R,IMT,2021-07-11_18h58.09.260,ImageRatingTask_S4,2021.1.4,MacIntel,59.94125757,,,,,,,,,
,,,,,,,,,,,,0,4,4,4,1,fifth,14,27,F,R,IMT,2021-07-11_18h58.09.260,ImageRatingTask_S4,2021.1.4,MacIntel,59.94125757,,,,,,,,,
,,,,,,,,,,,,0,5,5,5,1,sixth,14,27,F,R,IMT,2021-07-11_18h58.09.260,ImageRatingTask_S4,2021.1.4,MacIntel,59.94125757,,,,,,,,,
,,,,,,,,,,,,0,6,6,6,1,seventh,14,27,F,R,IMT,2021-07-11_18h58.09.260,ImageRatingTask_S4,2021.1.4,MacIntel,59.94125757,,,,,,,,,
,,,,,,,,,,,,0,7,7,7,1,last,14,27,F,R,IMT,2021-07-11_18h58.09.260,ImageRatingTask_S4,2021.1.4,MacIntel,59.94125757,,,,,,,,,
,,,,,,,,,,,,,,,,,,14,27,F,R,IMT,2021-07-11_18h58.09.260,ImageRatingTask_S4,2021.1.4,MacIntel,59.94125757,0,71,71,64,1,DreamStudyImages_rs1000x750g/Children/Faces_104_h.jpg,,,
,,4,4.0545,3,0.7191,5,2.7633,1,1.176,3,1.0531,0,0,0,0,1,main,14,27,F,R,IMT,2021-07-11_18h58.09.260,ImageRatingTask_S4,2021.1.4,MacIntel,59.94125757,,,,,,,,,
,,,,,,,,,,,,0,1,1,1,1,second,14,27,F,R,IMT,2021-07-11_18h58.09.260,ImageRatingTask_S4,2021.1.4,MacIntel,59.94125757,,,,,,,,,
,,,,,,,,,,,,0,2,2,2,1,third,14,27,F,R,IMT,2021-07-11_18h58.09.260,ImageRatingTask_S4,2021.1.4,MacIntel,59.94125757,,,,,,,,,
,,,,,,,,,,,,0,3,3,3,1,fourth,14,27,F,R,IMT,2021-07-11_18h58.09.260,ImageRatingTask_S4,2021.1.4,MacIntel,59.94125757,,,,,,,,,
,,,,,,,,,,,,0,4,4,4,1,fifth,14,27,F,R,IMT,2021-07-11_18h58.09.260,ImageRatingTask_S4,2021.1.4,MacIntel,59.94125757,,,,,,,,,
,,,,,,,,,,,,0,5,5,5,1,sixth,14,27,F,R,IMT,2021-07-11_18h58.09.260,ImageRatingTask_S4,2021.1.4,MacIntel,59.94125757,,,,,,,,,
,,,,,,,,,,,,0,6,6,6,1,seventh,14,27,F,R,IMT,2021-07-11_18h58.09.260,ImageRatingTask_S4,2021.1.4,MacIntel,59.94125757,,,,,,,,,
,,,,,,,,,,,,0,7,7,7,1,last,14,27,F,R,IMT,2021-07-11_18h58.09.260,ImageRatingTask_S4,2021.1.4,MacIntel,59.94125757,,,,,,,,,
,,,,,,,,,,,,,,,,,,14,27,F,R,IMT,2021-07-11_18h58.09.260,ImageRatingTask_S4,2021.1.4,MacIntel,59.94125757,0,72,72,77,1,DreamStudyImages_rs1000x750g/Mammals/Animals_164_h.jpg,,,
,,5,2.9551,1,0.3113,4,1.0845,1,1.2142,5,2.3276,0,0,0,0,1,main,14,27,F,R,IMT,2021-07-11_18h58.09.260,ImageRatingTask_S4,2021.1.4,MacIntel,59.94125757,,,,,,,,,
,,,,,,,,,,,,0,1,1,1,1,second,14,27,F,R,IMT,2021-07-11_18h58.09.260,ImageRatingTask_S4,2021.1.4,MacIntel,59.94125757,,,,,,,,,
,,,,,,,,,,,,0,2,2,2,1,third,14,27,F,R,IMT,2021-07-11_18h58.09.260,ImageRatingTask_S4,2021.1.4,MacIntel,59.94125757,,,,,,,,,
,,,,,,,,,,,,0,3,3,3,1,fourth,14,27,F,R,IMT,2021-07-11_18h58.09.260,ImageRatingTask_S4,2021.1.4,MacIntel,59.94125757,,,,,,,,,
,,,,,,,,,,,,0,4,4,4,1,fifth,14,27,F,R,IMT,2021-07-11_18h58.09.260,ImageRatingTask_S4,2021.1.4,MacIntel,59.94125757,,,,,,,,,
,,,,,,,,,,,,0,5,5,5,1,sixth,14,27,F,R,IMT,2021-07-11_18h58.09.260,ImageRatingTask_S4,2021.1.4,MacIntel,59.94125757,,,,,,,,,
,,,,,,,,,,,,0,6,6,6,1,seventh,14,27,F,R,IMT,2021-07-11_18h58.09.260,ImageRatingTask_S4,2021.1.4,MacIntel,59.94125757,,,,,,,,,
,,,,,,,,,,,,0,7,7,7,1,last,14,27,F,R,IMT,2021-07-11_18h58.09.260,ImageRatingTask_S4,2021.1.4,MacIntel,59.94125757,,,,,,,,,
,,,,,,,,,,,,,,,,,,14,27,F,R,IMT,2021-07-11_18h58.09.260,ImageRatingTask_S4,2021.1.4,MacIntel,59.94125757,0,73,73,143,1,DreamStudyImages_rs1000x750g/Food/Objects_075_h.jpg,,,
,,5,3.0495,1,0.4884,3,1.3993,1,0.746,2,0.8739,0,0,0,0,1,main,14,27,F,R,IMT,2021-07-11_18h58.09.260,ImageRatingTask_S4,2021.1.4,MacIntel,59.94125757,,,,,,,,,
,,,,,,,,,,,,0,1,1,1,1,second,14,27,F,R,IMT,2021-07-11_18h58.09.260,ImageRatingTask_S4,2021.1.4,MacIntel,59.94125757,,,,,,,,,
,,,,,,,,,,,,0,2,2,2,1,third,14,27,F,R,IMT,2021-07-11_18h58.09.260,ImageRatingTask_S4,2021.1.4,MacIntel,59.94125757,,,,,,,,,
,,,,,,,,,,,,0,3,3,3,1,fourth,14,27,F,R,IMT,2021-07-11_18h58.09.260,ImageRatingTask_S4,2021.1.4,MacIntel,59.94125757,,,,,,,,,
,,,,,,,,,,,,0,4,4,4,1,fifth,14,27,F,R,IMT,2021-07-11_18h58.09.260,ImageRatingTask_S4,2021.1.4,MacIntel,59.94125757,,,,,,,,,
,,,,,,,,,,,,0,5,5,5,1,sixth,14,27,F,R,IMT,2021-07-11_18h58.09.260,ImageRatingTask_S4,2021.1.4,MacIntel,59.94125757,,,,,,,,,
,,,,,,,,,,,,0,6,6,6,1,seventh,14,27,F,R,IMT,2021-07-11_18h58.09.260,ImageRatingTask_S4,2021.1.4,MacIntel,59.94125757,,,,,,,,,
,,,,,,,,,,,,0,7,7,7,1,last,14,27,F,R,IMT,2021-07-11_18h58.09.260,ImageRatingTask_S4,2021.1.4,MacIntel,59.94125757,,,,,,,,,
,,,,,,,,,,,,,,,,,,14,27,F,R,IMT,2021-07-11_18h58.09.260,ImageRatingTask_S4,2021.1.4,MacIntel,59.94125757,0,74,74,112,1,DreamStudyImages_rs1000x750g/Children/IAPS2810_boy11.jpg,,,
,,5,1.676,1,0.317,6,2.5935,1,0.637,2,0.7223,0,0,0,0,1,main,14,27,F,R,IMT,2021-07-11_18h58.09.260,ImageRatingTask_S4,2021.1.4,MacIntel,59.94125757,,,,,,,,,
,,,,,,,,,,,,0,1,1,1,1,second,14,27,F,R,IMT,2021-07-11_18h58.09.260,ImageRatingTask_S4,2021.1.4,MacIntel,59.94125757,,,,,,,,,
,,,,,,,,,,,,0,2,2,2,1,third,14,27,F,R,IMT,2021-07-11_18h58.09.260,ImageRatingTask_S4,2021.1.4,MacIntel,59.94125757,,,,,,,,,
,,,,,,,,,,,,0,3,3,3,1,fourth,14,27,F,R,IMT,2021-07-11_18h58.09.260,ImageRatingTask_S4,2021.1.4,MacIntel,59.94125757,,,,,,,,,
,,,,,,,,,,,,0,4,4,4,1,fifth,14,27,F,R,IMT,2021-07-11_18h58.09.260,ImageRatingTask_S4,2021.1.4,MacIntel,59.94125757,,,,,,,,,
,,,,,,,,,,,,0,5,5,5,1,sixth,14,27,F,R,IMT,2021-07-11_18h58.09.260,ImageRatingTask_S4,2021.1.4,MacIntel,59.94125757,,,,,,,,,
,,,,,,,,,,,,0,6,6,6,1,seventh,14,27,F,R,IMT,2021-07-11_18h58.09.260,ImageRatingTask_S4,2021.1.4,MacIntel,59.94125757,,,,,,,,,
,,,,,,,,,,,,0,7,7,7,1,last,14,27,F,R,IMT,2021-07-11_18h58.09.260,ImageRatingTask_S4,2021.1.4,MacIntel,59.94125757,,,,,,,,,
,,,,,,,,,,,,,,,,,,14,27,F,R,IMT,2021-07-11_18h58.09.260,ImageRatingTask_S4,2021.1.4,MacIntel,59.94125757,0,75,75,88,1,DreamStudyImages_rs1000x750g/Children/Faces_076_h.jpg,,,
,,4,3.0496,2,0.5147,4,2.1781,1,0.6916,3,0.8808,0,0,0,0,1,main,14,27,F,R,IMT,2021-07-11_18h58.09.260,ImageRatingTask_S4,2021.1.4,MacIntel,59.94125757,,,,,,,,,
,,,,,,,,,,,,0,1,1,1,1,second,14,27,F,R,IMT,2021-07-11_18h58.09.260,ImageRatingTask_S4,2021.1.4,MacIntel,59.94125757,,,,,,,,,
,,,,,,,,,,,,0,2,2,2,1,third,14,27,F,R,IMT,2021-07-11_18h58.09.260,ImageRatingTask_S4,2021.1.4,MacIntel,59.94125757,,,,,,,,,
,,,,,,,,,,,,0,3,3,3,1,fourth,14,27,F,R,IMT,2021-07-11_18h58.09.260,ImageRatingTask_S4,2021.1.4,MacIntel,59.94125757,,,,,,,,,
,,,,,,,,,,,,0,4,4,4,1,fifth,14,27,F,R,IMT,2021-07-11_18h58.09.260,ImageRatingTask_S4,2021.1.4,MacIntel,59.94125757,,,,,,,,,
,,,,,,,,,,,,0,5,5,5,1,sixth,14,27,F,R,IMT,2021-07-11_18h58.09.260,ImageRatingTask_S4,2021.1.4,MacIntel,59.94125757,,,,,,,,,
,,,,,,,,,,,,0,6,6,6,1,seventh,14,27,F,R,IMT,2021-07-11_18h58.09.260,ImageRatingTask_S4,2021.1.4,MacIntel,59.94125757,,,,,,,,,
,,,,,,,,,,,,0,7,7,7,1,last,14,27,F,R,IMT,2021-07-11_18h58.09.260,ImageRatingTask_S4,2021.1.4,MacIntel,59.94125757,,,,,,,,,
,,,,,,,,,,,,,,,,,,14,27,F,R,IMT,2021-07-11_18h58.09.260,ImageRatingTask_S4,2021.1.4,MacIntel,59.94125757,0,76,76,156,1,DreamStudyImages_rs1000x750g/Mammals/Monkey 3.jpg,,,
,,6,4.1384,2,1.6819,7,2.1045,1,0.8258,8,0.8717,0,0,0,0,1,main,14,27,F,R,IMT,2021-07-11_18h58.09.260,ImageRatingTask_S4,2021.1.4,MacIntel,59.94125757,,,,,,,,,
,,,,,,,,,,,,0,1,1,1,1,second,14,27,F,R,IMT,2021-07-11_18h58.09.260,ImageRatingTask_S4,2021.1.4,MacIntel,59.94125757,,,,,,,,,
,,,,,,,,,,,,0,2,2,2,1,third,14,27,F,R,IMT,2021-07-11_18h58.09.260,ImageRatingTask_S4,2021.1.4,MacIntel,59.94125757,,,,,,,,,
,,,,,,,,,,,,0,3,3,3,1,fourth,14,27,F,R,IMT,2021-07-11_18h58.09.260,ImageRatingTask_S4,2021.1.4,MacIntel,59.94125757,,,,,,,,,
,,,,,,,,,,,,0,4,4,4,1,fifth,14,27,F,R,IMT,2021-07-11_18h58.09.260,ImageRatingTask_S4,2021.1.4,MacIntel,59.94125757,,,,,,,,,
,,,,,,,,,,,,0,5,5,5,1,sixth,14,27,F,R,IMT,2021-07-11_18h58.09.260,ImageRatingTask_S4,2021.1.4,MacIntel,59.94125757,,,,,,,,,
,,,,,,,,,,,,0,6,6,6,1,seventh,14,27,F,R,IMT,2021-07-11_18h58.09.260,ImageRatingTask_S4,2021.1.4,MacIntel,59.94125757,,,,,,,,,
,,,,,,,,,,,,0,7,7,7,1,last,14,27,F,R,IMT,2021-07-11_18h58.09.260,ImageRatingTask_S4,2021.1.4,MacIntel,59.94125757,,,,,,,,,
,,,,,,,,,,,,,,,,,,14,27,F,R,IMT,2021-07-11_18h58.09.260,ImageRatingTask_S4,2021.1.4,MacIntel,59.94125757,0,77,77,105,1,DreamStudyImages_rs1000x750g/Water/seacliffbridge.jpg,,,
,,5,4.6185,1,0.3383,5,1.7354,1,0.9703,5,0.7839,0,0,0,0,1,main,14,27,F,R,IMT,2021-07-11_18h58.09.260,ImageRatingTask_S4,2021.1.4,MacIntel,59.94125757,,,,,,,,,
,,,,,,,,,,,,0,1,1,1,1,second,14,27,F,R,IMT,2021-07-11_18h58.09.260,ImageRatingTask_S4,2021.1.4,MacIntel,59.94125757,,,,,,,,,
,,,,,,,,,,,,0,2,2,2,1,third,14,27,F,R,IMT,2021-07-11_18h58.09.260,ImageRatingTask_S4,2021.1.4,MacIntel,59.94125757,,,,,,,,,
,,,,,,,,,,,,0,3,3,3,1,fourth,14,27,F,R,IMT,2021-07-11_18h58.09.260,ImageRatingTask_S4,2021.1.4,MacIntel,59.94125757,,,,,,,,,
,,,,,,,,,,,,0,4,4,4,1,fifth,14,27,F,R,IMT,2021-07-11_18h58.09.260,ImageRatingTask_S4,2021.1.4,MacIntel,59.94125757,,,,,,,,,
,,,,,,,,,,,,0,5,5,5,1,sixth,14,27,F,R,IMT,2021-07-11_18h58.09.260,ImageRatingTask_S4,2021.1.4,MacIntel,59.94125757,,,,,,,,,
,,,,,,,,,,,,0,6,6,6,1,seventh,14,27,F,R,IMT,2021-07-11_18h58.09.260,ImageRatingTask_S4,2021.1.4,MacIntel,59.94125757,,,,,,,,,
,,,,,,,,,,,,0,7,7,7,1,last,14,27,F,R,IMT,2021-07-11_18h58.09.260,ImageRatingTask_S4,2021.1.4,MacIntel,59.94125757,,,,,,,,,
,,,,,,,,,,,,,,,,,,14,27,F,R,IMT,2021-07-11_18h58.09.260,ImageRatingTask_S4,2021.1.4,MacIntel,59.94125757,0,78,78,81,1,DreamStudyImages_rs1000x750g/Food/Wedding 4.jpg,,,
,,5,3.0847,1,0.3201,6,3.748,1,0.563,6,0.882,0,0,0,0,1,main,14,27,F,R,IMT,2021-07-11_18h58.09.260,ImageRatingTask_S4,2021.1.4,MacIntel,59.94125757,,,,,,,,,
,,,,,,,,,,,,0,1,1,1,1,second,14,27,F,R,IMT,2021-07-11_18h58.09.260,ImageRatingTask_S4,2021.1.4,MacIntel,59.94125757,,,,,,,,,
,,,,,,,,,,,,0,2,2,2,1,third,14,27,F,R,IMT,2021-07-11_18h58.09.260,ImageRatingTask_S4,2021.1.4,MacIntel,59.94125757,,,,,,,,,
,,,,,,,,,,,,0,3,3,3,1,fourth,14,27,F,R,IMT,2021-07-11_18h58.09.260,ImageRatingTask_S4,2021.1.4,MacIntel,59.94125757,,,,,,,,,
,,,,,,,,,,,,0,4,4,4,1,fifth,14,27,F,R,IMT,2021-07-11_18h58.09.260,ImageRatingTask_S4,2021.1.4,MacIntel,59.94125757,,,,,,,,,
,,,,,,,,,,,,0,5,5,5,1,sixth,14,27,F,R,IMT,2021-07-11_18h58.09.260,ImageRatingTask_S4,2021.1.4,MacIntel,59.94125757,,,,,,,,,
,,,,,,,,,,,,0,6,6,6,1,seventh,14,27,F,R,IMT,2021-07-11_18h58.09.260,ImageRatingTask_S4,2021.1.4,MacIntel,59.94125757,,,,,,,,,
,,,,,,,,,,,,0,7,7,7,1,last,14,27,F,R,IMT,2021-07-11_18h58.09.260,ImageRatingTask_S4,2021.1.4,MacIntel,59.94125757,,,,,,,,,
,,,,,,,,,,,,,,,,,,14,27,F,R,IMT,2021-07-11_18h58.09.260,ImageRatingTask_S4,2021.1.4,MacIntel,59.94125757,0,79,79,129,1,DreamStudyImages_rs1000x750g/Houses/Landscapes_016_h.jpg,,,
,,5,2.8523,1,0.3143,1,1.6167,1,1.144,3,0.9366,0,0,0,0,1,main,14,27,F,R,IMT,2021-07-11_18h58.09.260,ImageRatingTask_S4,2021.1.4,MacIntel,59.94125757,,,,,,,,,
,,,,,,,,,,,,0,1,1,1,1,second,14,27,F,R,IMT,2021-07-11_18h58.09.260,ImageRatingTask_S4,2021.1.4,MacIntel,59.94125757,,,,,,,,,
,,,,,,,,,,,,0,2,2,2,1,third,14,27,F,R,IMT,2021-07-11_18h58.09.260,ImageRatingTask_S4,2021.1.4,MacIntel,59.94125757,,,,,,,,,
,,,,,,,,,,,,0,3,3,3,1,fourth,14,27,F,R,IMT,2021-07-11_18h58.09.260,ImageRatingTask_S4,2021.1.4,MacIntel,59.94125757,,,,,,,,,
,,,,,,,,,,,,0,4,4,4,1,fifth,14,27,F,R,IMT,2021-07-11_18h58.09.260,ImageRatingTask_S4,2021.1.4,MacIntel,59.94125757,,,,,,,,,
,,,,,,,,,,,,0,5,5,5,1,sixth,14,27,F,R,IMT,2021-07-11_18h58.09.260,ImageRatingTask_S4,2021.1.4,MacIntel,59.94125757,,,,,,,,,
,,,,,,,,,,,,0,6,6,6,1,seventh,14,27,F,R,IMT,2021-07-11_18h58.09.260,ImageRatingTask_S4,2021.1.4,MacIntel,59.94125757,,,,,,,,,
,,,,,,,,,,,,0,7,7,7,1,last,14,27,F,R,IMT,2021-07-11_18h58.09.260,ImageRatingTask_S4,2021.1.4,MacIntel,59.94125757,,,,,,,,,
,,,,,,,,,,,,,,,,,,14,27,F,R,IMT,2021-07-11_18h58.09.260,ImageRatingTask_S4,2021.1.4,MacIntel,59.94125757,0,80,80,134,1,DreamStudyImages_rs1000x750g/Mammals/IAPS1510_dog8.jpg,,,
,,3,2.7181,3,1.2393,7,2.3465,1,1.1878,8,0.9378,0,0,0,0,1,main,14,27,F,R,IMT,2021-07-11_18h58.09.260,ImageRatingTask_S4,2021.1.4,MacIntel,59.94125757,,,,,,,,,
,,,,,,,,,,,,0,1,1,1,1,second,14,27,F,R,IMT,2021-07-11_18h58.09.260,ImageRatingTask_S4,2021.1.4,MacIntel,59.94125757,,,,,,,,,
,,,,,,,,,,,,0,2,2,2,1,third,14,27,F,R,IMT,2021-07-11_18h58.09.260,ImageRatingTask_S4,2021.1.4,MacIntel,59.94125757,,,,,,,,,
,,,,,,,,,,,,0,3,3,3,1,fourth,14,27,F,R,IMT,2021-07-11_18h58.09.260,ImageRatingTask_S4,2021.1.4,MacIntel,59.94125757,,,,,,,,,
,,,,,,,,,,,,0,4,4,4,1,fifth,14,27,F,R,IMT,2021-07-11_18h58.09.260,ImageRatingTask_S4,2021.1.4,MacIntel,59.94125757,,,,,,,,,
,,,,,,,,,,,,0,5,5,5,1,sixth,14,27,F,R,IMT,2021-07-11_18h58.09.260,ImageRatingTask_S4,2021.1.4,MacIntel,59.94125757,,,,,,,,,
,,,,,,,,,,,,0,6,6,6,1,seventh,14,27,F,R,IMT,2021-07-11_18h58.09.260,ImageRatingTask_S4,2021.1.4,MacIntel,59.94125757,,,,,,,,,
,,,,,,,,,,,,0,7,7,7,1,last,14,27,F,R,IMT,2021-07-11_18h58.09.260,ImageRatingTask_S4,2021.1.4,MacIntel,59.94125757,,,,,,,,,
,,,,,,,,,,,,,,,,,,14,27,F,R,IMT,2021-07-11_18h58.09.260,ImageRatingTask_S4,2021.1.4,MacIntel,59.94125757,0,81,81,71,1,DreamStudyImages_rs1000x750g/Water/99_CHECK.jpg,,,
,,7,4.9845,2,1.306,6,1.8636,1,2.0728,3,0.9627,0,0,0,0,1,main,14,27,F,R,IMT,2021-07-11_18h58.09.260,ImageRatingTask_S4,2021.1.4,MacIntel,59.94125757,,,,,,,,,
,,,,,,,,,,,,0,1,1,1,1,second,14,27,F,R,IMT,2021-07-11_18h58.09.260,ImageRatingTask_S4,2021.1.4,MacIntel,59.94125757,,,,,,,,,
,,,,,,,,,,,,0,2,2,2,1,third,14,27,F,R,IMT,2021-07-11_18h58.09.260,ImageRatingTask_S4,2021.1.4,MacIntel,59.94125757,,,,,,,,,
,,,,,,,,,,,,0,3,3,3,1,fourth,14,27,F,R,IMT,2021-07-11_18h58.09.260,ImageRatingTask_S4,2021.1.4,MacIntel,59.94125757,,,,,,,,,
,,,,,,,,,,,,0,4,4,4,1,fifth,14,27,F,R,IMT,2021-07-11_18h58.09.260,ImageRatingTask_S4,2021.1.4,MacIntel,59.94125757,,,,,,,,,
