slider_pre.response,slider_pre.rt,key_val.keys,key_val.rt,key_aro.keys,key_aro.rt,key_qual.keys,key_qual.rt,key_ncat.keys,key_ncat.rt,key_cats.keys,key_cats.rt,ncat_order.thisRepN,ncat_order.thisTrialN,ncat_order.thisN,ncat_order.thisIndex,ncat_order.ran,cond_cat,participant,age,gender,handedness (L/R),site (IMT/Donders),date,expName,psychopyVersion,OS,frameRate,img_trials.thisRepN,img_trials.thisTrialN,img_trials.thisN,img_trials.thisIndex,img_trials.ran,filename,slider_post.response,slider_post.rt,key_fb.keys,key_fb.rt,fb.thisRepN,fb.thisTrialN,fb.thisN,fb.thisIndex,fb.ran,fb_qst,textbox_openfb.text
5,4.0616,4,3.2381,3,1.7465,6,1.7162,1,1.4979,3,1.4123,0,0,0,0,1,main,14,27,F,R,IMT,2021-07-13_14h36.47.604,ImageRatingTask_S5,2021.1.4,MacIntel,60.0024001,,,,,,,,,,,,,,,,,
,,,,,,,,,,,,0,1,1,1,1,second,14,27,F,R,IMT,2021-07-13_14h36.47.604,ImageRatingTask_S5,2021.1.4,MacIntel,60.0024001,,,,,,,,,,,,,,,,,
,,,,,,,,,,,,0,2,2,2,1,third,14,27,F,R,IMT,2021-07-13_14h36.47.604,ImageRatingTask_S5,2021.1.4,MacIntel,60.0024001,,,,,,,,,,,,,,,,,
,,,,,,,,,,,,0,3,3,3,1,fourth,14,27,F,R,IMT,2021-07-13_14h36.47.604,ImageRatingTask_S5,2021.1.4,MacIntel,60.0024001,,,,,,,,,,,,,,,,,
,,,,,,,,,,,,0,4,4,4,1,fifth,14,27,F,R,IMT,2021-07-13_14h36.47.604,ImageRatingTask_S5,2021.1.4,MacIntel,60.0024001,,,,,,,,,,,,,,,,,
,,,,,,,,,,,,0,5,5,5,1,sixth,14,27,F,R,IMT,2021-07-13_14h36.47.604,ImageRatingTask_S5,2021.1.4,MacIntel,60.0024001,,,,,,,,,,,,,,,,,
,,,,,,,,,,,,0,6,6,6,1,seventh,14,27,F,R,IMT,2021-07-13_14h36.47.604,ImageRatingTask_S5,2021.1.4,MacIntel,60.0024001,,,,,,,,,,,,,,,,,
,,,,,,,,,,,,0,7,7,7,1,last,14,27,F,R,IMT,2021-07-13_14h36.47.604,ImageRatingTask_S5,2021.1.4,MacIntel,60.0024001,,,,,,,,,,,,,,,,,
,,,,,,,,,,,,,,,,,,14,27,F,R,IMT,2021-07-13_14h36.47.604,ImageRatingTask_S5,2021.1.4,MacIntel,60.0024001,0,0,0,71,1,DreamStudyImages_rs1000x750g/Mammals/Animals_076_v.jpg,,,,,,,,,,,
,,3,4.8117,2,1.4007,6,1.5622,1,1.0974,3,0.7117,0,0,0,0,1,main,14,27,F,R,IMT,2021-07-13_14h36.47.604,ImageRatingTask_S5,2021.1.4,MacIntel,60.0024001,,,,,,,,,,,,,,,,,
,,,,,,,,,,,,0,1,1,1,1,second,14,27,F,R,IMT,2021-07-13_14h36.47.604,ImageRatingTask_S5,2021.1.4,MacIntel,60.0024001,,,,,,,,,,,,,,,,,
,,,,,,,,,,,,0,2,2,2,1,third,14,27,F,R,IMT,2021-07-13_14h36.47.604,ImageRatingTask_S5,2021.1.4,MacIntel,60.0024001,,,,,,,,,,,,,,,,,
,,,,,,,,,,,,0,3,3,3,1,fourth,14,27,F,R,IMT,2021-07-13_14h36.47.604,ImageRatingTask_S5,2021.1.4,MacIntel,60.0024001,,,,,,,,,,,,,,,,,
,,,,,,,,,,,,0,4,4,4,1,fifth,14,27,F,R,IMT,2021-07-13_14h36.47.604,ImageRatingTask_S5,2021.1.4,MacIntel,60.0024001,,,,,,,,,,,,,,,,,
,,,,,,,,,,,,0,5,5,5,1,sixth,14,27,F,R,IMT,2021-07-13_14h36.47.604,ImageRatingTask_S5,2021.1.4,MacIntel,60.0024001,,,,,,,,,,,,,,,,,
,,,,,,,,,,,,0,6,6,6,1,seventh,14,27,F,R,IMT,2021-07-13_14h36.47.604,ImageRatingTask_S5,2021.1.4,MacIntel,60.0024001,,,,,,,,,,,,,,,,,
,,,,,,,,,,,,0,7,7,7,1,last,14,27,F,R,IMT,2021-07-13_14h36.47.604,ImageRatingTask_S5,2021.1.4,MacIntel,60.0024001,,,,,,,,,,,,,,,,,
,,,,,,,,,,,,,,,,,,14,27,F,R,IMT,2021-07-13_14h36.47.604,ImageRatingTask_S5,2021.1.4,MacIntel,60.0024001,0,1,1,27,1,DreamStudyImages_rs1000x750g/Mammals/1350.jpg,,,,,,,,,,,
,,7,15.417,4,18.3509,6,2.482,1,2.3833,3,0.7631,0,0,0,0,1,main,14,27,F,R,IMT,2021-07-13_14h36.47.604,ImageRatingTask_S5,2021.1.4,MacIntel,60.0024001,,,,,,,,,,,,,,,,,
,,,,,,,,,,,,0,1,1,1,1,second,14,27,F,R,IMT,2021-07-13_14h36.47.604,ImageRatingTask_S5,2021.1.4,MacIntel,60.0024001,,,,,,,,,,,,,,,,,
,,,,,,,,,,,,0,2,2,2,1,third,14,27,F,R,IMT,2021-07-13_14h36.47.604,ImageRatingTask_S5,2021.1.4,MacIntel,60.0024001,,,,,,,,,,,,,,,,,
,,,,,,,,,,,,0,3,3,3,1,fourth,14,27,F,R,IMT,2021-07-13_14h36.47.604,ImageRatingTask_S5,2021.1.4,MacIntel,60.0024001,,,,,,,,,,,,,,,,,
,,,,,,,,,,,,0,4,4,4,1,fifth,14,27,F,R,IMT,2021-07-13_14h36.47.604,ImageRatingTask_S5,2021.1.4,MacIntel,60.0024001,,,,,,,,,,,,,,,,,
,,,,,,,,,,,,0,5,5,5,1,sixth,14,27,F,R,IMT,2021-07-13_14h36.47.604,ImageRatingTask_S5,2021.1.4,MacIntel,60.0024001,,,,,,,,,,,,,,,,,
,,,,,,,,,,,,0,6,6,6,1,seventh,14,27,F,R,IMT,2021-07-13_14h36.47.604,ImageRatingTask_S5,2021.1.4,MacIntel,60.0024001,,,,,,,,,,,,,,,,,
,,,,,,,,,,,,0,7,7,7,1,last,14,27,F,R,IMT,2021-07-13_14h36.47.604,ImageRatingTask_S5,2021.1.4,MacIntel,60.0024001,,,,,,,,,,,,,,,,,
,,,,,,,,,,,,,,,,,,14,27,F,R,IMT,2021-07-13_14h36.47.604,ImageRatingTask_S5,2021.1.4,MacIntel,60.0024001,0,2,2,133,1,DreamStudyImages_rs1000x750g/Mammals/Scared cat 1.jpg,,,,,,,,,,,
,,5,14.3813,3,10.902,7,2.7643,1,4.0645,8,1.5042,0,0,0,0,1,main,14,27,F,R,IMT,2021-07-13_14h36.47.604,ImageRatingTask_S5,2021.1.4,MacIntel,60.0024001,,,,,,,,,,,,,,,,,
,,,,,,,,,,,,0,1,1,1,1,second,14,27,F,R,IMT,2021-07-13_14h36.47.604,ImageRatingTask_S5,2021.1.4,MacIntel,60.0024001,,,,,,,,,,,,,,,,,
,,,,,,,,,,,,0,2,2,2,1,third,14,27,F,R,IMT,2021-07-13_14h36.47.604,ImageRatingTask_S5,2021.1.4,MacIntel,60.0024001,,,,,,,,,,,,,,,,,
,,,,,,,,,,,,0,3,3,3,1,fourth,14,27,F,R,IMT,2021-07-13_14h36.47.604,ImageRatingTask_S5,2021.1.4,MacIntel,60.0024001,,,,,,,,,,,,,,,,,
,,,,,,,,,,,,0,4,4,4,1,fifth,14,27,F,R,IMT,2021-07-13_14h36.47.604,ImageRatingTask_S5,2021.1.4,MacIntel,60.0024001,,,,,,,,,,,,,,,,,
,,,,,,,,,,,,0,5,5,5,1,sixth,14,27,F,R,IMT,2021-07-13_14h36.47.604,ImageRatingTask_S5,2021.1.4,MacIntel,60.0024001,,,,,,,,,,,,,,,,,
,,,,,,,,,,,,0,6,6,6,1,seventh,14,27,F,R,IMT,2021-07-13_14h36.47.604,ImageRatingTask_S5,2021.1.4,MacIntel,60.0024001,,,,,,,,,,,,,,,,,
,,,,,,,,,,,,0,7,7,7,1,last,14,27,F,R,IMT,2021-07-13_14h36.47.604,ImageRatingTask_S5,2021.1.4,MacIntel,60.0024001,,,,,,,,,,,,,,,,,
,,,,,,,,,,,,,,,,,,14,27,F,R,IMT,2021-07-13_14h36.47.604,ImageRatingTask_S5,2021.1.4,MacIntel,60.0024001,0,3,3,135,1,DreamStudyImages_rs1000x750g/Water/98.jpg,,,,,,,,,,,
,,3,11.2117,4,1.9678,2,3.2475,1,1.6166,3,3.4635,0,0,0,0,1,main,14,27,F,R,IMT,2021-07-13_14h36.47.604,ImageRatingTask_S5,2021.1.4,MacIntel,60.0024001,,,,,,,,,,,,,,,,,
,,,,,,,,,,,,0,1,1,1,1,second,14,27,F,R,IMT,2021-07-13_14h36.47.604,ImageRatingTask_S5,2021.1.4,MacIntel,60.0024001,,,,,,,,,,,,,,,,,
,,,,,,,,,,,,0,2,2,2,1,third,14,27,F,R,IMT,2021-07-13_14h36.47.604,ImageRatingTask_S5,2021.1.4,MacIntel,60.0024001,,,,,,,,,,,,,,,,,
,,,,,,,,,,,,0,3,3,3,1,fourth,14,27,F,R,IMT,2021-07-13_14h36.47.604,ImageRatingTask_S5,2021.1.4,MacIntel,60.0024001,,,,,,,,,,,,,,,,,
,,,,,,,,,,,,0,4,4,4,1,fifth,14,27,F,R,IMT,2021-07-13_14h36.47.604,ImageRatingTask_S5,2021.1.4,MacIntel,60.0024001,,,,,,,,,,,,,,,,,
,,,,,,,,,,,,0,5,5,5,1,sixth,14,27,F,R,IMT,2021-07-13_14h36.47.604,ImageRatingTask_S5,2021.1.4,MacIntel,60.0024001,,,,,,,,,,,,,,,,,
,,,,,,,,,,,,0,6,6,6,1,seventh,14,27,F,R,IMT,2021-07-13_14h36.47.604,ImageRatingTask_S5,2021.1.4,MacIntel,60.0024001,,,,,,,,,,,,,,,,,
,,,,,,,,,,,,0,7,7,7,1,last,14,27,F,R,IMT,2021-07-13_14h36.47.604,ImageRatingTask_S5,2021.1.4,MacIntel,60.0024001,,,,,,,,,,,,,,,,,
,,,,,,,,,,,,,,,,,,14,27,F,R,IMT,2021-07-13_14h36.47.604,ImageRatingTask_S5,2021.1.4,MacIntel,60.0024001,0,4,4,51,1,DreamStudyImages_rs1000x750g/Mammals/Animal carcass 3.jpg,,,,,,,,,,,
,,5,6.9685,1,1.0852,2,1.8158,1,0.7811,5,0.7608,0,0,0,0,1,main,14,27,F,R,IMT,2021-07-13_14h36.47.604,ImageRatingTask_S5,2021.1.4,MacIntel,60.0024001,,,,,,,,,,,,,,,,,
,,,,,,,,,,,,0,1,1,1,1,second,14,27,F,R,IMT,2021-07-13_14h36.47.604,ImageRatingTask_S5,2021.1.4,MacIntel,60.0024001,,,,,,,,,,,,,,,,,
,,,,,,,,,,,,0,2,2,2,1,third,14,27,F,R,IMT,2021-07-13_14h36.47.604,ImageRatingTask_S5,2021.1.4,MacIntel,60.0024001,,,,,,,,,,,,,,,,,
,,,,,,,,,,,,0,3,3,3,1,fourth,14,27,F,R,IMT,2021-07-13_14h36.47.604,ImageRatingTask_S5,2021.1.4,MacIntel,60.0024001,,,,,,,,,,,,,,,,,
,,,,,,,,,,,,0,4,4,4,1,fifth,14,27,F,R,IMT,2021-07-13_14h36.47.604,ImageRatingTask_S5,2021.1.4,MacIntel,60.0024001,,,,,,,,,,,,,,,,,
,,,,,,,,,,,,0,5,5,5,1,sixth,14,27,F,R,IMT,2021-07-13_14h36.47.604,ImageRatingTask_S5,2021.1.4,MacIntel,60.0024001,,,,,,,,,,,,,,,,,
,,,,,,,,,,,,0,6,6,6,1,seventh,14,27,F,R,IMT,2021-07-13_14h36.47.604,ImageRatingTask_S5,2021.1.4,MacIntel,60.0024001,,,,,,,,,,,,,,,,,
,,,,,,,,,,,,0,7,7,7,1,last,14,27,F,R,IMT,2021-07-13_14h36.47.604,ImageRatingTask_S5,2021.1.4,MacIntel,60.0024001,,,,,,,,,,,,,,,,,
,,,,,,,,,,,,,,,,,,14,27,F,R,IMT,2021-07-13_14h36.47.604,ImageRatingTask_S5,2021.1.4,MacIntel,60.0024001,0,5,5,147,1,DreamStudyImages_rs1000x750g/Food/IAPS7285_tomatoes.jpg,,,,,,,,,,,
,,5,5.0796,1,0.7174,4,0.9645,1,1.2786,6,1.1208,0,0,0,0,1,main,14,27,F,R,IMT,2021-07-13_14h36.47.604,ImageRatingTask_S5,2021.1.4,MacIntel,60.0024001,,,,,,,,,,,,,,,,,
,,,,,,,,,,,,0,1,1,1,1,second,14,27,F,R,IMT,2021-07-13_14h36.47.604,ImageRatingTask_S5,2021.1.4,MacIntel,60.0024001,,,,,,,,,,,,,,,,,
,,,,,,,,,,,,0,2,2,2,1,third,14,27,F,R,IMT,2021-07-13_14h36.47.604,ImageRatingTask_S5,2021.1.4,MacIntel,60.0024001,,,,,,,,,,,,,,,,,
,,,,,,,,,,,,0,3,3,3,1,fourth,14,27,F,R,IMT,2021-07-13_14h36.47.604,ImageRatingTask_S5,2021.1.4,MacIntel,60.0024001,,,,,,,,,,,,,,,,,
,,,,,,,,,,,,0,4,4,4,1,fifth,14,27,F,R,IMT,2021-07-13_14h36.47.604,ImageRatingTask_S5,2021.1.4,MacIntel,60.0024001,,,,,,,,,,,,,,,,,
,,,,,,,,,,,,0,5,5,5,1,sixth,14,27,F,R,IMT,2021-07-13_14h36.47.604,ImageRatingTask_S5,2021.1.4,MacIntel,60.0024001,,,,,,,,,,,,,,,,,
,,,,,,,,,,,,0,6,6,6,1,seventh,14,27,F,R,IMT,2021-07-13_14h36.47.604,ImageRatingTask_S5,2021.1.4,MacIntel,60.0024001,,,,,,,,,,,,,,,,,
,,,,,,,,,,,,0,7,7,7,1,last,14,27,F,R,IMT,2021-07-13_14h36.47.604,ImageRatingTask_S5,2021.1.4,MacIntel,60.0024001,,,,,,,,,,,,,,,,,
,,,,,,,,,,,,,,,,,,14,27,F,R,IMT,2021-07-13_14h36.47.604,ImageRatingTask_S5,2021.1.4,MacIntel,60.0024001,0,6,6,1,1,DreamStudyImages_rs1000x750g/Houses/Landscapes_050_h.jpg,,,,,,,,,,,
,,5,5.0823,1,0.8527,2,0.7345,1,5.3361,5,0.9614,0,0,0,0,1,main,14,27,F,R,IMT,2021-07-13_14h36.47.604,ImageRatingTask_S5,2021.1.4,MacIntel,60.0024001,,,,,,,,,,,,,,,,,
,,,,,,,,,,,,0,1,1,1,1,second,14,27,F,R,IMT,2021-07-13_14h36.47.604,ImageRatingTask_S5,2021.1.4,MacIntel,60.0024001,,,,,,,,,,,,,,,,,
,,,,,,,,,,,,0,2,2,2,1,third,14,27,F,R,IMT,2021-07-13_14h36.47.604,ImageRatingTask_S5,2021.1.4,MacIntel,60.0024001,,,,,,,,,,,,,,,,,
,,,,,,,,,,,,0,3,3,3,1,fourth,14,27,F,R,IMT,2021-07-13_14h36.47.604,ImageRatingTask_S5,2021.1.4,MacIntel,60.0024001,,,,,,,,,,,,,,,,,
,,,,,,,,,,,,0,4,4,4,1,fifth,14,27,F,R,IMT,2021-07-13_14h36.47.604,ImageRatingTask_S5,2021.1.4,MacIntel,60.0024001,,,,,,,,,,,,,,,,,
,,,,,,,,,,,,0,5,5,5,1,sixth,14,27,F,R,IMT,2021-07-13_14h36.47.604,ImageRatingTask_S5,2021.1.4,MacIntel,60.0024001,,,,,,,,,,,,,,,,,
,,,,,,,,,,,,0,6,6,6,1,seventh,14,27,F,R,IMT,2021-07-13_14h36.47.604,ImageRatingTask_S5,2021.1.4,MacIntel,60.0024001,,,,,,,,,,,,,,,,,
,,,,,,,,,,,,0,7,7,7,1,last,14,27,F,R,IMT,2021-07-13_14h36.47.604,ImageRatingTask_S5,2021.1.4,MacIntel,60.0024001,,,,,,,,,,,,,,,,,
,,,,,,,,,,,,,,,,,,14,27,F,R,IMT,2021-07-13_14h36.47.604,ImageRatingTask_S5,2021.1.4,MacIntel,60.0024001,0,7,7,52,1,DreamStudyImages_rs1000x750g/Food/IAPS7230_diner.jpg,,,,,,,,,,,
,,4,4.714,1,1.0255,7,1.6993,1,5.298,2,0.8116,0,0,0,0,1,main,14,27,F,R,IMT,2021-07-13_14h36.47.604,ImageRatingTask_S5,2021.1.4,MacIntel,60.0024001,,,,,,,,,,,,,,,,,
,,,,,,,,,,,,0,1,1,1,1,second,14,27,F,R,IMT,2021-07-13_14h36.47.604,ImageRatingTask_S5,2021.1.4,MacIntel,60.0024001,,,,,,,,,,,,,,,,,
,,,,,,,,,,,,0,2,2,2,1,third,14,27,F,R,IMT,2021-07-13_14h36.47.604,ImageRatingTask_S5,2021.1.4,MacIntel,60.0024001,,,,,,,,,,,,,,,,,
,,,,,,,,,,,,0,3,3,3,1,fourth,14,27,F,R,IMT,2021-07-13_14h36.47.604,ImageRatingTask_S5,2021.1.4,MacIntel,60.0024001,,,,,,,,,,,,,,,,,
,,,,,,,,,,,,0,4,4,4,1,fifth,14,27,F,R,IMT,2021-07-13_14h36.47.604,ImageRatingTask_S5,2021.1.4,MacIntel,60.0024001,,,,,,,,,,,,,,,,,
,,,,,,,,,,,,0,5,5,5,1,sixth,14,27,F,R,IMT,2021-07-13_14h36.47.604,ImageRatingTask_S5,2021.1.4,MacIntel,60.0024001,,,,,,,,,,,,,,,,,
,,,,,,,,,,,,0,6,6,6,1,seventh,14,27,F,R,IMT,2021-07-13_14h36.47.604,ImageRatingTask_S5,2021.1.4,MacIntel,60.0024001,,,,,,,,,,,,,,,,,
,,,,,,,,,,,,0,7,7,7,1,last,14,27,F,R,IMT,2021-07-13_14h36.47.604,ImageRatingTask_S5,2021.1.4,MacIntel,60.0024001,,,,,,,,,,,,,,,,,
,,,,,,,,,,,,,,,,,,14,27,F,R,IMT,2021-07-13_14h36.47.604,ImageRatingTask_S5,2021.1.4,MacIntel,60.0024001,0,8,8,44,1,DreamStudyImages_rs1000x750g/Children/Faces_155_h.jpg,,,,,,,,,,,
,,3,5.5188,3,1.8595,6,12.1188,1,2.2161,2,0.7269,0,0,0,0,1,main,14,27,F,R,IMT,2021-07-13_14h36.47.604,ImageRatingTask_S5,2021.1.4,MacIntel,60.0024001,,,,,,,,,,,,,,,,,
,,,,,,,,,,,,0,1,1,1,1,second,14,27,F,R,IMT,2021-07-13_14h36.47.604,ImageRatingTask_S5,2021.1.4,MacIntel,60.0024001,,,,,,,,,,,,,,,,,
,,,,,,,,,,,,0,2,2,2,1,third,14,27,F,R,IMT,2021-07-13_14h36.47.604,ImageRatingTask_S5,2021.1.4,MacIntel,60.0024001,,,,,,,,,,,,,,,,,
,,,,,,,,,,,,0,3,3,3,1,fourth,14,27,F,R,IMT,2021-07-13_14h36.47.604,ImageRatingTask_S5,2021.1.4,MacIntel,60.0024001,,,,,,,,,,,,,,,,,
,,,,,,,,,,,,0,4,4,4,1,fifth,14,27,F,R,IMT,2021-07-13_14h36.47.604,ImageRatingTask_S5,2021.1.4,MacIntel,60.0024001,,,,,,,,,,,,,,,,,
,,,,,,,,,,,,0,5,5,5,1,sixth,14,27,F,R,IMT,2021-07-13_14h36.47.604,ImageRatingTask_S5,2021.1.4,MacIntel,60.0024001,,,,,,,,,,,,,,,,,
,,,,,,,,,,,,0,6,6,6,1,seventh,14,27,F,R,IMT,2021-07-13_14h36.47.604,ImageRatingTask_S5,2021.1.4,MacIntel,60.0024001,,,,,,,,,,,,,,,,,
,,,,,,,,,,,,0,7,7,7,1,last,14,27,F,R,IMT,2021-07-13_14h36.47.604,ImageRatingTask_S5,2021.1.4,MacIntel,60.0024001,,,,,,,,,,,,,,,,,
,,,,,,,,,,,,,,,,,,14,27,F,R,IMT,2021-07-13_14h36.47.604,ImageRatingTask_S5,2021.1.4,MacIntel,60.0024001,0,9,9,15,1,DreamStudyImages_rs1000x750g/Children/Faces_369_v.jpg,,,,,,,,,,,
,,4,24.7345,2,1.1028,7,1.5844,1,0.9139,2,1.7434,0,0,0,0,1,main,14,27,F,R,IMT,2021-07-13_14h36.47.604,ImageRatingTask_S5,2021.1.4,MacIntel,60.0024001,,,,,,,,,,,,,,,,,
,,,,,,,,,,,,0,1,1,1,1,second,14,27,F,R,IMT,2021-07-13_14h36.47.604,ImageRatingTask_S5,2021.1.4,MacIntel,60.0024001,,,,,,,,,,,,,,,,,
,,,,,,,,,,,,0,2,2,2,1,third,14,27,F,R,IMT,2021-07-13_14h36.47.604,ImageRatingTask_S5,2021.1.4,MacIntel,60.0024001,,,,,,,,,,,,,,,,,
,,,,,,,,,,,,0,3,3,3,1,fourth,14,27,F,R,IMT,2021-07-13_14h36.47.604,ImageRatingTask_S5,2021.1.4,MacIntel,60.0024001,,,,,,,,,,,,,,,,,
,,,,,,,,,,,,0,4,4,4,1,fifth,14,27,F,R,IMT,2021-07-13_14h36.47.604,ImageRatingTask_S5,2021.1.4,MacIntel,60.0024001,,,,,,,,,,,,,,,,,
,,,,,,,,,,,,0,5,5,5,1,sixth,14,27,F,R,IMT,2021-07-13_14h36.47.604,ImageRatingTask_S5,2021.1.4,MacIntel,60.0024001,,,,,,,,,,,,,,,,,
,,,,,,,,,,,,0,6,6,6,1,seventh,14,27,F,R,IMT,2021-07-13_14h36.47.604,ImageRatingTask_S5,2021.1.4,MacIntel,60.0024001,,,,,,,,,,,,,,,,,
,,,,,,,,,,,,0,7,7,7,1,last,14,27,F,R,IMT,2021-07-13_14h36.47.604,ImageRatingTask_S5,2021.1.4,MacIntel,60.0024001,,,,,,,,,,,,,,,,,
,,,,,,,,,,,,,,,,,,14,27,F,R,IMT,2021-07-13_14h36.47.604,ImageRatingTask_S5,2021.1.4,MacIntel,60.0024001,0,10,10,125,1,DreamStudyImages_rs1000x750g/Children/Faces_038_h.jpg,,,,,,,,,,,
,,3,17.1812,2,2.4484,6,1.4463,1,0.9779,3,0.9109,0,0,0,0,1,main,14,27,F,R,IMT,2021-07-13_14h36.47.604,ImageRatingTask_S5,2021.1.4,MacIntel,60.0024001,,,,,,,,,,,,,,,,,
,,,,,,,,,,,,0,1,1,1,1,second,14,27,F,R,IMT,2021-07-13_14h36.47.604,ImageRatingTask_S5,2021.1.4,MacIntel,60.0024001,,,,,,,,,,,,,,,,,
,,,,,,,,,,,,0,2,2,2,1,third,14,27,F,R,IMT,2021-07-13_14h36.47.604,ImageRatingTask_S5,2021.1.4,MacIntel,60.0024001,,,,,,,,,,,,,,,,,
,,,,,,,,,,,,0,3,3,3,1,fourth,14,27,F,R,IMT,2021-07-13_14h36.47.604,ImageRatingTask_S5,2021.1.4,MacIntel,60.0024001,,,,,,,,,,,,,,,,,
,,,,,,,,,,,,0,4,4,4,1,fifth,14,27,F,R,IMT,2021-07-13_14h36.47.604,ImageRatingTask_S5,2021.1.4,MacIntel,60.0024001,,,,,,,,,,,,,,,,,
,,,,,,,,,,,,0,5,5,5,1,sixth,14,27,F,R,IMT,2021-07-13_14h36.47.604,ImageRatingTask_S5,2021.1.4,MacIntel,60.0024001,,,,,,,,,,,,,,,,,
,,,,,,,,,,,,0,6,6,6,1,seventh,14,27,F,R,IMT,2021-07-13_14h36.47.604,ImageRatingTask_S5,2021.1.4,MacIntel,60.0024001,,,,,,,,,,,,,,,,,
,,,,,,,,,,,,0,7,7,7,1,last,14,27,F,R,IMT,2021-07-13_14h36.47.604,ImageRatingTask_S5,2021.1.4,MacIntel,60.0024001,,,,,,,,,,,,,,,,,
,,,,,,,,,,,,,,,,,,14,27,F,R,IMT,2021-07-13_14h36.47.604,ImageRatingTask_S5,2021.1.4,MacIntel,60.0024001,0,11,11,68,1,DreamStudyImages_rs1000x750g/Mammals/Wolf 2.jpg,,,,,,,,,,,
,,5,13.2497,1,0.635,4,1.4024,1,0.967,6,2.4641,0,0,0,0,1,main,14,27,F,R,IMT,2021-07-13_14h36.47.604,ImageRatingTask_S5,2021.1.4,MacIntel,60.0024001,,,,,,,,,,,,,,,,,
,,,,,,,,,,,,0,1,1,1,1,second,14,27,F,R,IMT,2021-07-13_14h36.47.604,ImageRatingTask_S5,2021.1.4,MacIntel,60.0024001,,,,,,,,,,,,,,,,,
,,,,,,,,,,,,0,2,2,2,1,third,14,27,F,R,IMT,2021-07-13_14h36.47.604,ImageRatingTask_S5,2021.1.4,MacIntel,60.0024001,,,,,,,,,,,,,,,,,
,,,,,,,,,,,,0,3,3,3,1,fourth,14,27,F,R,IMT,2021-07-13_14h36.47.604,ImageRatingTask_S5,2021.1.4,MacIntel,60.0024001,,,,,,,,,,,,,,,,,
,,,,,,,,,,,,0,4,4,4,1,fifth,14,27,F,R,IMT,2021-07-13_14h36.47.604,ImageRatingTask_S5,2021.1.4,MacIntel,60.0024001,,,,,,,,,,,,,,,,,
,,,,,,,,,,,,0,5,5,5,1,sixth,14,27,F,R,IMT,2021-07-13_14h36.47.604,ImageRatingTask_S5,2021.1.4,MacIntel,60.0024001,,,,,,,,,,,,,,,,,
,,,,,,,,,,,,0,6,6,6,1,seventh,14,27,F,R,IMT,2021-07-13_14h36.47.604,ImageRatingTask_S5,2021.1.4,MacIntel,60.0024001,,,,,,,,,,,,,,,,,
,,,,,,,,,,,,0,7,7,7,1,last,14,27,F,R,IMT,2021-07-13_14h36.47.604,ImageRatingTask_S5,2021.1.4,MacIntel,60.0024001,,,,,,,,,,,,,,,,,
,,,,,,,,,,,,,,,,,,14,27,F,R,IMT,2021-07-13_14h36.47.604,ImageRatingTask_S5,2021.1.4,MacIntel,60.0024001,0,12,12,6,1,DreamStudyImages_rs1000x750g/Houses/Landscapes_013_v.jpg,,,,,,,,,,,
,,6,3.4833,1,0.9517,7,1.6149,1,4.6348,8,1.2885,0,0,0,0,1,main,14,27,F,R,IMT,2021-07-13_14h36.47.604,ImageRatingTask_S5,2021.1.4,MacIntel,60.0024001,,,,,,,,,,,,,,,,,
,,,,,,,,,,,,0,1,1,1,1,second,14,27,F,R,IMT,2021-07-13_14h36.47.604,ImageRatingTask_S5,2021.1.4,MacIntel,60.0024001,,,,,,,,,,,,,,,,,
,,,,,,,,,,,,0,2,2,2,1,third,14,27,F,R,IMT,2021-07-13_14h36.47.604,ImageRatingTask_S5,2021.1.4,MacIntel,60.0024001,,,,,,,,,,,,,,,,,
,,,,,,,,,,,,0,3,3,3,1,fourth,14,27,F,R,IMT,2021-07-13_14h36.47.604,ImageRatingTask_S5,2021.1.4,MacIntel,60.0024001,,,,,,,,,,,,,,,,,
,,,,,,,,,,,,0,4,4,4,1,fifth,14,27,F,R,IMT,2021-07-13_14h36.47.604,ImageRatingTask_S5,2021.1.4,MacIntel,60.0024001,,,,,,,,,,,,,,,,,
,,,,,,,,,,,,0,5,5,5,1,sixth,14,27,F,R,IMT,2021-07-13_14h36.47.604,ImageRatingTask_S5,2021.1.4,MacIntel,60.0024001,,,,,,,,,,,,,,,,,
,,,,,,,,,,,,0,6,6,6,1,seventh,14,27,F,R,IMT,2021-07-13_14h36.47.604,ImageRatingTask_S5,2021.1.4,MacIntel,60.0024001,,,,,,,,,,,,,,,,,
,,,,,,,,,,,,0,7,7,7,1,last,14,27,F,R,IMT,2021-07-13_14h36.47.604,ImageRatingTask_S5,2021.1.4,MacIntel,60.0024001,,,,,,,,,,,,,,,,,
,,,,,,,,,,,,,,,,,,14,27,F,R,IMT,2021-07-13_14h36.47.604,ImageRatingTask_S5,2021.1.4,MacIntel,60.0024001,0,13,13,111,1,DreamStudyImages_rs1000x750g/Water/naturepool.jpg,,,,,,,,,,,
,,5,4.4135,1,0.754,7,2.184,1,1.168,5,0.8133,0,0,0,0,1,main,14,27,F,R,IMT,2021-07-13_14h36.47.604,ImageRatingTask_S5,2021.1.4,MacIntel,60.0024001,,,,,,,,,,,,,,,,,
,,,,,,,,,,,,0,1,1,1,1,second,14,27,F,R,IMT,2021-07-13_14h36.47.604,ImageRatingTask_S5,2021.1.4,MacIntel,60.0024001,,,,,,,,,,,,,,,,,
,,,,,,,,,,,,0,2,2,2,1,third,14,27,F,R,IMT,2021-07-13_14h36.47.604,ImageRatingTask_S5,2021.1.4,MacIntel,60.0024001,,,,,,,,,,,,,,,,,
,,,,,,,,,,,,0,3,3,3,1,fourth,14,27,F,R,IMT,2021-07-13_14h36.47.604,ImageRatingTask_S5,2021.1.4,MacIntel,60.0024001,,,,,,,,,,,,,,,,,
,,,,,,,,,,,,0,4,4,4,1,fifth,14,27,F,R,IMT,2021-07-13_14h36.47.604,ImageRatingTask_S5,2021.1.4,MacIntel,60.0024001,,,,,,,,,,,,,,,,,
,,,,,,,,,,,,0,5,5,5,1,sixth,14,27,F,R,IMT,2021-07-13_14h36.47.604,ImageRatingTask_S5,2021.1.4,MacIntel,60.0024001,,,,,,,,,,,,,,,,,
,,,,,,,,,,,,0,6,6,6,1,seventh,14,27,F,R,IMT,2021-07-13_14h36.47.604,ImageRatingTask_S5,2021.1.4,MacIntel,60.0024001,,,,,,,,,,,,,,,,,
,,,,,,,,,,,,0,7,7,7,1,last,14,27,F,R,IMT,2021-07-13_14h36.47.604,ImageRatingTask_S5,2021.1.4,MacIntel,60.0024001,,,,,,,,,,,,,,,,,
,,,,,,,,,,,,,,,,,,14,27,F,R,IMT,2021-07-13_14h36.47.604,ImageRatingTask_S5,2021.1.4,MacIntel,60.0024001,0,14,14,117,1,DreamStudyImages_rs1000x750g/Food/Objects_020_h.jpg,,,,,,,,,,,
,,7,5.9487,4,2.0301,5,2.9299,1,1.1977,6,0.9777,0,0,0,0,1,main,14,27,F,R,IMT,2021-07-13_14h36.47.604,ImageRatingTask_S5,2021.1.4,MacIntel,60.0024001,,,,,,,,,,,,,,,,,
,,,,,,,,,,,,0,1,1,1,1,second,14,27,F,R,IMT,2021-07-13_14h36.47.604,ImageRatingTask_S5,2021.1.4,MacIntel,60.0024001,,,,,,,,,,,,,,,,,
,,,,,,,,,,,,0,2,2,2,1,third,14,27,F,R,IMT,2021-07-13_14h36.47.604,ImageRatingTask_S5,2021.1.4,MacIntel,60.0024001,,,,,,,,,,,,,,,,,
,,,,,,,,,,,,0,3,3,3,1,fourth,14,27,F,R,IMT,2021-07-13_14h36.47.604,ImageRatingTask_S5,2021.1.4,MacIntel,60.0024001,,,,,,,,,,,,,,,,,
,,,,,,,,,,,,0,4,4,4,1,fifth,14,27,F,R,IMT,2021-07-13_14h36.47.604,ImageRatingTask_S5,2021.1.4,MacIntel,60.0024001,,,,,,,,,,,,,,,,,
,,,,,,,,,,,,0,5,5,5,1,sixth,14,27,F,R,IMT,2021-07-13_14h36.47.604,ImageRatingTask_S5,2021.1.4,MacIntel,60.0024001,,,,,,,,,,,,,,,,,
,,,,,,,,,,,,0,6,6,6,1,seventh,14,27,F,R,IMT,2021-07-13_14h36.47.604,ImageRatingTask_S5,2021.1.4,MacIntel,60.0024001,,,,,,,,,,,,,,,,,
,,,,,,,,,,,,0,7,7,7,1,last,14,27,F,R,IMT,2021-07-13_14h36.47.604,ImageRatingTask_S5,2021.1.4,MacIntel,60.0024001,,,,,,,,,,,,,,,,,
,,,,,,,,,,,,,,,,,,14,27,F,R,IMT,2021-07-13_14h36.47.604,ImageRatingTask_S5,2021.1.4,MacIntel,60.0024001,0,15,15,144,1,DreamStudyImages_rs1000x750g/Houses/Landscapes_073_h.jpg,,,,,,,,,,,
,,6,8.131,1,1.061,4,2.0975,1,1.8513,5,0.9287,0,0,0,0,1,main,14,27,F,R,IMT,2021-07-13_14h36.47.604,ImageRatingTask_S5,2021.1.4,MacIntel,60.0024001,,,,,,,,,,,,,,,,,
,,,,,,,,,,,,0,1,1,1,1,second,14,27,F,R,IMT,2021-07-13_14h36.47.604,ImageRatingTask_S5,2021.1.4,MacIntel,60.0024001,,,,,,,,,,,,,,,,,
,,,,,,,,,,,,0,2,2,2,1,third,14,27,F,R,IMT,2021-07-13_14h36.47.604,ImageRatingTask_S5,2021.1.4,MacIntel,60.0024001,,,,,,,,,,,,,,,,,
,,,,,,,,,,,,0,3,3,3,1,fourth,14,27,F,R,IMT,2021-07-13_14h36.47.604,ImageRatingTask_S5,2021.1.4,MacIntel,60.0024001,,,,,,,,,,,,,,,,,
,,,,,,,,,,,,0,4,4,4,1,fifth,14,27,F,R,IMT,2021-07-13_14h36.47.604,ImageRatingTask_S5,2021.1.4,MacIntel,60.0024001,,,,,,,,,,,,,,,,,
,,,,,,,,,,,,0,5,5,5,1,sixth,14,27,F,R,IMT,2021-07-13_14h36.47.604,ImageRatingTask_S5,2021.1.4,MacIntel,60.0024001,,,,,,,,,,,,,,,,,
,,,,,,,,,,,,0,6,6,6,1,seventh,14,27,F,R,IMT,2021-07-13_14h36.47.604,ImageRatingTask_S5,2021.1.4,MacIntel,60.0024001,,,,,,,,,,,,,,,,,
,,,,,,,,,,,,0,7,7,7,1,last,14,27,F,R,IMT,2021-07-13_14h36.47.604,ImageRatingTask_S5,2021.1.4,MacIntel,60.0024001,,,,,,,,,,,,,,,,,
,,,,,,,,,,,,,,,,,,14,27,F,R,IMT,2021-07-13_14h36.47.604,ImageRatingTask_S5,2021.1.4,MacIntel,60.0024001,0,16,16,123,1,DreamStudyImages_rs1000x750g/Food/IAPS7476_soup.jpg,,,,,,,,,,,
,,5,2.5989,1,0.6354,1,0.49,1,0.7814,5,0.8134,0,0,0,0,1,main,14,27,F,R,IMT,2021-07-13_14h36.47.604,ImageRatingTask_S5,2021.1.4,MacIntel,60.0024001,,,,,,,,,,,,,,,,,
,,,,,,,,,,,,0,1,1,1,1,second,14,27,F,R,IMT,2021-07-13_14h36.47.604,ImageRatingTask_S5,2021.1.4,MacIntel,60.0024001,,,,,,,,,,,,,,,,,
,,,,,,,,,,,,0,2,2,2,1,third,14,27,F,R,IMT,2021-07-13_14h36.47.604,ImageRatingTask_S5,2021.1.4,MacIntel,60.0024001,,,,,,,,,,,,,,,,,
,,,,,,,,,,,,0,3,3,3,1,fourth,14,27,F,R,IMT,2021-07-13_14h36.47.604,ImageRatingTask_S5,2021.1.4,MacIntel,60.0024001,,,,,,,,,,,,,,,,,
,,,,,,,,,,,,0,4,4,4,1,fifth,14,27,F,R,IMT,2021-07-13_14h36.47.604,ImageRatingTask_S5,2021.1.4,MacIntel,60.0024001,,,,,,,,,,,,,,,,,
,,,,,,,,,,,,0,5,5,5,1,sixth,14,27,F,R,IMT,2021-07-13_14h36.47.604,ImageRatingTask_S5,2021.1.4,MacIntel,60.0024001,,,,,,,,,,,,,,,,,
,,,,,,,,,,,,0,6,6,6,1,seventh,14,27,F,R,IMT,2021-07-13_14h36.47.604,ImageRatingTask_S5,2021.1.4,MacIntel,60.0024001,,,,,,,,,,,,,,,,,
,,,,,,,,,,,,0,7,7,7,1,last,14,27,F,R,IMT,2021-07-13_14h36.47.604,ImageRatingTask_S5,2021.1.4,MacIntel,60.0024001,,,,,,,,,,,,,,,,,
,,,,,,,,,,,,,,,,,,14,27,F,R,IMT,2021-07-13_14h36.47.604,ImageRatingTask_S5,2021.1.4,MacIntel,60.0024001,0,17,17,45,1,DreamStudyImages_rs1000x750g/Food/IAPS7291_chicken.jpg,,,,,,,,,,,
,,2,2.527,5,1.1194,6,5.6147,1,1.4278,2,0.9871,0,0,0,0,1,main,14,27,F,R,IMT,2021-07-13_14h36.47.604,ImageRatingTask_S5,2021.1.4,MacIntel,60.0024001,,,,,,,,,,,,,,,,,
,,,,,,,,,,,,0,1,1,1,1,second,14,27,F,R,IMT,2021-07-13_14h36.47.604,ImageRatingTask_S5,2021.1.4,MacIntel,60.0024001,,,,,,,,,,,,,,,,,
,,,,,,,,,,,,0,2,2,2,1,third,14,27,F,R,IMT,2021-07-13_14h36.47.604,ImageRatingTask_S5,2021.1.4,MacIntel,60.0024001,,,,,,,,,,,,,,,,,
,,,,,,,,,,,,0,3,3,3,1,fourth,14,27,F,R,IMT,2021-07-13_14h36.47.604,ImageRatingTask_S5,2021.1.4,MacIntel,60.0024001,,,,,,,,,,,,,,,,,
,,,,,,,,,,,,0,4,4,4,1,fifth,14,27,F,R,IMT,2021-07-13_14h36.47.604,ImageRatingTask_S5,2021.1.4,MacIntel,60.0024001,,,,,,,,,,,,,,,,,
,,,,,,,,,,,,0,5,5,5,1,sixth,14,27,F,R,IMT,2021-07-13_14h36.47.604,ImageRatingTask_S5,2021.1.4,MacIntel,60.0024001,,,,,,,,,,,,,,,,,
,,,,,,,,,,,,0,6,6,6,1,seventh,14,27,F,R,IMT,2021-07-13_14h36.47.604,ImageRatingTask_S5,2021.1.4,MacIntel,60.0024001,,,,,,,,,,,,,,,,,
,,,,,,,,,,,,0,7,7,7,1,last,14,27,F,R,IMT,2021-07-13_14h36.47.604,ImageRatingTask_S5,2021.1.4,MacIntel,60.0024001,,,,,,,,,,,,,,,,,
,,,,,,,,,,,,,,,,,,14,27,F,R,IMT,2021-07-13_14h36.47.604,ImageRatingTask_S5,2021.1.4,MacIntel,60.0024001,0,18,18,95,1,DreamStudyImages_rs1000x750g/Children/People_037_h_CROPPED.jpg,,,,,,,,,,,
,,9,3.0836,6,9.1282,7,1.6476,1,1.7985,3,0.946,0,0,0,0,1,main,14,27,F,R,IMT,2021-07-13_14h36.47.604,ImageRatingTask_S5,2021.1.4,MacIntel,60.0024001,,,,,,,,,,,,,,,,,
,,,,,,,,,,,,0,1,1,1,1,second,14,27,F,R,IMT,2021-07-13_14h36.47.604,ImageRatingTask_S5,2021.1.4,MacIntel,60.0024001,,,,,,,,,,,,,,,,,
,,,,,,,,,,,,0,2,2,2,1,third,14,27,F,R,IMT,2021-07-13_14h36.47.604,ImageRatingTask_S5,2021.1.4,MacIntel,60.0024001,,,,,,,,,,,,,,,,,
,,,,,,,,,,,,0,3,3,3,1,fourth,14,27,F,R,IMT,2021-07-13_14h36.47.604,ImageRatingTask_S5,2021.1.4,MacIntel,60.0024001,,,,,,,,,,,,,,,,,
,,,,,,,,,,,,0,4,4,4,1,fifth,14,27,F,R,IMT,2021-07-13_14h36.47.604,ImageRatingTask_S5,2021.1.4,MacIntel,60.0024001,,,,,,,,,,,,,,,,,
,,,,,,,,,,,,0,5,5,5,1,sixth,14,27,F,R,IMT,2021-07-13_14h36.47.604,ImageRatingTask_S5,2021.1.4,MacIntel,60.0024001,,,,,,,,,,,,,,,,,
,,,,,,,,,,,,0,6,6,6,1,seventh,14,27,F,R,IMT,2021-07-13_14h36.47.604,ImageRatingTask_S5,2021.1.4,MacIntel,60.0024001,,,,,,,,,,,,,,,,,
,,,,,,,,,,,,0,7,7,7,1,last,14,27,F,R,IMT,2021-07-13_14h36.47.604,ImageRatingTask_S5,2021.1.4,MacIntel,60.0024001,,,,,,,,,,,,,,,,,
,,,,,,,,,,,,,,,,,,14,27,F,R,IMT,2021-07-13_14h36.47.604,ImageRatingTask_S5,2021.1.4,MacIntel,60.0024001,0,19,19,18,1,DreamStudyImages_rs1000x750g/Mammals/Animals_177_h.jpg,,,,,,,,,,,
,,5,3.7999,1,0.8705,2,0.9308,1,1.1822,7,0.9463,0,0,0,0,1,main,14,27,F,R,IMT,2021-07-13_14h36.47.604,ImageRatingTask_S5,2021.1.4,MacIntel,60.0024001,,,,,,,,,,,,,,,,,
,,,,,,,,,,,,0,1,1,1,1,second,14,27,F,R,IMT,2021-07-13_14h36.47.604,ImageRatingTask_S5,2021.1.4,MacIntel,60.0024001,,,,,,,,,,,,,,,,,
,,,,,,,,,,,,0,2,2,2,1,third,14,27,F,R,IMT,2021-07-13_14h36.47.604,ImageRatingTask_S5,2021.1.4,MacIntel,60.0024001,,,,,,,,,,,,,,,,,
,,,,,,,,,,,,0,3,3,3,1,fourth,14,27,F,R,IMT,2021-07-13_14h36.47.604,ImageRatingTask_S5,2021.1.4,MacIntel,60.0024001,,,,,,,,,,,,,,,,,
,,,,,,,,,,,,0,4,4,4,1,fifth,14,27,F,R,IMT,2021-07-13_14h36.47.604,ImageRatingTask_S5,2021.1.4,MacIntel,60.0024001,,,,,,,,,,,,,,,,,
,,,,,,,,,,,,0,5,5,5,1,sixth,14,27,F,R,IMT,2021-07-13_14h36.47.604,ImageRatingTask_S5,2021.1.4,MacIntel,60.0024001,,,,,,,,,,,,,,,,,
,,,,,,,,,,,,0,6,6,6,1,seventh,14,27,F,R,IMT,2021-07-13_14h36.47.604,ImageRatingTask_S5,2021.1.4,MacIntel,60.0024001,,,,,,,,,,,,,,,,,
,,,,,,,,,,,,0,7,7,7,1,last,14,27,F,R,IMT,2021-07-13_14h36.47.604,ImageRatingTask_S5,2021.1.4,MacIntel,60.0024001,,,,,,,,,,,,,,,,,
,,,,,,,,,,,,,,,,,,14,27,F,R,IMT,2021-07-13_14h36.47.604,ImageRatingTask_S5,2021.1.4,MacIntel,60.0024001,0,20,20,85,1,DreamStudyImages_rs1000x750g/Vehicles/Car 1.jpg,,,,,,,,,,,
,,5,2.692,1,0.435,5,1.1794,1,2.1808,5,0.8638,0,0,0,0,1,main,14,27,F,R,IMT,2021-07-13_14h36.47.604,ImageRatingTask_S5,2021.1.4,MacIntel,60.0024001,,,,,,,,,,,,,,,,,
,,,,,,,,,,,,0,1,1,1,1,second,14,27,F,R,IMT,2021-07-13_14h36.47.604,ImageRatingTask_S5,2021.1.4,MacIntel,60.0024001,,,,,,,,,,,,,,,,,
,,,,,,,,,,,,0,2,2,2,1,third,14,27,F,R,IMT,2021-07-13_14h36.47.604,ImageRatingTask_S5,2021.1.4,MacIntel,60.0024001,,,,,,,,,,,,,,,,,
,,,,,,,,,,,,0,3,3,3,1,fourth,14,27,F,R,IMT,2021-07-13_14h36.47.604,ImageRatingTask_S5,2021.1.4,MacIntel,60.0024001,,,,,,,,,,,,,,,,,
,,,,,,,,,,,,0,4,4,4,1,fifth,14,27,F,R,IMT,2021-07-13_14h36.47.604,ImageRatingTask_S5,2021.1.4,MacIntel,60.0024001,,,,,,,,,,,,,,,,,
,,,,,,,,,,,,0,5,5,5,1,sixth,14,27,F,R,IMT,2021-07-13_14h36.47.604,ImageRatingTask_S5,2021.1.4,MacIntel,60.0024001,,,,,,,,,,,,,,,,,
,,,,,,,,,,,,0,6,6,6,1,seventh,14,27,F,R,IMT,2021-07-13_14h36.47.604,ImageRatingTask_S5,2021.1.4,MacIntel,60.0024001,,,,,,,,,,,,,,,,,
,,,,,,,,,,,,0,7,7,7,1,last,14,27,F,R,IMT,2021-07-13_14h36.47.604,ImageRatingTask_S5,2021.1.4,MacIntel,60.0024001,,,,,,,,,,,,,,,,,
,,,,,,,,,,,,,,,,,,14,27,F,R,IMT,2021-07-13_14h36.47.604,ImageRatingTask_S5,2021.1.4,MacIntel,60.0024001,0,21,21,109,1,DreamStudyImages_rs1000x750g/Food/Objects_043_h.jpg,,,,,,,,,,,
,,1,2.4981,5,2.0352,6,1.5305,1,1.2315,3,1.0951,0,0,0,0,1,main,14,27,F,R,IMT,2021-07-13_14h36.47.604,ImageRatingTask_S5,2021.1.4,MacIntel,60.0024001,,,,,,,,,,,,,,,,,
,,,,,,,,,,,,0,1,1,1,1,second,14,27,F,R,IMT,2021-07-13_14h36.47.604,ImageRatingTask_S5,2021.1.4,MacIntel,60.0024001,,,,,,,,,,,,,,,,,
,,,,,,,,,,,,0,2,2,2,1,third,14,27,F,R,IMT,2021-07-13_14h36.47.604,ImageRatingTask_S5,2021.1.4,MacIntel,60.0024001,,,,,,,,,,,,,,,,,
,,,,,,,,,,,,0,3,3,3,1,fourth,14,27,F,R,IMT,2021-07-13_14h36.47.604,ImageRatingTask_S5,2021.1.4,MacIntel,60.0024001,,,,,,,,,,,,,,,,,
,,,,,,,,,,,,0,4,4,4,1,fifth,14,27,F,R,IMT,2021-07-13_14h36.47.604,ImageRatingTask_S5,2021.1.4,MacIntel,60.0024001,,,,,,,,,,,,,,,,,
,,,,,,,,,,,,0,5,5,5,1,sixth,14,27,F,R,IMT,2021-07-13_14h36.47.604,ImageRatingTask_S5,2021.1.4,MacIntel,60.0024001,,,,,,,,,,,,,,,,,
,,,,,,,,,,,,0,6,6,6,1,seventh,14,27,F,R,IMT,2021-07-13_14h36.47.604,ImageRatingTask_S5,2021.1.4,MacIntel,60.0024001,,,,,,,,,,,,,,,,,
,,,,,,,,,,,,0,7,7,7,1,last,14,27,F,R,IMT,2021-07-13_14h36.47.604,ImageRatingTask_S5,2021.1.4,MacIntel,60.0024001,,,,,,,,,,,,,,,,,
,,,,,,,,,,,,,,,,,,14,27,F,R,IMT,2021-07-13_14h36.47.604,ImageRatingTask_S5,2021.1.4,MacIntel,60.0024001,0,22,22,145,1,DreamStudyImages_rs1000x750g/Mammals/Animals_038_h.jpg,,,,,,,,,,,
,,5,3.6998,1,1.0854,2,2.5156,1,1.9491,7,0.696,0,0,0,0,1,main,14,27,F,R,IMT,2021-07-13_14h36.47.604,ImageRatingTask_S5,2021.1.4,MacIntel,60.0024001,,,,,,,,,,,,,,,,,
,,,,,,,,,,,,0,1,1,1,1,second,14,27,F,R,IMT,2021-07-13_14h36.47.604,ImageRatingTask_S5,2021.1.4,MacIntel,60.0024001,,,,,,,,,,,,,,,,,
,,,,,,,,,,,,0,2,2,2,1,third,14,27,F,R,IMT,2021-07-13_14h36.47.604,ImageRatingTask_S5,2021.1.4,MacIntel,60.0024001,,,,,,,,,,,,,,,,,
,,,,,,,,,,,,0,3,3,3,1,fourth,14,27,F,R,IMT,2021-07-13_14h36.47.604,ImageRatingTask_S5,2021.1.4,MacIntel,60.0024001,,,,,,,,,,,,,,,,,
,,,,,,,,,,,,0,4,4,4,1,fifth,14,27,F,R,IMT,2021-07-13_14h36.47.604,ImageRatingTask_S5,2021.1.4,MacIntel,60.0024001,,,,,,,,,,,,,,,,,
,,,,,,,,,,,,0,5,5,5,1,sixth,14,27,F,R,IMT,2021-07-13_14h36.47.604,ImageRatingTask_S5,2021.1.4,MacIntel,60.0024001,,,,,,,,,,,,,,,,,
,,,,,,,,,,,,0,6,6,6,1,seventh,14,27,F,R,IMT,2021-07-13_14h36.47.604,ImageRatingTask_S5,2021.1.4,MacIntel,60.0024001,,,,,,,,,,,,,,,,,
,,,,,,,,,,,,0,7,7,7,1,last,14,27,F,R,IMT,2021-07-13_14h36.47.604,ImageRatingTask_S5,2021.1.4,MacIntel,60.0024001,,,,,,,,,,,,,,,,,
,,,,,,,,,,,,,,,,,,14,27,F,R,IMT,2021-07-13_14h36.47.604,ImageRatingTask_S5,2021.1.4,MacIntel,60.0024001,0,23,23,152,1,DreamStudyImages_rs1000x750g/Vehicles/rheingoldtrain_CROPPED.jpg,,,,,,,,,,,
,,5,2.6665,1,0.697,1,0.9473,1,0.8798,5,0.7957,0,0,0,0,1,main,14,27,F,R,IMT,2021-07-13_14h36.47.604,ImageRatingTask_S5,2021.1.4,MacIntel,60.0024001,,,,,,,,,,,,,,,,,
,,,,,,,,,,,,0,1,1,1,1,second,14,27,F,R,IMT,2021-07-13_14h36.47.604,ImageRatingTask_S5,2021.1.4,MacIntel,60.0024001,,,,,,,,,,,,,,,,,
,,,,,,,,,,,,0,2,2,2,1,third,14,27,F,R,IMT,2021-07-13_14h36.47.604,ImageRatingTask_S5,2021.1.4,MacIntel,60.0024001,,,,,,,,,,,,,,,,,
,,,,,,,,,,,,0,3,3,3,1,fourth,14,27,F,R,IMT,2021-07-13_14h36.47.604,ImageRatingTask_S5,2021.1.4,MacIntel,60.0024001,,,,,,,,,,,,,,,,,
,,,,,,,,,,,,0,4,4,4,1,fifth,14,27,F,R,IMT,2021-07-13_14h36.47.604,ImageRatingTask_S5,2021.1.4,MacIntel,60.0024001,,,,,,,,,,,,,,,,,
,,,,,,,,,,,,0,5,5,5,1,sixth,14,27,F,R,IMT,2021-07-13_14h36.47.604,ImageRatingTask_S5,2021.1.4,MacIntel,60.0024001,,,,,,,,,,,,,,,,,
,,,,,,,,,,,,0,6,6,6,1,seventh,14,27,F,R,IMT,2021-07-13_14h36.47.604,ImageRatingTask_S5,2021.1.4,MacIntel,60.0024001,,,,,,,,,,,,,,,,,
,,,,,,,,,,,,0,7,7,7,1,last,14,27,F,R,IMT,2021-07-13_14h36.47.604,ImageRatingTask_S5,2021.1.4,MacIntel,60.0024001,,,,,,,,,,,,,,,,,
,,,,,,,,,,,,,,,,,,14,27,F,R,IMT,2021-07-13_14h36.47.604,ImageRatingTask_S5,2021.1.4,MacIntel,60.0024001,0,24,24,0,1,DreamStudyImages_rs1000x750g/Food/IAPS7320_fruitbasket2.jpg,,,,,,,,,,,
,,5,1.7686,1,0.4928,6,1.0826,1,1.7646,6,0.7926,0,0,0,0,1,main,14,27,F,R,IMT,2021-07-13_14h36.47.604,ImageRatingTask_S5,2021.1.4,MacIntel,60.0024001,,,,,,,,,,,,,,,,,
,,,,,,,,,,,,0,1,1,1,1,second,14,27,F,R,IMT,2021-07-13_14h36.47.604,ImageRatingTask_S5,2021.1.4,MacIntel,60.0024001,,,,,,,,,,,,,,,,,
,,,,,,,,,,,,0,2,2,2,1,third,14,27,F,R,IMT,2021-07-13_14h36.47.604,ImageRatingTask_S5,2021.1.4,MacIntel,60.0024001,,,,,,,,,,,,,,,,,
,,,,,,,,,,,,0,3,3,3,1,fourth,14,27,F,R,IMT,2021-07-13_14h36.47.604,ImageRatingTask_S5,2021.1.4,MacIntel,60.0024001,,,,,,,,,,,,,,,,,
,,,,,,,,,,,,0,4,4,4,1,fifth,14,27,F,R,IMT,2021-07-13_14h36.47.604,ImageRatingTask_S5,2021.1.4,MacIntel,60.0024001,,,,,,,,,,,,,,,,,
,,,,,,,,,,,,0,5,5,5,1,sixth,14,27,F,R,IMT,2021-07-13_14h36.47.604,ImageRatingTask_S5,2021.1.4,MacIntel,60.0024001,,,,,,,,,,,,,,,,,
,,,,,,,,,,,,0,6,6,6,1,seventh,14,27,F,R,IMT,2021-07-13_14h36.47.604,ImageRatingTask_S5,2021.1.4,MacIntel,60.0024001,,,,,,,,,,,,,,,,,
,,,,,,,,,,,,0,7,7,7,1,last,14,27,F,R,IMT,2021-07-13_14h36.47.604,ImageRatingTask_S5,2021.1.4,MacIntel,60.0024001,,,,,,,,,,,,,,,,,
,,,,,,,,,,,,,,,,,,14,27,F,R,IMT,2021-07-13_14h36.47.604,ImageRatingTask_S5,2021.1.4,MacIntel,60.0024001,0,25,25,62,1,DreamStudyImages_rs1000x750g/Houses/abandonedhouse.jpg,,,,,,,,,,,
,,6,5.1516,1,1.467,3,12.9648,1,2.7644,3,0.9635,0,0,0,0,1,main,14,27,F,R,IMT,2021-07-13_14h36.47.604,ImageRatingTask_S5,2021.1.4,MacIntel,60.0024001,,,,,,,,,,,,,,,,,
,,,,,,,,,,,,0,1,1,1,1,second,14,27,F,R,IMT,2021-07-13_14h36.47.604,ImageRatingTask_S5,2021.1.4,MacIntel,60.0024001,,,,,,,,,,,,,,,,,
,,,,,,,,,,,,0,2,2,2,1,third,14,27,F,R,IMT,2021-07-13_14h36.47.604,ImageRatingTask_S5,2021.1.4,MacIntel,60.0024001,,,,,,,,,,,,,,,,,
,,,,,,,,,,,,0,3,3,3,1,fourth,14,27,F,R,IMT,2021-07-13_14h36.47.604,ImageRatingTask_S5,2021.1.4,MacIntel,60.0024001,,,,,,,,,,,,,,,,,
,,,,,,,,,,,,0,4,4,4,1,fifth,14,27,F,R,IMT,2021-07-13_14h36.47.604,ImageRatingTask_S5,2021.1.4,MacIntel,60.0024001,,,,,,,,,,,,,,,,,
,,,,,,,,,,,,0,5,5,5,1,sixth,14,27,F,R,IMT,2021-07-13_14h36.47.604,ImageRatingTask_S5,2021.1.4,MacIntel,60.0024001,,,,,,,,,,,,,,,,,
,,,,,,,,,,,,0,6,6,6,1,seventh,14,27,F,R,IMT,2021-07-13_14h36.47.604,ImageRatingTask_S5,2021.1.4,MacIntel,60.0024001,,,,,,,,,,,,,,,,,
,,,,,,,,,,,,0,7,7,7,1,last,14,27,F,R,IMT,2021-07-13_14h36.47.604,ImageRatingTask_S5,2021.1.4,MacIntel,60.0024001,,,,,,,,,,,,,,,,,
,,,,,,,,,,,,,,,,,,14,27,F,R,IMT,2021-07-13_14h36.47.604,ImageRatingTask_S5,2021.1.4,MacIntel,60.0024001,0,26,26,151,1,DreamStudyImages_rs1000x750g/Mammals/Animals_061_h.jpg,,,,,,,,,,,
,,6,4.0134,1,0.768,4,2,1,1.1845,2,0.4382,0,0,0,0,1,main,14,27,F,R,IMT,2021-07-13_14h36.47.604,ImageRatingTask_S5,2021.1.4,MacIntel,60.0024001,,,,,,,,,,,,,,,,,
,,,,,,,,,,,,0,1,1,1,1,second,14,27,F,R,IMT,2021-07-13_14h36.47.604,ImageRatingTask_S5,2021.1.4,MacIntel,60.0024001,,,,,,,,,,,,,,,,,
,,,,,,,,,,,,0,2,2,2,1,third,14,27,F,R,IMT,2021-07-13_14h36.47.604,ImageRatingTask_S5,2021.1.4,MacIntel,60.0024001,,,,,,,,,,,,,,,,,
,,,,,,,,,,,,0,3,3,3,1,fourth,14,27,F,R,IMT,2021-07-13_14h36.47.604,ImageRatingTask_S5,2021.1.4,MacIntel,60.0024001,,,,,,,,,,,,,,,,,
,,,,,,,,,,,,0,4,4,4,1,fifth,14,27,F,R,IMT,2021-07-13_14h36.47.604,ImageRatingTask_S5,2021.1.4,MacIntel,60.0024001,,,,,,,,,,,,,,,,,
,,,,,,,,,,,,0,5,5,5,1,sixth,14,27,F,R,IMT,2021-07-13_14h36.47.604,ImageRatingTask_S5,2021.1.4,MacIntel,60.0024001,,,,,,,,,,,,,,,,,
,,,,,,,,,,,,0,6,6,6,1,seventh,14,27,F,R,IMT,2021-07-13_14h36.47.604,ImageRatingTask_S5,2021.1.4,MacIntel,60.0024001,,,,,,,,,,,,,,,,,
,,,,,,,,,,,,0,7,7,7,1,last,14,27,F,R,IMT,2021-07-13_14h36.47.604,ImageRatingTask_S5,2021.1.4,MacIntel,60.0024001,,,,,,,,,,,,,,,,,
,,,,,,,,,,,,,,,,,,14,27,F,R,IMT,2021-07-13_14h36.47.604,ImageRatingTask_S5,2021.1.4,MacIntel,60.0024001,0,27,27,29,1,DreamStudyImages_rs1000x750g/Children/Excited face 5.jpg,,,,,,,,,,,
,,5,1.9305,1,0.3499,6,0.6347,1,1.3309,7,0.8121,0,0,0,0,1,main,14,27,F,R,IMT,2021-07-13_14h36.47.604,ImageRatingTask_S5,2021.1.4,MacIntel,60.0024001,,,,,,,,,,,,,,,,,
,,,,,,,,,,,,0,1,1,1,1,second,14,27,F,R,IMT,2021-07-13_14h36.47.604,ImageRatingTask_S5,2021.1.4,MacIntel,60.0024001,,,,,,,,,,,,,,,,,
,,,,,,,,,,,,0,2,2,2,1,third,14,27,F,R,IMT,2021-07-13_14h36.47.604,ImageRatingTask_S5,2021.1.4,MacIntel,60.0024001,,,,,,,,,,,,,,,,,
,,,,,,,,,,,,0,3,3,3,1,fourth,14,27,F,R,IMT,2021-07-13_14h36.47.604,ImageRatingTask_S5,2021.1.4,MacIntel,60.0024001,,,,,,,,,,,,,,,,,
,,,,,,,,,,,,0,4,4,4,1,fifth,14,27,F,R,IMT,2021-07-13_14h36.47.604,ImageRatingTask_S5,2021.1.4,MacIntel,60.0024001,,,,,,,,,,,,,,,,,
,,,,,,,,,,,,0,5,5,5,1,sixth,14,27,F,R,IMT,2021-07-13_14h36.47.604,ImageRatingTask_S5,2021.1.4,MacIntel,60.0024001,,,,,,,,,,,,,,,,,
,,,,,,,,,,,,0,6,6,6,1,seventh,14,27,F,R,IMT,2021-07-13_14h36.47.604,ImageRatingTask_S5,2021.1.4,MacIntel,60.0024001,,,,,,,,,,,,,,,,,
,,,,,,,,,,,,0,7,7,7,1,last,14,27,F,R,IMT,2021-07-13_14h36.47.604,ImageRatingTask_S5,2021.1.4,MacIntel,60.0024001,,,,,,,,,,,,,,,,,
,,,,,,,,,,,,,,,,,,14,27,F,R,IMT,2021-07-13_14h36.47.604,ImageRatingTask_S5,2021.1.4,MacIntel,60.0024001,0,28,28,99,1,DreamStudyImages_rs1000x750g/Vehicles/Objects_296_h.jpg,,,,,,,,,,,
,,8,3.9514,4,4.3534,4,1.8473,1,0.9987,3,0.8292,0,0,0,0,1,main,14,27,F,R,IMT,2021-07-13_14h36.47.604,ImageRatingTask_S5,2021.1.4,MacIntel,60.0024001,,,,,,,,,,,,,,,,,
,,,,,,,,,,,,0,1,1,1,1,second,14,27,F,R,IMT,2021-07-13_14h36.47.604,ImageRatingTask_S5,2021.1.4,MacIntel,60.0024001,,,,,,,,,,,,,,,,,
,,,,,,,,,,,,0,2,2,2,1,third,14,27,F,R,IMT,2021-07-13_14h36.47.604,ImageRatingTask_S5,2021.1.4,MacIntel,60.0024001,,,,,,,,,,,,,,,,,
,,,,,,,,,,,,0,3,3,3,1,fourth,14,27,F,R,IMT,2021-07-13_14h36.47.604,ImageRatingTask_S5,2021.1.4,MacIntel,60.0024001,,,,,,,,,,,,,,,,,
,,,,,,,,,,,,0,4,4,4,1,fifth,14,27,F,R,IMT,2021-07-13_14h36.47.604,ImageRatingTask_S5,2021.1.4,MacIntel,60.0024001,,,,,,,,,,,,,,,,,
,,,,,,,,,,,,0,5,5,5,1,sixth,14,27,F,R,IMT,2021-07-13_14h36.47.604,ImageRatingTask_S5,2021.1.4,MacIntel,60.0024001,,,,,,,,,,,,,,,,,
,,,,,,,,,,,,0,6,6,6,1,seventh,14,27,F,R,IMT,2021-07-13_14h36.47.604,ImageRatingTask_S5,2021.1.4,MacIntel,60.0024001,,,,,,,,,,,,,,,,,
,,,,,,,,,,,,0,7,7,7,1,last,14,27,F,R,IMT,2021-07-13_14h36.47.604,ImageRatingTask_S5,2021.1.4,MacIntel,60.0024001,,,,,,,,,,,,,,,,,
,,,,,,,,,,,,,,,,,,14,27,F,R,IMT,2021-07-13_14h36.47.604,ImageRatingTask_S5,2021.1.4,MacIntel,60.0024001,0,29,29,66,1,DreamStudyImages_rs1000x750g/Mammals/Lamb 1.jpg,,,,,,,,,,,
,,4,4.3008,2,1.4265,6,2.6673,1,0.8992,7,1.0658,0,0,0,0,1,main,14,27,F,R,IMT,2021-07-13_14h36.47.604,ImageRatingTask_S5,2021.1.4,MacIntel,60.0024001,,,,,,,,,,,,,,,,,
,,,,,,,,,,,,0,1,1,1,1,second,14,27,F,R,IMT,2021-07-13_14h36.47.604,ImageRatingTask_S5,2021.1.4,MacIntel,60.0024001,,,,,,,,,,,,,,,,,
,,,,,,,,,,,,0,2,2,2,1,third,14,27,F,R,IMT,2021-07-13_14h36.47.604,ImageRatingTask_S5,2021.1.4,MacIntel,60.0024001,,,,,,,,,,,,,,,,,
,,,,,,,,,,,,0,3,3,3,1,fourth,14,27,F,R,IMT,2021-07-13_14h36.47.604,ImageRatingTask_S5,2021.1.4,MacIntel,60.0024001,,,,,,,,,,,,,,,,,
,,,,,,,,,,,,0,4,4,4,1,fifth,14,27,F,R,IMT,2021-07-13_14h36.47.604,ImageRatingTask_S5,2021.1.4,MacIntel,60.0024001,,,,,,,,,,,,,,,,,
,,,,,,,,,,,,0,5,5,5,1,sixth,14,27,F,R,IMT,2021-07-13_14h36.47.604,ImageRatingTask_S5,2021.1.4,MacIntel,60.0024001,,,,,,,,,,,,,,,,,
,,,,,,,,,,,,0,6,6,6,1,seventh,14,27,F,R,IMT,2021-07-13_14h36.47.604,ImageRatingTask_S5,2021.1.4,MacIntel,60.0024001,,,,,,,,,,,,,,,,,
,,,,,,,,,,,,0,7,7,7,1,last,14,27,F,R,IMT,2021-07-13_14h36.47.604,ImageRatingTask_S5,2021.1.4,MacIntel,60.0024001,,,,,,,,,,,,,,,,,
,,,,,,,,,,,,,,,,,,14,27,F,R,IMT,2021-07-13_14h36.47.604,ImageRatingTask_S5,2021.1.4,MacIntel,60.0024001,0,30,30,80,1,DreamStudyImages_rs1000x750g/Vehicles/9610.jpg,,,,,,,,,,,
,,6,2.9349,2,2.0352,6,2.849,1,1.3817,3,0.3605,0,0,0,0,1,main,14,27,F,R,IMT,2021-07-13_14h36.47.604,ImageRatingTask_S5,2021.1.4,MacIntel,60.0024001,,,,,,,,,,,,,,,,,
,,,,,,,,,,,,0,1,1,1,1,second,14,27,F,R,IMT,2021-07-13_14h36.47.604,ImageRatingTask_S5,2021.1.4,MacIntel,60.0024001,,,,,,,,,,,,,,,,,
,,,,,,,,,,,,0,2,2,2,1,third,14,27,F,R,IMT,2021-07-13_14h36.47.604,ImageRatingTask_S5,2021.1.4,MacIntel,60.0024001,,,,,,,,,,,,,,,,,
,,,,,,,,,,,,0,3,3,3,1,fourth,14,27,F,R,IMT,2021-07-13_14h36.47.604,ImageRatingTask_S5,2021.1.4,MacIntel,60.0024001,,,,,,,,,,,,,,,,,
,,,,,,,,,,,,0,4,4,4,1,fifth,14,27,F,R,IMT,2021-07-13_14h36.47.604,ImageRatingTask_S5,2021.1.4,MacIntel,60.0024001,,,,,,,,,,,,,,,,,
,,,,,,,,,,,,0,5,5,5,1,sixth,14,27,F,R,IMT,2021-07-13_14h36.47.604,ImageRatingTask_S5,2021.1.4,MacIntel,60.0024001,,,,,,,,,,,,,,,,,
,,,,,,,,,,,,0,6,6,6,1,seventh,14,27,F,R,IMT,2021-07-13_14h36.47.604,ImageRatingTask_S5,2021.1.4,MacIntel,60.0024001,,,,,,,,,,,,,,,,,
,,,,,,,,,,,,0,7,7,7,1,last,14,27,F,R,IMT,2021-07-13_14h36.47.604,ImageRatingTask_S5,2021.1.4,MacIntel,60.0024001,,,,,,,,,,,,,,,,,
,,,,,,,,,,,,,,,,,,14,27,F,R,IMT,2021-07-13_14h36.47.604,ImageRatingTask_S5,2021.1.4,MacIntel,60.0024001,0,31,31,110,1,DreamStudyImages_rs1000x750g/Mammals/Monkey 1.jpg,,,,,,,,,,,
,,5,2.7329,1,0.7528,7,3.0485,1,1.7104,6,0.9117,0,0,0,0,1,main,14,27,F,R,IMT,2021-07-13_14h36.47.604,ImageRatingTask_S5,2021.1.4,MacIntel,60.0024001,,,,,,,,,,,,,,,,,
,,,,,,,,,,,,0,1,1,1,1,second,14,27,F,R,IMT,2021-07-13_14h36.47.604,ImageRatingTask_S5,2021.1.4,MacIntel,60.0024001,,,,,,,,,,,,,,,,,
,,,,,,,,,,,,0,2,2,2,1,third,14,27,F,R,IMT,2021-07-13_14h36.47.604,ImageRatingTask_S5,2021.1.4,MacIntel,60.0024001,,,,,,,,,,,,,,,,,
,,,,,,,,,,,,0,3,3,3,1,fourth,14,27,F,R,IMT,2021-07-13_14h36.47.604,ImageRatingTask_S5,2021.1.4,MacIntel,60.0024001,,,,,,,,,,,,,,,,,
,,,,,,,,,,,,0,4,4,4,1,fifth,14,27,F,R,IMT,2021-07-13_14h36.47.604,ImageRatingTask_S5,2021.1.4,MacIntel,60.0024001,,,,,,,,,,,,,,,,,
,,,,,,,,,,,,0,5,5,5,1,sixth,14,27,F,R,IMT,2021-07-13_14h36.47.604,ImageRatingTask_S5,2021.1.4,MacIntel,60.0024001,,,,,,,,,,,,,,,,,
,,,,,,,,,,,,0,6,6,6,1,seventh,14,27,F,R,IMT,2021-07-13_14h36.47.604,ImageRatingTask_S5,2021.1.4,MacIntel,60.0024001,,,,,,,,,,,,,,,,,
,,,,,,,,,,,,0,7,7,7,1,last,14,27,F,R,IMT,2021-07-13_14h36.47.604,ImageRatingTask_S5,2021.1.4,MacIntel,60.0024001,,,,,,,,,,,,,,,,,
,,,,,,,,,,,,,,,,,,14,27,F,R,IMT,2021-07-13_14h36.47.604,ImageRatingTask_S5,2021.1.4,MacIntel,60.0024001,0,32,32,140,1,DreamStudyImages_rs1000x750g/Houses/whitehouse.jpg,,,,,,,,,,,
,,1,10.6812,7,2.7614,8,3.9641,1,1.1663,3,1.1946,0,0,0,0,1,main,14,27,F,R,IMT,2021-07-13_14h36.47.604,ImageRatingTask_S5,2021.1.4,MacIntel,60.0024001,,,,,,,,,,,,,,,,,
,,,,,,,,,,,,0,1,1,1,1,second,14,27,F,R,IMT,2021-07-13_14h36.47.604,ImageRatingTask_S5,2021.1.4,MacIntel,60.0024001,,,,,,,,,,,,,,,,,
,,,,,,,,,,,,0,2,2,2,1,third,14,27,F,R,IMT,2021-07-13_14h36.47.604,ImageRatingTask_S5,2021.1.4,MacIntel,60.0024001,,,,,,,,,,,,,,,,,
,,,,,,,,,,,,0,3,3,3,1,fourth,14,27,F,R,IMT,2021-07-13_14h36.47.604,ImageRatingTask_S5,2021.1.4,MacIntel,60.0024001,,,,,,,,,,,,,,,,,
,,,,,,,,,,,,0,4,4,4,1,fifth,14,27,F,R,IMT,2021-07-13_14h36.47.604,ImageRatingTask_S5,2021.1.4,MacIntel,60.0024001,,,,,,,,,,,,,,,,,
,,,,,,,,,,,,0,5,5,5,1,sixth,14,27,F,R,IMT,2021-07-13_14h36.47.604,ImageRatingTask_S5,2021.1.4,MacIntel,60.0024001,,,,,,,,,,,,,,,,,
,,,,,,,,,,,,0,6,6,6,1,seventh,14,27,F,R,IMT,2021-07-13_14h36.47.604,ImageRatingTask_S5,2021.1.4,MacIntel,60.0024001,,,,,,,,,,,,,,,,,
,,,,,,,,,,,,0,7,7,7,1,last,14,27,F,R,IMT,2021-07-13_14h36.47.604,ImageRatingTask_S5,2021.1.4,MacIntel,60.0024001,,,,,,,,,,,,,,,,,
,,,,,,,,,,,,,,,,,,14,27,F,R,IMT,2021-07-13_14h36.47.604,ImageRatingTask_S5,2021.1.4,MacIntel,60.0024001,0,33,33,103,1,DreamStudyImages_rs1000x750g/Mammals/Animals_075_h.jpg,,,,,,,,,,,
,,5,41.8455,1,0.4965,3,1.6081,1,3.1327,6,0.7839,0,0,0,0,1,main,14,27,F,R,IMT,2021-07-13_14h36.47.604,ImageRatingTask_S5,2021.1.4,MacIntel,60.0024001,,,,,,,,,,,,,,,,,
,,,,,,,,,,,,0,1,1,1,1,second,14,27,F,R,IMT,2021-07-13_14h36.47.604,ImageRatingTask_S5,2021.1.4,MacIntel,60.0024001,,,,,,,,,,,,,,,,,
,,,,,,,,,,,,0,2,2,2,1,third,14,27,F,R,IMT,2021-07-13_14h36.47.604,ImageRatingTask_S5,2021.1.4,MacIntel,60.0024001,,,,,,,,,,,,,,,,,
,,,,,,,,,,,,0,3,3,3,1,fourth,14,27,F,R,IMT,2021-07-13_14h36.47.604,ImageRatingTask_S5,2021.1.4,MacIntel,60.0024001,,,,,,,,,,,,,,,,,
,,,,,,,,,,,,0,4,4,4,1,fifth,14,27,F,R,IMT,2021-07-13_14h36.47.604,ImageRatingTask_S5,2021.1.4,MacIntel,60.0024001,,,,,,,,,,,,,,,,,
,,,,,,,,,,,,0,5,5,5,1,sixth,14,27,F,R,IMT,2021-07-13_14h36.47.604,ImageRatingTask_S5,2021.1.4,MacIntel,60.0024001,,,,,,,,,,,,,,,,,
,,,,,,,,,,,,0,6,6,6,1,seventh,14,27,F,R,IMT,2021-07-13_14h36.47.604,ImageRatingTask_S5,2021.1.4,MacIntel,60.0024001,,,,,,,,,,,,,,,,,
,,,,,,,,,,,,0,7,7,7,1,last,14,27,F,R,IMT,2021-07-13_14h36.47.604,ImageRatingTask_S5,2021.1.4,MacIntel,60.0024001,,,,,,,,,,,,,,,,,
,,,,,,,,,,,,,,,,,,14,27,F,R,IMT,2021-07-13_14h36.47.604,ImageRatingTask_S5,2021.1.4,MacIntel,60.0024001,0,34,34,122,1,DreamStudyImages_rs1000x750g/Houses/Objects_193_v.jpg,,,,,,,,,,,
,,4,2.9176,2,0.9149,3,3.0776,0,2.7134,,,0,0,0,0,1,main,14,27,F,R,IMT,2021-07-13_14h36.47.604,ImageRatingTask_S5,2021.1.4,MacIntel,60.0024001,,,,,,,,,,,,,,,,,
,,,,,,,,,,,,0,1,1,1,1,second,14,27,F,R,IMT,2021-07-13_14h36.47.604,ImageRatingTask_S5,2021.1.4,MacIntel,60.0024001,,,,,,,,,,,,,,,,,
,,,,,,,,,,,,0,2,2,2,1,third,14,27,F,R,IMT,2021-07-13_14h36.47.604,ImageRatingTask_S5,2021.1.4,MacIntel,60.0024001,,,,,,,,,,,,,,,,,
,,,,,,,,,,,,0,3,3,3,1,fourth,14,27,F,R,IMT,2021-07-13_14h36.47.604,ImageRatingTask_S5,2021.1.4,MacIntel,60.0024001,,,,,,,,,,,,,,,,,
,,,,,,,,,,,,0,4,4,4,1,fifth,14,27,F,R,IMT,2021-07-13_14h36.47.604,ImageRatingTask_S5,2021.1.4,MacIntel,60.0024001,,,,,,,,,,,,,,,,,
,,,,,,,,,,,,0,5,5,5,1,sixth,14,27,F,R,IMT,2021-07-13_14h36.47.604,ImageRatingTask_S5,2021.1.4,MacIntel,60.0024001,,,,,,,,,,,,,,,,,
,,,,,,,,,,,,0,6,6,6,1,seventh,14,27,F,R,IMT,2021-07-13_14h36.47.604,ImageRatingTask_S5,2021.1.4,MacIntel,60.0024001,,,,,,,,,,,,,,,,,
,,,,,,,,,,,,0,7,7,7,1,last,14,27,F,R,IMT,2021-07-13_14h36.47.604,ImageRatingTask_S5,2021.1.4,MacIntel,60.0024001,,,,,,,,,,,,,,,,,
,,,,,,,,,,,,,,,,,,14,27,F,R,IMT,2021-07-13_14h36.47.604,ImageRatingTask_S5,2021.1.4,MacIntel,60.0024001,0,35,35,131,1,DreamStudyImages_rs1000x750g/Food/food_neg_3bis.jpg,,,,,,,,,,,
,,5,1.9872,1,0.8021,1,1.5584,1,0.8472,6,0.8463,0,0,0,0,1,main,14,27,F,R,IMT,2021-07-13_14h36.47.604,ImageRatingTask_S5,2021.1.4,MacIntel,60.0024001,,,,,,,,,,,,,,,,,
,,,,,,,,,,,,0,1,1,1,1,second,14,27,F,R,IMT,2021-07-13_14h36.47.604,ImageRatingTask_S5,2021.1.4,MacIntel,60.0024001,,,,,,,,,,,,,,,,,
,,,,,,,,,,,,0,2,2,2,1,third,14,27,F,R,IMT,2021-07-13_14h36.47.604,ImageRatingTask_S5,2021.1.4,MacIntel,60.0024001,,,,,,,,,,,,,,,,,
,,,,,,,,,,,,0,3,3,3,1,fourth,14,27,F,R,IMT,2021-07-13_14h36.47.604,ImageRatingTask_S5,2021.1.4,MacIntel,60.0024001,,,,,,,,,,,,,,,,,
,,,,,,,,,,,,0,4,4,4,1,fifth,14,27,F,R,IMT,2021-07-13_14h36.47.604,ImageRatingTask_S5,2021.1.4,MacIntel,60.0024001,,,,,,,,,,,,,,,,,
,,,,,,,,,,,,0,5,5,5,1,sixth,14,27,F,R,IMT,2021-07-13_14h36.47.604,ImageRatingTask_S5,2021.1.4,MacIntel,60.0024001,,,,,,,,,,,,,,,,,
,,,,,,,,,,,,0,6,6,6,1,seventh,14,27,F,R,IMT,2021-07-13_14h36.47.604,ImageRatingTask_S5,2021.1.4,MacIntel,60.0024001,,,,,,,,,,,,,,,,,
,,,,,,,,,,,,0,7,7,7,1,last,14,27,F,R,IMT,2021-07-13_14h36.47.604,ImageRatingTask_S5,2021.1.4,MacIntel,60.0024001,,,,,,,,,,,,,,,,,
,,,,,,,,,,,,,,,,,,14,27,F,R,IMT,2021-07-13_14h36.47.604,ImageRatingTask_S5,2021.1.4,MacIntel,60.0024001,0,36,36,100,1,DreamStudyImages_rs1000x750g/Houses/Skyscraper 2_CROPPED.jpg,,,,,,,,,,,
,,9,2.1499,6,2.1865,2,3.1422,1,3.599,3,1.2287,0,0,0,0,1,main,14,27,F,R,IMT,2021-07-13_14h36.47.604,ImageRatingTask_S5,2021.1.4,MacIntel,60.0024001,,,,,,,,,,,,,,,,,
,,,,,,,,,,,,0,1,1,1,1,second,14,27,F,R,IMT,2021-07-13_14h36.47.604,ImageRatingTask_S5,2021.1.4,MacIntel,60.0024001,,,,,,,,,,,,,,,,,
,,,,,,,,,,,,0,2,2,2,1,third,14,27,F,R,IMT,2021-07-13_14h36.47.604,ImageRatingTask_S5,2021.1.4,MacIntel,60.0024001,,,,,,,,,,,,,,,,,
,,,,,,,,,,,,0,3,3,3,1,fourth,14,27,F,R,IMT,2021-07-13_14h36.47.604,ImageRatingTask_S5,2021.1.4,MacIntel,60.0024001,,,,,,,,,,,,,,,,,
,,,,,,,,,,,,0,4,4,4,1,fifth,14,27,F,R,IMT,2021-07-13_14h36.47.604,ImageRatingTask_S5,2021.1.4,MacIntel,60.0024001,,,,,,,,,,,,,,,,,
,,,,,,,,,,,,0,5,5,5,1,sixth,14,27,F,R,IMT,2021-07-13_14h36.47.604,ImageRatingTask_S5,2021.1.4,MacIntel,60.0024001,,,,,,,,,,,,,,,,,
,,,,,,,,,,,,0,6,6,6,1,seventh,14,27,F,R,IMT,2021-07-13_14h36.47.604,ImageRatingTask_S5,2021.1.4,MacIntel,60.0024001,,,,,,,,,,,,,,,,,
,,,,,,,,,,,,0,7,7,7,1,last,14,27,F,R,IMT,2021-07-13_14h36.47.604,ImageRatingTask_S5,2021.1.4,MacIntel,60.0024001,,,,,,,,,,,,,,,,,
,,,,,,,,,,,,,,,,,,14,27,F,R,IMT,2021-07-13_14h36.47.604,ImageRatingTask_S5,2021.1.4,MacIntel,60.0024001,0,37,37,91,1,DreamStudyImages_rs1000x750g/Mammals/IAPS1710_puppies.jpg,,,,,,,,,,,
,,5,3.8346,1,0.6535,3,2.0164,0,2.9667,,,0,0,0,0,1,main,14,27,F,R,IMT,2021-07-13_14h36.47.604,ImageRatingTask_S5,2021.1.4,MacIntel,60.0024001,,,,,,,,,,,,,,,,,
,,,,,,,,,,,,0,1,1,1,1,second,14,27,F,R,IMT,2021-07-13_14h36.47.604,ImageRatingTask_S5,2021.1.4,MacIntel,60.0024001,,,,,,,,,,,,,,,,,
,,,,,,,,,,,,0,2,2,2,1,third,14,27,F,R,IMT,2021-07-13_14h36.47.604,ImageRatingTask_S5,2021.1.4,MacIntel,60.0024001,,,,,,,,,,,,,,,,,
,,,,,,,,,,,,0,3,3,3,1,fourth,14,27,F,R,IMT,2021-07-13_14h36.47.604,ImageRatingTask_S5,2021.1.4,MacIntel,60.0024001,,,,,,,,,,,,,,,,,
,,,,,,,,,,,,0,4,4,4,1,fifth,14,27,F,R,IMT,2021-07-13_14h36.47.604,ImageRatingTask_S5,2021.1.4,MacIntel,60.0024001,,,,,,,,,,,,,,,,,
,,,,,,,,,,,,0,5,5,5,1,sixth,14,27,F,R,IMT,2021-07-13_14h36.47.604,ImageRatingTask_S5,2021.1.4,MacIntel,60.0024001,,,,,,,,,,,,,,,,,
,,,,,,,,,,,,0,6,6,6,1,seventh,14,27,F,R,IMT,2021-07-13_14h36.47.604,ImageRatingTask_S5,2021.1.4,MacIntel,60.0024001,,,,,,,,,,,,,,,,,
,,,,,,,,,,,,0,7,7,7,1,last,14,27,F,R,IMT,2021-07-13_14h36.47.604,ImageRatingTask_S5,2021.1.4,MacIntel,60.0024001,,,,,,,,,,,,,,,,,
,,,,,,,,,,,,,,,,,,14,27,F,R,IMT,2021-07-13_14h36.47.604,ImageRatingTask_S5,2021.1.4,MacIntel,60.0024001,0,38,38,40,1,DreamStudyImages_rs1000x750g/Houses/Objects_180_v.jpg,,,,,,,,,,,
,,6,2.8766,2,0.7859,1,12.583,1,1.0825,5,0.8955,0,0,0,0,1,main,14,27,F,R,IMT,2021-07-13_14h36.47.604,ImageRatingTask_S5,2021.1.4,MacIntel,60.0024001,,,,,,,,,,,,,,,,,
,,,,,,,,,,,,0,1,1,1,1,second,14,27,F,R,IMT,2021-07-13_14h36.47.604,ImageRatingTask_S5,2021.1.4,MacIntel,60.0024001,,,,,,,,,,,,,,,,,
,,,,,,,,,,,,0,2,2,2,1,third,14,27,F,R,IMT,2021-07-13_14h36.47.604,ImageRatingTask_S5,2021.1.4,MacIntel,60.0024001,,,,,,,,,,,,,,,,,
,,,,,,,,,,,,0,3,3,3,1,fourth,14,27,F,R,IMT,2021-07-13_14h36.47.604,ImageRatingTask_S5,2021.1.4,MacIntel,60.0024001,,,,,,,,,,,,,,,,,
,,,,,,,,,,,,0,4,4,4,1,fifth,14,27,F,R,IMT,2021-07-13_14h36.47.604,ImageRatingTask_S5,2021.1.4,MacIntel,60.0024001,,,,,,,,,,,,,,,,,
,,,,,,,,,,,,0,5,5,5,1,sixth,14,27,F,R,IMT,2021-07-13_14h36.47.604,ImageRatingTask_S5,2021.1.4,MacIntel,60.0024001,,,,,,,,,,,,,,,,,
,,,,,,,,,,,,0,6,6,6,1,seventh,14,27,F,R,IMT,2021-07-13_14h36.47.604,ImageRatingTask_S5,2021.1.4,MacIntel,60.0024001,,,,,,,,,,,,,,,,,
,,,,,,,,,,,,0,7,7,7,1,last,14,27,F,R,IMT,2021-07-13_14h36.47.604,ImageRatingTask_S5,2021.1.4,MacIntel,60.0024001,,,,,,,,,,,,,,,,,
,,,,,,,,,,,,,,,,,,14,27,F,R,IMT,2021-07-13_14h36.47.604,ImageRatingTask_S5,2021.1.4,MacIntel,60.0024001,0,39,39,155,1,DreamStudyImages_rs1000x750g/Food/IAPS7400_chocolate.jpg,,,,,,,,,,,
,,5,2.6003,1,1.0275,1,2.0651,1,1.3989,5,0.8598,0,0,0,0,1,main,14,27,F,R,IMT,2021-07-13_14h36.47.604,ImageRatingTask_S5,2021.1.4,MacIntel,60.0024001,,,,,,,,,,,,,,,,,
,,,,,,,,,,,,0,1,1,1,1,second,14,27,F,R,IMT,2021-07-13_14h36.47.604,ImageRatingTask_S5,2021.1.4,MacIntel,60.0024001,,,,,,,,,,,,,,,,,
,,,,,,,,,,,,0,2,2,2,1,third,14,27,F,R,IMT,2021-07-13_14h36.47.604,ImageRatingTask_S5,2021.1.4,MacIntel,60.0024001,,,,,,,,,,,,,,,,,
,,,,,,,,,,,,0,3,3,3,1,fourth,14,27,F,R,IMT,2021-07-13_14h36.47.604,ImageRatingTask_S5,2021.1.4,MacIntel,60.0024001,,,,,,,,,,,,,,,,,
,,,,,,,,,,,,0,4,4,4,1,fifth,14,27,F,R,IMT,2021-07-13_14h36.47.604,ImageRatingTask_S5,2021.1.4,MacIntel,60.0024001,,,,,,,,,,,,,,,,,
,,,,,,,,,,,,0,5,5,5,1,sixth,14,27,F,R,IMT,2021-07-13_14h36.47.604,ImageRatingTask_S5,2021.1.4,MacIntel,60.0024001,,,,,,,,,,,,,,,,,
,,,,,,,,,,,,0,6,6,6,1,seventh,14,27,F,R,IMT,2021-07-13_14h36.47.604,ImageRatingTask_S5,2021.1.4,MacIntel,60.0024001,,,,,,,,,,,,,,,,,
,,,,,,,,,,,,0,7,7,7,1,last,14,27,F,R,IMT,2021-07-13_14h36.47.604,ImageRatingTask_S5,2021.1.4,MacIntel,60.0024001,,,,,,,,,,,,,,,,,
,,,,,,,,,,,,,,,,,,14,27,F,R,IMT,2021-07-13_14h36.47.604,ImageRatingTask_S5,2021.1.4,MacIntel,60.0024001,0,40,40,113,1,DreamStudyImages_rs1000x750g/Food/IAPS7350_pizza.jpg,,,,,,,,,,,
,,6,2.1495,2,1.0167,5,1.5522,1,0.7991,3,0.7487,0,0,0,0,1,main,14,27,F,R,IMT,2021-07-13_14h36.47.604,ImageRatingTask_S5,2021.1.4,MacIntel,60.0024001,,,,,,,,,,,,,,,,,
,,,,,,,,,,,,0,1,1,1,1,second,14,27,F,R,IMT,2021-07-13_14h36.47.604,ImageRatingTask_S5,2021.1.4,MacIntel,60.0024001,,,,,,,,,,,,,,,,,
,,,,,,,,,,,,0,2,2,2,1,third,14,27,F,R,IMT,2021-07-13_14h36.47.604,ImageRatingTask_S5,2021.1.4,MacIntel,60.0024001,,,,,,,,,,,,,,,,,
,,,,,,,,,,,,0,3,3,3,1,fourth,14,27,F,R,IMT,2021-07-13_14h36.47.604,ImageRatingTask_S5,2021.1.4,MacIntel,60.0024001,,,,,,,,,,,,,,,,,
,,,,,,,,,,,,0,4,4,4,1,fifth,14,27,F,R,IMT,2021-07-13_14h36.47.604,ImageRatingTask_S5,2021.1.4,MacIntel,60.0024001,,,,,,,,,,,,,,,,,
,,,,,,,,,,,,0,5,5,5,1,sixth,14,27,F,R,IMT,2021-07-13_14h36.47.604,ImageRatingTask_S5,2021.1.4,MacIntel,60.0024001,,,,,,,,,,,,,,,,,
,,,,,,,,,,,,0,6,6,6,1,seventh,14,27,F,R,IMT,2021-07-13_14h36.47.604,ImageRatingTask_S5,2021.1.4,MacIntel,60.0024001,,,,,,,,,,,,,,,,,
,,,,,,,,,,,,0,7,7,7,1,last,14,27,F,R,IMT,2021-07-13_14h36.47.604,ImageRatingTask_S5,2021.1.4,MacIntel,60.0024001,,,,,,,,,,,,,,,,,
,,,,,,,,,,,,,,,,,,14,27,F,R,IMT,2021-07-13_14h36.47.604,ImageRatingTask_S5,2021.1.4,MacIntel,60.0024001,0,41,41,20,1,DreamStudyImages_rs1000x750g/Mammals/Animals_192_h.jpg,,,,,,,,,,,
,,5,11.6332,1,1.0163,6,2.0826,1,0.9986,6,0.8051,0,0,0,0,1,main,14,27,F,R,IMT,2021-07-13_14h36.47.604,ImageRatingTask_S5,2021.1.4,MacIntel,60.0024001,,,,,,,,,,,,,,,,,
,,,,,,,,,,,,0,1,1,1,1,second,14,27,F,R,IMT,2021-07-13_14h36.47.604,ImageRatingTask_S5,2021.1.4,MacIntel,60.0024001,,,,,,,,,,,,,,,,,
,,,,,,,,,,,,0,2,2,2,1,third,14,27,F,R,IMT,2021-07-13_14h36.47.604,ImageRatingTask_S5,2021.1.4,MacIntel,60.0024001,,,,,,,,,,,,,,,,,
,,,,,,,,,,,,0,3,3,3,1,fourth,14,27,F,R,IMT,2021-07-13_14h36.47.604,ImageRatingTask_S5,2021.1.4,MacIntel,60.0024001,,,,,,,,,,,,,,,,,
,,,,,,,,,,,,0,4,4,4,1,fifth,14,27,F,R,IMT,2021-07-13_14h36.47.604,ImageRatingTask_S5,2021.1.4,MacIntel,60.0024001,,,,,,,,,,,,,,,,,
,,,,,,,,,,,,0,5,5,5,1,sixth,14,27,F,R,IMT,2021-07-13_14h36.47.604,ImageRatingTask_S5,2021.1.4,MacIntel,60.0024001,,,,,,,,,,,,,,,,,
,,,,,,,,,,,,0,6,6,6,1,seventh,14,27,F,R,IMT,2021-07-13_14h36.47.604,ImageRatingTask_S5,2021.1.4,MacIntel,60.0024001,,,,,,,,,,,,,,,,,
,,,,,,,,,,,,0,7,7,7,1,last,14,27,F,R,IMT,2021-07-13_14h36.47.604,ImageRatingTask_S5,2021.1.4,MacIntel,60.0024001,,,,,,,,,,,,,,,,,
,,,,,,,,,,,,,,,,,,14,27,F,R,IMT,2021-07-13_14h36.47.604,ImageRatingTask_S5,2021.1.4,MacIntel,60.0024001,0,42,42,23,1,DreamStudyImages_rs1000x750g/Houses/NDPS114_houses10.jpg,,,,,,,,,,,
,,3,1.7009,3,1.1014,5,2.1943,1,0.8141,2,1.1044,0,0,0,0,1,main,14,27,F,R,IMT,2021-07-13_14h36.47.604,ImageRatingTask_S5,2021.1.4,MacIntel,60.0024001,,,,,,,,,,,,,,,,,
,,,,,,,,,,,,0,1,1,1,1,second,14,27,F,R,IMT,2021-07-13_14h36.47.604,ImageRatingTask_S5,2021.1.4,MacIntel,60.0024001,,,,,,,,,,,,,,,,,
,,,,,,,,,,,,0,2,2,2,1,third,14,27,F,R,IMT,2021-07-13_14h36.47.604,ImageRatingTask_S5,2021.1.4,MacIntel,60.0024001,,,,,,,,,,,,,,,,,
,,,,,,,,,,,,0,3,3,3,1,fourth,14,27,F,R,IMT,2021-07-13_14h36.47.604,ImageRatingTask_S5,2021.1.4,MacIntel,60.0024001,,,,,,,,,,,,,,,,,
,,,,,,,,,,,,0,4,4,4,1,fifth,14,27,F,R,IMT,2021-07-13_14h36.47.604,ImageRatingTask_S5,2021.1.4,MacIntel,60.0024001,,,,,,,,,,,,,,,,,
,,,,,,,,,,,,0,5,5,5,1,sixth,14,27,F,R,IMT,2021-07-13_14h36.47.604,ImageRatingTask_S5,2021.1.4,MacIntel,60.0024001,,,,,,,,,,,,,,,,,
,,,,,,,,,,,,0,6,6,6,1,seventh,14,27,F,R,IMT,2021-07-13_14h36.47.604,ImageRatingTask_S5,2021.1.4,MacIntel,60.0024001,,,,,,,,,,,,,,,,,
,,,,,,,,,,,,0,7,7,7,1,last,14,27,F,R,IMT,2021-07-13_14h36.47.604,ImageRatingTask_S5,2021.1.4,MacIntel,60.0024001,,,,,,,,,,,,,,,,,
,,,,,,,,,,,,,,,,,,14,27,F,R,IMT,2021-07-13_14h36.47.604,ImageRatingTask_S5,2021.1.4,MacIntel,60.0024001,0,43,43,92,1,DreamStudyImages_rs1000x750g/Children/People_039_v.jpg,,,,,,,,,,,
,,5,1.9731,1,0.6508,4,2.0448,1,1.0642,7,0.7643,0,0,0,0,1,main,14,27,F,R,IMT,2021-07-13_14h36.47.604,ImageRatingTask_S5,2021.1.4,MacIntel,60.0024001,,,,,,,,,,,,,,,,,
,,,,,,,,,,,,0,1,1,1,1,second,14,27,F,R,IMT,2021-07-13_14h36.47.604,ImageRatingTask_S5,2021.1.4,MacIntel,60.0024001,,,,,,,,,,,,,,,,,
,,,,,,,,,,,,0,2,2,2,1,third,14,27,F,R,IMT,2021-07-13_14h36.47.604,ImageRatingTask_S5,2021.1.4,MacIntel,60.0024001,,,,,,,,,,,,,,,,,
,,,,,,,,,,,,0,3,3,3,1,fourth,14,27,F,R,IMT,2021-07-13_14h36.47.604,ImageRatingTask_S5,2021.1.4,MacIntel,60.0024001,,,,,,,,,,,,,,,,,
,,,,,,,,,,,,0,4,4,4,1,fifth,14,27,F,R,IMT,2021-07-13_14h36.47.604,ImageRatingTask_S5,2021.1.4,MacIntel,60.0024001,,,,,,,,,,,,,,,,,
,,,,,,,,,,,,0,5,5,5,1,sixth,14,27,F,R,IMT,2021-07-13_14h36.47.604,ImageRatingTask_S5,2021.1.4,MacIntel,60.0024001,,,,,,,,,,,,,,,,,
,,,,,,,,,,,,0,6,6,6,1,seventh,14,27,F,R,IMT,2021-07-13_14h36.47.604,ImageRatingTask_S5,2021.1.4,MacIntel,60.0024001,,,,,,,,,,,,,,,,,
,,,,,,,,,,,,0,7,7,7,1,last,14,27,F,R,IMT,2021-07-13_14h36.47.604,ImageRatingTask_S5,2021.1.4,MacIntel,60.0024001,,,,,,,,,,,,,,,,,
,,,,,,,,,,,,,,,,,,14,27,F,R,IMT,2021-07-13_14h36.47.604,ImageRatingTask_S5,2021.1.4,MacIntel,60.0024001,0,44,44,12,1,DreamStudyImages_rs1000x750g/Vehicles/Objects_294_h.jpg,,,,,,,,,,,
,,6,3.6159,2,1.1185,2,2.6836,1,2.1491,3,1.262,0,0,0,0,1,main,14,27,F,R,IMT,2021-07-13_14h36.47.604,ImageRatingTask_S5,2021.1.4,MacIntel,60.0024001,,,,,,,,,,,,,,,,,
,,,,,,,,,,,,0,1,1,1,1,second,14,27,F,R,IMT,2021-07-13_14h36.47.604,ImageRatingTask_S5,2021.1.4,MacIntel,60.0024001,,,,,,,,,,,,,,,,,
,,,,,,,,,,,,0,2,2,2,1,third,14,27,F,R,IMT,2021-07-13_14h36.47.604,ImageRatingTask_S5,2021.1.4,MacIntel,60.0024001,,,,,,,,,,,,,,,,,
,,,,,,,,,,,,0,3,3,3,1,fourth,14,27,F,R,IMT,2021-07-13_14h36.47.604,ImageRatingTask_S5,2021.1.4,MacIntel,60.0024001,,,,,,,,,,,,,,,,,
,,,,,,,,,,,,0,4,4,4,1,fifth,14,27,F,R,IMT,2021-07-13_14h36.47.604,ImageRatingTask_S5,2021.1.4,MacIntel,60.0024001,,,,,,,,,,,,,,,,,
,,,,,,,,,,,,0,5,5,5,1,sixth,14,27,F,R,IMT,2021-07-13_14h36.47.604,ImageRatingTask_S5,2021.1.4,MacIntel,60.0024001,,,,,,,,,,,,,,,,,
,,,,,,,,,,,,0,6,6,6,1,seventh,14,27,F,R,IMT,2021-07-13_14h36.47.604,ImageRatingTask_S5,2021.1.4,MacIntel,60.0024001,,,,,,,,,,,,,,,,,
,,,,,,,,,,,,0,7,7,7,1,last,14,27,F,R,IMT,2021-07-13_14h36.47.604,ImageRatingTask_S5,2021.1.4,MacIntel,60.0024001,,,,,,,,,,,,,,,,,
,,,,,,,,,,,,,,,,,,14,27,F,R,IMT,2021-07-13_14h36.47.604,ImageRatingTask_S5,2021.1.4,MacIntel,60.0024001,0,45,45,60,1,DreamStudyImages_rs1000x750g/Mammals/Bear 2.jpg,,,,,,,,,,,
,,4,11.2508,3,1.7221,4,1.9752,1,1.0312,3,0.6606,0,0,0,0,1,main,14,27,F,R,IMT,2021-07-13_14h36.47.604,ImageRatingTask_S5,2021.1.4,MacIntel,60.0024001,,,,,,,,,,,,,,,,,
,,,,,,,,,,,,0,1,1,1,1,second,14,27,F,R,IMT,2021-07-13_14h36.47.604,ImageRatingTask_S5,2021.1.4,MacIntel,60.0024001,,,,,,,,,,,,,,,,,
,,,,,,,,,,,,0,2,2,2,1,third,14,27,F,R,IMT,2021-07-13_14h36.47.604,ImageRatingTask_S5,2021.1.4,MacIntel,60.0024001,,,,,,,,,,,,,,,,,
,,,,,,,,,,,,0,3,3,3,1,fourth,14,27,F,R,IMT,2021-07-13_14h36.47.604,ImageRatingTask_S5,2021.1.4,MacIntel,60.0024001,,,,,,,,,,,,,,,,,
,,,,,,,,,,,,0,4,4,4,1,fifth,14,27,F,R,IMT,2021-07-13_14h36.47.604,ImageRatingTask_S5,2021.1.4,MacIntel,60.0024001,,,,,,,,,,,,,,,,,
,,,,,,,,,,,,0,5,5,5,1,sixth,14,27,F,R,IMT,2021-07-13_14h36.47.604,ImageRatingTask_S5,2021.1.4,MacIntel,60.0024001,,,,,,,,,,,,,,,,,
,,,,,,,,,,,,0,6,6,6,1,seventh,14,27,F,R,IMT,2021-07-13_14h36.47.604,ImageRatingTask_S5,2021.1.4,MacIntel,60.0024001,,,,,,,,,,,,,,,,,
,,,,,,,,,,,,0,7,7,7,1,last,14,27,F,R,IMT,2021-07-13_14h36.47.604,ImageRatingTask_S5,2021.1.4,MacIntel,60.0024001,,,,,,,,,,,,,,,,,
,,,,,,,,,,,,,,,,,,14,27,F,R,IMT,2021-07-13_14h36.47.604,ImageRatingTask_S5,2021.1.4,MacIntel,60.0024001,0,46,46,143,1,DreamStudyImages_rs1000x750g/Mammals/Tiger 1.jpg,,,,,,,,,,,
,,6,3.2671,2,3.0649,3,6.647,1,0.8661,3,0.6225,0,0,0,0,1,main,14,27,F,R,IMT,2021-07-13_14h36.47.604,ImageRatingTask_S5,2021.1.4,MacIntel,60.0024001,,,,,,,,,,,,,,,,,
,,,,,,,,,,,,0,1,1,1,1,second,14,27,F,R,IMT,2021-07-13_14h36.47.604,ImageRatingTask_S5,2021.1.4,MacIntel,60.0024001,,,,,,,,,,,,,,,,,
,,,,,,,,,,,,0,2,2,2,1,third,14,27,F,R,IMT,2021-07-13_14h36.47.604,ImageRatingTask_S5,2021.1.4,MacIntel,60.0024001,,,,,,,,,,,,,,,,,
,,,,,,,,,,,,0,3,3,3,1,fourth,14,27,F,R,IMT,2021-07-13_14h36.47.604,ImageRatingTask_S5,2021.1.4,MacIntel,60.0024001,,,,,,,,,,,,,,,,,
,,,,,,,,,,,,0,4,4,4,1,fifth,14,27,F,R,IMT,2021-07-13_14h36.47.604,ImageRatingTask_S5,2021.1.4,MacIntel,60.0024001,,,,,,,,,,,,,,,,,
,,,,,,,,,,,,0,5,5,5,1,sixth,14,27,F,R,IMT,2021-07-13_14h36.47.604,ImageRatingTask_S5,2021.1.4,MacIntel,60.0024001,,,,,,,,,,,,,,,,,
,,,,,,,,,,,,0,6,6,6,1,seventh,14,27,F,R,IMT,2021-07-13_14h36.47.604,ImageRatingTask_S5,2021.1.4,MacIntel,60.0024001,,,,,,,,,,,,,,,,,
,,,,,,,,,,,,0,7,7,7,1,last,14,27,F,R,IMT,2021-07-13_14h36.47.604,ImageRatingTask_S5,2021.1.4,MacIntel,60.0024001,,,,,,,,,,,,,,,,,
,,,,,,,,,,,,,,,,,,14,27,F,R,IMT,2021-07-13_14h36.47.604,ImageRatingTask_S5,2021.1.4,MacIntel,60.0024001,0,47,47,64,1,DreamStudyImages_rs1000x750g/Mammals/IAPS1661_orangutan.jpg,,,,,,,,,,,
,,4,14.9805,1,1.1843,5,1.6474,1,1.951,6,1.0285,0,0,0,0,1,main,14,27,F,R,IMT,2021-07-13_14h36.47.604,ImageRatingTask_S5,2021.1.4,MacIntel,60.0024001,,,,,,,,,,,,,,,,,
,,,,,,,,,,,,0,1,1,1,1,second,14,27,F,R,IMT,2021-07-13_14h36.47.604,ImageRatingTask_S5,2021.1.4,MacIntel,60.0024001,,,,,,,,,,,,,,,,,
,,,,,,,,,,,,0,2,2,2,1,third,14,27,F,R,IMT,2021-07-13_14h36.47.604,ImageRatingTask_S5,2021.1.4,MacIntel,60.0024001,,,,,,,,,,,,,,,,,
,,,,,,,,,,,,0,3,3,3,1,fourth,14,27,F,R,IMT,2021-07-13_14h36.47.604,ImageRatingTask_S5,2021.1.4,MacIntel,60.0024001,,,,,,,,,,,,,,,,,
,,,,,,,,,,,,0,4,4,4,1,fifth,14,27,F,R,IMT,2021-07-13_14h36.47.604,ImageRatingTask_S5,2021.1.4,MacIntel,60.0024001,,,,,,,,,,,,,,,,,
,,,,,,,,,,,,0,5,5,5,1,sixth,14,27,F,R,IMT,2021-07-13_14h36.47.604,ImageRatingTask_S5,2021.1.4,MacIntel,60.0024001,,,,,,,,,,,,,,,,,
,,,,,,,,,,,,0,6,6,6,1,seventh,14,27,F,R,IMT,2021-07-13_14h36.47.604,ImageRatingTask_S5,2021.1.4,MacIntel,60.0024001,,,,,,,,,,,,,,,,,
,,,,,,,,,,,,0,7,7,7,1,last,14,27,F,R,IMT,2021-07-13_14h36.47.604,ImageRatingTask_S5,2021.1.4,MacIntel,60.0024001,,,,,,,,,,,,,,,,,
,,,,,,,,,,,,,,,,,,14,27,F,R,IMT,2021-07-13_14h36.47.604,ImageRatingTask_S5,2021.1.4,MacIntel,60.0024001,0,48,48,121,1,DreamStudyImages_rs1000x750g/Houses/NDPS111_houses8_CROPPED.jpg,,,,,,,,,,,
,,5,25.1188,1,1.1865,4,4.1511,1,1.0464,7,0.8947,0,0,0,0,1,main,14,27,F,R,IMT,2021-07-13_14h36.47.604,ImageRatingTask_S5,2021.1.4,MacIntel,60.0024001,,,,,,,,,,,,,,,,,
,,,,,,,,,,,,0,1,1,1,1,second,14,27,F,R,IMT,2021-07-13_14h36.47.604,ImageRatingTask_S5,2021.1.4,MacIntel,60.0024001,,,,,,,,,,,,,,,,,
,,,,,,,,,,,,0,2,2,2,1,third,14,27,F,R,IMT,2021-07-13_14h36.47.604,ImageRatingTask_S5,2021.1.4,MacIntel,60.0024001,,,,,,,,,,,,,,,,,
,,,,,,,,,,,,0,3,3,3,1,fourth,14,27,F,R,IMT,2021-07-13_14h36.47.604,ImageRatingTask_S5,2021.1.4,MacIntel,60.0024001,,,,,,,,,,,,,,,,,
,,,,,,,,,,,,0,4,4,4,1,fifth,14,27,F,R,IMT,2021-07-13_14h36.47.604,ImageRatingTask_S5,2021.1.4,MacIntel,60.0024001,,,,,,,,,,,,,,,,,
,,,,,,,,,,,,0,5,5,5,1,sixth,14,27,F,R,IMT,2021-07-13_14h36.47.604,ImageRatingTask_S5,2021.1.4,MacIntel,60.0024001,,,,,,,,,,,,,,,,,
,,,,,,,,,,,,0,6,6,6,1,seventh,14,27,F,R,IMT,2021-07-13_14h36.47.604,ImageRatingTask_S5,2021.1.4,MacIntel,60.0024001,,,,,,,,,,,,,,,,,
,,,,,,,,,,,,0,7,7,7,1,last,14,27,F,R,IMT,2021-07-13_14h36.47.604,ImageRatingTask_S5,2021.1.4,MacIntel,60.0024001,,,,,,,,,,,,,,,,,
,,,,,,,,,,,,,,,,,,14,27,F,R,IMT,2021-07-13_14h36.47.604,ImageRatingTask_S5,2021.1.4,MacIntel,60.0024001,0,49,49,148,1,DreamStudyImages_rs1000x750g/Vehicles/Objects_280_v.jpg,,,,,,,,,,,
,,5,8.9504,1,0.8534,6,1.0353,1,4.3248,8,0.8688,0,0,0,0,1,main,14,27,F,R,IMT,2021-07-13_14h36.47.604,ImageRatingTask_S5,2021.1.4,MacIntel,60.0024001,,,,,,,,,,,,,,,,,
,,,,,,,,,,,,0,1,1,1,1,second,14,27,F,R,IMT,2021-07-13_14h36.47.604,ImageRatingTask_S5,2021.1.4,MacIntel,60.0024001,,,,,,,,,,,,,,,,,
,,,,,,,,,,,,0,2,2,2,1,third,14,27,F,R,IMT,2021-07-13_14h36.47.604,ImageRatingTask_S5,2021.1.4,MacIntel,60.0024001,,,,,,,,,,,,,,,,,
,,,,,,,,,,,,0,3,3,3,1,fourth,14,27,F,R,IMT,2021-07-13_14h36.47.604,ImageRatingTask_S5,2021.1.4,MacIntel,60.0024001,,,,,,,,,,,,,,,,,
,,,,,,,,,,,,0,4,4,4,1,fifth,14,27,F,R,IMT,2021-07-13_14h36.47.604,ImageRatingTask_S5,2021.1.4,MacIntel,60.0024001,,,,,,,,,,,,,,,,,
,,,,,,,,,,,,0,5,5,5,1,sixth,14,27,F,R,IMT,2021-07-13_14h36.47.604,ImageRatingTask_S5,2021.1.4,MacIntel,60.0024001,,,,,,,,,,,,,,,,,
,,,,,,,,,,,,0,6,6,6,1,seventh,14,27,F,R,IMT,2021-07-13_14h36.47.604,ImageRatingTask_S5,2021.1.4,MacIntel,60.0024001,,,,,,,,,,,,,,,,,
,,,,,,,,,,,,0,7,7,7,1,last,14,27,F,R,IMT,2021-07-13_14h36.47.604,ImageRatingTask_S5,2021.1.4,MacIntel,60.0024001,,,,,,,,,,,,,,,,,
,,,,,,,,,,,,,,,,,,14,27,F,R,IMT,2021-07-13_14h36.47.604,ImageRatingTask_S5,2021.1.4,MacIntel,60.0024001,0,50,50,97,1,DreamStudyImages_rs1000x750g/Water/Landscapes_140_v_CHECK.jpg,,,,,,,,,,,
,,6,3.7682,2,2.9514,3,1.5648,1,0.9258,3,1.2625,0,0,0,0,1,main,14,27,F,R,IMT,2021-07-13_14h36.47.604,ImageRatingTask_S5,2021.1.4,MacIntel,60.0024001,,,,,,,,,,,,,,,,,
,,,,,,,,,,,,0,1,1,1,1,second,14,27,F,R,IMT,2021-07-13_14h36.47.604,ImageRatingTask_S5,2021.1.4,MacIntel,60.0024001,,,,,,,,,,,,,,,,,
,,,,,,,,,,,,0,2,2,2,1,third,14,27,F,R,IMT,2021-07-13_14h36.47.604,ImageRatingTask_S5,2021.1.4,MacIntel,60.0024001,,,,,,,,,,,,,,,,,
,,,,,,,,,,,,0,3,3,3,1,fourth,14,27,F,R,IMT,2021-07-13_14h36.47.604,ImageRatingTask_S5,2021.1.4,MacIntel,60.0024001,,,,,,,,,,,,,,,,,
,,,,,,,,,,,,0,4,4,4,1,fifth,14,27,F,R,IMT,2021-07-13_14h36.47.604,ImageRatingTask_S5,2021.1.4,MacIntel,60.0024001,,,,,,,,,,,,,,,,,
,,,,,,,,,,,,0,5,5,5,1,sixth,14,27,F,R,IMT,2021-07-13_14h36.47.604,ImageRatingTask_S5,2021.1.4,MacIntel,60.0024001,,,,,,,,,,,,,,,,,
,,,,,,,,,,,,0,6,6,6,1,seventh,14,27,F,R,IMT,2021-07-13_14h36.47.604,ImageRatingTask_S5,2021.1.4,MacIntel,60.0024001,,,,,,,,,,,,,,,,,
,,,,,,,,,,,,0,7,7,7,1,last,14,27,F,R,IMT,2021-07-13_14h36.47.604,ImageRatingTask_S5,2021.1.4,MacIntel,60.0024001,,,,,,,,,,,,,,,,,
,,,,,,,,,,,,,,,,,,14,27,F,R,IMT,2021-07-13_14h36.47.604,ImageRatingTask_S5,2021.1.4,MacIntel,60.0024001,0,51,51,79,1,DreamStudyImages_rs1000x750g/Mammals/Chipmunk 1.jpg,,,,,,,,,,,
,,6,4.2687,1,1.2197,1,1.2321,1,1.2009,8,0.9259,0,0,0,0,1,main,14,27,F,R,IMT,2021-07-13_14h36.47.604,ImageRatingTask_S5,2021.1.4,MacIntel,60.0024001,,,,,,,,,,,,,,,,,
,,,,,,,,,,,,0,1,1,1,1,second,14,27,F,R,IMT,2021-07-13_14h36.47.604,ImageRatingTask_S5,2021.1.4,MacIntel,60.0024001,,,,,,,,,,,,,,,,,
,,,,,,,,,,,,0,2,2,2,1,third,14,27,F,R,IMT,2021-07-13_14h36.47.604,ImageRatingTask_S5,2021.1.4,MacIntel,60.0024001,,,,,,,,,,,,,,,,,
,,,,,,,,,,,,0,3,3,3,1,fourth,14,27,F,R,IMT,2021-07-13_14h36.47.604,ImageRatingTask_S5,2021.1.4,MacIntel,60.0024001,,,,,,,,,,,,,,,,,
,,,,,,,,,,,,0,4,4,4,1,fifth,14,27,F,R,IMT,2021-07-13_14h36.47.604,ImageRatingTask_S5,2021.1.4,MacIntel,60.0024001,,,,,,,,,,,,,,,,,
,,,,,,,,,,,,0,5,5,5,1,sixth,14,27,F,R,IMT,2021-07-13_14h36.47.604,ImageRatingTask_S5,2021.1.4,MacIntel,60.0024001,,,,,,,,,,,,,,,,,
,,,,,,,,,,,,0,6,6,6,1,seventh,14,27,F,R,IMT,2021-07-13_14h36.47.604,ImageRatingTask_S5,2021.1.4,MacIntel,60.0024001,,,,,,,,,,,,,,,,,
,,,,,,,,,,,,0,7,7,7,1,last,14,27,F,R,IMT,2021-07-13_14h36.47.604,ImageRatingTask_S5,2021.1.4,MacIntel,60.0024001,,,,,,,,,,,,,,,,,
,,,,,,,,,,,,,,,,,,14,27,F,R,IMT,2021-07-13_14h36.47.604,ImageRatingTask_S5,2021.1.4,MacIntel,60.0024001,0,52,52,84,1,DreamStudyImages_rs1000x750g/Water/Lake 9.jpg,,,,,,,,,,,
,,5,4.5841,1,0.7331,6,1.3267,1,0.8228,5,0.9321,0,0,0,0,1,main,14,27,F,R,IMT,2021-07-13_14h36.47.604,ImageRatingTask_S5,2021.1.4,MacIntel,60.0024001,,,,,,,,,,,,,,,,,
,,,,,,,,,,,,0,1,1,1,1,second,14,27,F,R,IMT,2021-07-13_14h36.47.604,ImageRatingTask_S5,2021.1.4,MacIntel,60.0024001,,,,,,,,,,,,,,,,,
,,,,,,,,,,,,0,2,2,2,1,third,14,27,F,R,IMT,2021-07-13_14h36.47.604,ImageRatingTask_S5,2021.1.4,MacIntel,60.0024001,,,,,,,,,,,,,,,,,
,,,,,,,,,,,,0,3,3,3,1,fourth,14,27,F,R,IMT,2021-07-13_14h36.47.604,ImageRatingTask_S5,2021.1.4,MacIntel,60.0024001,,,,,,,,,,,,,,,,,
,,,,,,,,,,,,0,4,4,4,1,fifth,14,27,F,R,IMT,2021-07-13_14h36.47.604,ImageRatingTask_S5,2021.1.4,MacIntel,60.0024001,,,,,,,,,,,,,,,,,
,,,,,,,,,,,,0,5,5,5,1,sixth,14,27,F,R,IMT,2021-07-13_14h36.47.604,ImageRatingTask_S5,2021.1.4,MacIntel,60.0024001,,,,,,,,,,,,,,,,,
,,,,,,,,,,,,0,6,6,6,1,seventh,14,27,F,R,IMT,2021-07-13_14h36.47.604,ImageRatingTask_S5,2021.1.4,MacIntel,60.0024001,,,,,,,,,,,,,,,,,
,,,,,,,,,,,,0,7,7,7,1,last,14,27,F,R,IMT,2021-07-13_14h36.47.604,ImageRatingTask_S5,2021.1.4,MacIntel,60.0024001,,,,,,,,,,,,,,,,,
,,,,,,,,,,,,,,,,,,14,27,F,R,IMT,2021-07-13_14h36.47.604,ImageRatingTask_S5,2021.1.4,MacIntel,60.0024001,0,53,53,11,1,DreamStudyImages_rs1000x750g/Food/Objects_064_v.jpg,,,,,,,,,,,
,,6,2.5614,2,3.4687,3,3.5636,1,0.8802,3,1.3613,0,0,0,0,1,main,14,27,F,R,IMT,2021-07-13_14h36.47.604,ImageRatingTask_S5,2021.1.4,MacIntel,60.0024001,,,,,,,,,,,,,,,,,
,,,,,,,,,,,,0,1,1,1,1,second,14,27,F,R,IMT,2021-07-13_14h36.47.604,ImageRatingTask_S5,2021.1.4,MacIntel,60.0024001,,,,,,,,,,,,,,,,,
,,,,,,,,,,,,0,2,2,2,1,third,14,27,F,R,IMT,2021-07-13_14h36.47.604,ImageRatingTask_S5,2021.1.4,MacIntel,60.0024001,,,,,,,,,,,,,,,,,
,,,,,,,,,,,,0,3,3,3,1,fourth,14,27,F,R,IMT,2021-07-13_14h36.47.604,ImageRatingTask_S5,2021.1.4,MacIntel,60.0024001,,,,,,,,,,,,,,,,,
,,,,,,,,,,,,0,4,4,4,1,fifth,14,27,F,R,IMT,2021-07-13_14h36.47.604,ImageRatingTask_S5,2021.1.4,MacIntel,60.0024001,,,,,,,,,,,,,,,,,
,,,,,,,,,,,,0,5,5,5,1,sixth,14,27,F,R,IMT,2021-07-13_14h36.47.604,ImageRatingTask_S5,2021.1.4,MacIntel,60.0024001,,,,,,,,,,,,,,,,,
,,,,,,,,,,,,0,6,6,6,1,seventh,14,27,F,R,IMT,2021-07-13_14h36.47.604,ImageRatingTask_S5,2021.1.4,MacIntel,60.0024001,,,,,,,,,,,,,,,,,
,,,,,,,,,,,,0,7,7,7,1,last,14,27,F,R,IMT,2021-07-13_14h36.47.604,ImageRatingTask_S5,2021.1.4,MacIntel,60.0024001,,,,,,,,,,,,,,,,,
,,,,,,,,,,,,,,,,,,14,27,F,R,IMT,2021-07-13_14h36.47.604,ImageRatingTask_S5,2021.1.4,MacIntel,60.0024001,0,54,54,43,1,DreamStudyImages_rs1000x750g/Mammals/Animals_197_h.jpg,,,,,,,,,,,
,,5,2.9835,1,0.3857,3,1.8329,1,1.064,5,1.0122,0,0,0,0,1,main,14,27,F,R,IMT,2021-07-13_14h36.47.604,ImageRatingTask_S5,2021.1.4,MacIntel,60.0024001,,,,,,,,,,,,,,,,,
,,,,,,,,,,,,0,1,1,1,1,second,14,27,F,R,IMT,2021-07-13_14h36.47.604,ImageRatingTask_S5,2021.1.4,MacIntel,60.0024001,,,,,,,,,,,,,,,,,
,,,,,,,,,,,,0,2,2,2,1,third,14,27,F,R,IMT,2021-07-13_14h36.47.604,ImageRatingTask_S5,2021.1.4,MacIntel,60.0024001,,,,,,,,,,,,,,,,,
,,,,,,,,,,,,0,3,3,3,1,fourth,14,27,F,R,IMT,2021-07-13_14h36.47.604,ImageRatingTask_S5,2021.1.4,MacIntel,60.0024001,,,,,,,,,,,,,,,,,
,,,,,,,,,,,,0,4,4,4,1,fifth,14,27,F,R,IMT,2021-07-13_14h36.47.604,ImageRatingTask_S5,2021.1.4,MacIntel,60.0024001,,,,,,,,,,,,,,,,,
,,,,,,,,,,,,0,5,5,5,1,sixth,14,27,F,R,IMT,2021-07-13_14h36.47.604,ImageRatingTask_S5,2021.1.4,MacIntel,60.0024001,,,,,,,,,,,,,,,,,
,,,,,,,,,,,,0,6,6,6,1,seventh,14,27,F,R,IMT,2021-07-13_14h36.47.604,ImageRatingTask_S5,2021.1.4,MacIntel,60.0024001,,,,,,,,,,,,,,,,,
,,,,,,,,,,,,0,7,7,7,1,last,14,27,F,R,IMT,2021-07-13_14h36.47.604,ImageRatingTask_S5,2021.1.4,MacIntel,60.0024001,,,,,,,,,,,,,,,,,
,,,,,,,,,,,,,,,,,,14,27,F,R,IMT,2021-07-13_14h36.47.604,ImageRatingTask_S5,2021.1.4,MacIntel,60.0024001,0,55,55,69,1,DreamStudyImages_rs1000x750g/Food/Objects_016_h.jpg,,,,,,,,,,,
,,5,16.8439,1,0.3675,2,1.0678,1,0.9008,6,1.1582,0,0,0,0,1,main,14,27,F,R,IMT,2021-07-13_14h36.47.604,ImageRatingTask_S5,2021.1.4,MacIntel,60.0024001,,,,,,,,,,,,,,,,,
,,,,,,,,,,,,0,1,1,1,1,second,14,27,F,R,IMT,2021-07-13_14h36.47.604,ImageRatingTask_S5,2021.1.4,MacIntel,60.0024001,,,,,,,,,,,,,,,,,
,,,,,,,,,,,,0,2,2,2,1,third,14,27,F,R,IMT,2021-07-13_14h36.47.604,ImageRatingTask_S5,2021.1.4,MacIntel,60.0024001,,,,,,,,,,,,,,,,,
,,,,,,,,,,,,0,3,3,3,1,fourth,14,27,F,R,IMT,2021-07-13_14h36.47.604,ImageRatingTask_S5,2021.1.4,MacIntel,60.0024001,,,,,,,,,,,,,,,,,
,,,,,,,,,,,,0,4,4,4,1,fifth,14,27,F,R,IMT,2021-07-13_14h36.47.604,ImageRatingTask_S5,2021.1.4,MacIntel,60.0024001,,,,,,,,,,,,,,,,,
,,,,,,,,,,,,0,5,5,5,1,sixth,14,27,F,R,IMT,2021-07-13_14h36.47.604,ImageRatingTask_S5,2021.1.4,MacIntel,60.0024001,,,,,,,,,,,,,,,,,
,,,,,,,,,,,,0,6,6,6,1,seventh,14,27,F,R,IMT,2021-07-13_14h36.47.604,ImageRatingTask_S5,2021.1.4,MacIntel,60.0024001,,,,,,,,,,,,,,,,,
,,,,,,,,,,,,0,7,7,7,1,last,14,27,F,R,IMT,2021-07-13_14h36.47.604,ImageRatingTask_S5,2021.1.4,MacIntel,60.0024001,,,,,,,,,,,,,,,,,
,,,,,,,,,,,,,,,,,,14,27,F,R,IMT,2021-07-13_14h36.47.604,ImageRatingTask_S5,2021.1.4,MacIntel,60.0024001,0,56,56,77,1,DreamStudyImages_rs1000x750g/Houses/Skyscraper 1.jpg,,,,,,,,,,,
,,3,3.5149,2,1.0033,2,2.4849,1,2.197,3,0.6283,0,0,0,0,1,main,14,27,F,R,IMT,2021-07-13_14h36.47.604,ImageRatingTask_S5,2021.1.4,MacIntel,60.0024001,,,,,,,,,,,,,,,,,
,,,,,,,,,,,,0,1,1,1,1,second,14,27,F,R,IMT,2021-07-13_14h36.47.604,ImageRatingTask_S5,2021.1.4,MacIntel,60.0024001,,,,,,,,,,,,,,,,,
,,,,,,,,,,,,0,2,2,2,1,third,14,27,F,R,IMT,2021-07-13_14h36.47.604,ImageRatingTask_S5,2021.1.4,MacIntel,60.0024001,,,,,,,,,,,,,,,,,
,,,,,,,,,,,,0,3,3,3,1,fourth,14,27,F,R,IMT,2021-07-13_14h36.47.604,ImageRatingTask_S5,2021.1.4,MacIntel,60.0024001,,,,,,,,,,,,,,,,,
,,,,,,,,,,,,0,4,4,4,1,fifth,14,27,F,R,IMT,2021-07-13_14h36.47.604,ImageRatingTask_S5,2021.1.4,MacIntel,60.0024001,,,,,,,,,,,,,,,,,
,,,,,,,,,,,,0,5,5,5,1,sixth,14,27,F,R,IMT,2021-07-13_14h36.47.604,ImageRatingTask_S5,2021.1.4,MacIntel,60.0024001,,,,,,,,,,,,,,,,,
,,,,,,,,,,,,0,6,6,6,1,seventh,14,27,F,R,IMT,2021-07-13_14h36.47.604,ImageRatingTask_S5,2021.1.4,MacIntel,60.0024001,,,,,,,,,,,,,,,,,
,,,,,,,,,,,,0,7,7,7,1,last,14,27,F,R,IMT,2021-07-13_14h36.47.604,ImageRatingTask_S5,2021.1.4,MacIntel,60.0024001,,,,,,,,,,,,,,,,,
,,,,,,,,,,,,,,,,,,14,27,F,R,IMT,2021-07-13_14h36.47.604,ImageRatingTask_S5,2021.1.4,MacIntel,60.0024001,0,57,57,25,1,DreamStudyImages_rs1000x750g/Mammals/IAPS1525_dog9.jpg,,,,,,,,,,,
,,6,2.4664,1,1.7028,1,3.4317,1,1.6974,8,0.8953,0,0,0,0,1,main,14,27,F,R,IMT,2021-07-13_14h36.47.604,ImageRatingTask_S5,2021.1.4,MacIntel,60.0024001,,,,,,,,,,,,,,,,,
,,,,,,,,,,,,0,1,1,1,1,second,14,27,F,R,IMT,2021-07-13_14h36.47.604,ImageRatingTask_S5,2021.1.4,MacIntel,60.0024001,,,,,,,,,,,,,,,,,
,,,,,,,,,,,,0,2,2,2,1,third,14,27,F,R,IMT,2021-07-13_14h36.47.604,ImageRatingTask_S5,2021.1.4,MacIntel,60.0024001,,,,,,,,,,,,,,,,,
,,,,,,,,,,,,0,3,3,3,1,fourth,14,27,F,R,IMT,2021-07-13_14h36.47.604,ImageRatingTask_S5,2021.1.4,MacIntel,60.0024001,,,,,,,,,,,,,,,,,
,,,,,,,,,,,,0,4,4,4,1,fifth,14,27,F,R,IMT,2021-07-13_14h36.47.604,ImageRatingTask_S5,2021.1.4,MacIntel,60.0024001,,,,,,,,,,,,,,,,,
,,,,,,,,,,,,0,5,5,5,1,sixth,14,27,F,R,IMT,2021-07-13_14h36.47.604,ImageRatingTask_S5,2021.1.4,MacIntel,60.0024001,,,,,,,,,,,,,,,,,
,,,,,,,,,,,,0,6,6,6,1,seventh,14,27,F,R,IMT,2021-07-13_14h36.47.604,ImageRatingTask_S5,2021.1.4,MacIntel,60.0024001,,,,,,,,,,,,,,,,,
,,,,,,,,,,,,0,7,7,7,1,last,14,27,F,R,IMT,2021-07-13_14h36.47.604,ImageRatingTask_S5,2021.1.4,MacIntel,60.0024001,,,,,,,,,,,,,,,,,
,,,,,,,,,,,,,,,,,,14,27,F,R,IMT,2021-07-13_14h36.47.604,ImageRatingTask_S5,2021.1.4,MacIntel,60.0024001,0,58,58,149,1,DreamStudyImages_rs1000x750g/Water/IAPS5780_lake2.jpg,,,,,,,,,,,
,,3,3.422,4,1.5358,2,2.365,1,0.781,7,0.6951,0,0,0,0,1,main,14,27,F,R,IMT,2021-07-13_14h36.47.604,ImageRatingTask_S5,2021.1.4,MacIntel,60.0024001,,,,,,,,,,,,,,,,,
,,,,,,,,,,,,0,1,1,1,1,second,14,27,F,R,IMT,2021-07-13_14h36.47.604,ImageRatingTask_S5,2021.1.4,MacIntel,60.0024001,,,,,,,,,,,,,,,,,
,,,,,,,,,,,,0,2,2,2,1,third,14,27,F,R,IMT,2021-07-13_14h36.47.604,ImageRatingTask_S5,2021.1.4,MacIntel,60.0024001,,,,,,,,,,,,,,,,,
,,,,,,,,,,,,0,3,3,3,1,fourth,14,27,F,R,IMT,2021-07-13_14h36.47.604,ImageRatingTask_S5,2021.1.4,MacIntel,60.0024001,,,,,,,,,,,,,,,,,
,,,,,,,,,,,,0,4,4,4,1,fifth,14,27,F,R,IMT,2021-07-13_14h36.47.604,ImageRatingTask_S5,2021.1.4,MacIntel,60.0024001,,,,,,,,,,,,,,,,,
,,,,,,,,,,,,0,5,5,5,1,sixth,14,27,F,R,IMT,2021-07-13_14h36.47.604,ImageRatingTask_S5,2021.1.4,MacIntel,60.0024001,,,,,,,,,,,,,,,,,
,,,,,,,,,,,,0,6,6,6,1,seventh,14,27,F,R,IMT,2021-07-13_14h36.47.604,ImageRatingTask_S5,2021.1.4,MacIntel,60.0024001,,,,,,,,,,,,,,,,,
,,,,,,,,,,,,0,7,7,7,1,last,14,27,F,R,IMT,2021-07-13_14h36.47.604,ImageRatingTask_S5,2021.1.4,MacIntel,60.0024001,,,,,,,,,,,,,,,,,
,,,,,,,,,,,,,,,,,,14,27,F,R,IMT,2021-07-13_14h36.47.604,ImageRatingTask_S5,2021.1.4,MacIntel,60.0024001,0,59,59,16,1,DreamStudyImages_rs1000x750g/Vehicles/9611.jpg,,,,,,,,,,,
,,6,7.6684,1,0.9694,7,1.398,1,0.6184,2,0.6128,0,0,0,0,1,main,14,27,F,R,IMT,2021-07-13_14h36.47.604,ImageRatingTask_S5,2021.1.4,MacIntel,60.0024001,,,,,,,,,,,,,,,,,
,,,,,,,,,,,,0,1,1,1,1,second,14,27,F,R,IMT,2021-07-13_14h36.47.604,ImageRatingTask_S5,2021.1.4,MacIntel,60.0024001,,,,,,,,,,,,,,,,,
,,,,,,,,,,,,0,2,2,2,1,third,14,27,F,R,IMT,2021-07-13_14h36.47.604,ImageRatingTask_S5,2021.1.4,MacIntel,60.0024001,,,,,,,,,,,,,,,,,
,,,,,,,,,,,,0,3,3,3,1,fourth,14,27,F,R,IMT,2021-07-13_14h36.47.604,ImageRatingTask_S5,2021.1.4,MacIntel,60.0024001,,,,,,,,,,,,,,,,,
,,,,,,,,,,,,0,4,4,4,1,fifth,14,27,F,R,IMT,2021-07-13_14h36.47.604,ImageRatingTask_S5,2021.1.4,MacIntel,60.0024001,,,,,,,,,,,,,,,,,
,,,,,,,,,,,,0,5,5,5,1,sixth,14,27,F,R,IMT,2021-07-13_14h36.47.604,ImageRatingTask_S5,2021.1.4,MacIntel,60.0024001,,,,,,,,,,,,,,,,,
,,,,,,,,,,,,0,6,6,6,1,seventh,14,27,F,R,IMT,2021-07-13_14h36.47.604,ImageRatingTask_S5,2021.1.4,MacIntel,60.0024001,,,,,,,,,,,,,,,,,
,,,,,,,,,,,,0,7,7,7,1,last,14,27,F,R,IMT,2021-07-13_14h36.47.604,ImageRatingTask_S5,2021.1.4,MacIntel,60.0024001,,,,,,,,,,,,,,,,,
,,,,,,,,,,,,,,,,,,14,27,F,R,IMT,2021-07-13_14h36.47.604,ImageRatingTask_S5,2021.1.4,MacIntel,60.0024001,0,60,60,55,1,DreamStudyImages_rs1000x750g/Children/Faces_114_h.jpg,,,,,,,,,,,
,,5,5.2527,1,0.3239,3,0.8649,1,0.5845,5,0.8284,0,0,0,0,1,main,14,27,F,R,IMT,2021-07-13_14h36.47.604,ImageRatingTask_S5,2021.1.4,MacIntel,60.0024001,,,,,,,,,,,,,,,,,
,,,,,,,,,,,,0,1,1,1,1,second,14,27,F,R,IMT,2021-07-13_14h36.47.604,ImageRatingTask_S5,2021.1.4,MacIntel,60.0024001,,,,,,,,,,,,,,,,,
,,,,,,,,,,,,0,2,2,2,1,third,14,27,F,R,IMT,2021-07-13_14h36.47.604,ImageRatingTask_S5,2021.1.4,MacIntel,60.0024001,,,,,,,,,,,,,,,,,
,,,,,,,,,,,,0,3,3,3,1,fourth,14,27,F,R,IMT,2021-07-13_14h36.47.604,ImageRatingTask_S5,2021.1.4,MacIntel,60.0024001,,,,,,,,,,,,,,,,,
,,,,,,,,,,,,0,4,4,4,1,fifth,14,27,F,R,IMT,2021-07-13_14h36.47.604,ImageRatingTask_S5,2021.1.4,MacIntel,60.0024001,,,,,,,,,,,,,,,,,
,,,,,,,,,,,,0,5,5,5,1,sixth,14,27,F,R,IMT,2021-07-13_14h36.47.604,ImageRatingTask_S5,2021.1.4,MacIntel,60.0024001,,,,,,,,,,,,,,,,,
,,,,,,,,,,,,0,6,6,6,1,seventh,14,27,F,R,IMT,2021-07-13_14h36.47.604,ImageRatingTask_S5,2021.1.4,MacIntel,60.0024001,,,,,,,,,,,,,,,,,
,,,,,,,,,,,,0,7,7,7,1,last,14,27,F,R,IMT,2021-07-13_14h36.47.604,ImageRatingTask_S5,2021.1.4,MacIntel,60.0024001,,,,,,,,,,,,,,,,,
,,,,,,,,,,,,,,,,,,14,27,F,R,IMT,2021-07-13_14h36.47.604,ImageRatingTask_S5,2021.1.4,MacIntel,60.0024001,0,61,61,53,1,DreamStudyImages_rs1000x750g/Food/Food 1.jpg,,,,,,,,,,,
,,5,1.3519,1,0.3681,5,2.095,1,0.8757,5,0.6489,0,0,0,0,1,main,14,27,F,R,IMT,2021-07-13_14h36.47.604,ImageRatingTask_S5,2021.1.4,MacIntel,60.0024001,,,,,,,,,,,,,,,,,
,,,,,,,,,,,,0,1,1,1,1,second,14,27,F,R,IMT,2021-07-13_14h36.47.604,ImageRatingTask_S5,2021.1.4,MacIntel,60.0024001,,,,,,,,,,,,,,,,,
,,,,,,,,,,,,0,2,2,2,1,third,14,27,F,R,IMT,2021-07-13_14h36.47.604,ImageRatingTask_S5,2021.1.4,MacIntel,60.0024001,,,,,,,,,,,,,,,,,
,,,,,,,,,,,,0,3,3,3,1,fourth,14,27,F,R,IMT,2021-07-13_14h36.47.604,ImageRatingTask_S5,2021.1.4,MacIntel,60.0024001,,,,,,,,,,,,,,,,,
,,,,,,,,,,,,0,4,4,4,1,fifth,14,27,F,R,IMT,2021-07-13_14h36.47.604,ImageRatingTask_S5,2021.1.4,MacIntel,60.0024001,,,,,,,,,,,,,,,,,
,,,,,,,,,,,,0,5,5,5,1,sixth,14,27,F,R,IMT,2021-07-13_14h36.47.604,ImageRatingTask_S5,2021.1.4,MacIntel,60.0024001,,,,,,,,,,,,,,,,,
,,,,,,,,,,,,0,6,6,6,1,seventh,14,27,F,R,IMT,2021-07-13_14h36.47.604,ImageRatingTask_S5,2021.1.4,MacIntel,60.0024001,,,,,,,,,,,,,,,,,
,,,,,,,,,,,,0,7,7,7,1,last,14,27,F,R,IMT,2021-07-13_14h36.47.604,ImageRatingTask_S5,2021.1.4,MacIntel,60.0024001,,,,,,,,,,,,,,,,,
,,,,,,,,,,,,,,,,,,14,27,F,R,IMT,2021-07-13_14h36.47.604,ImageRatingTask_S5,2021.1.4,MacIntel,60.0024001,0,62,62,75,1,DreamStudyImages_rs1000x750g/Food/Objects_051_h.jpg,,,,,,,,,,,
,,5,3.8486,1,0.6671,3,4.5996,1,3.3145,6,0.9309,0,0,0,0,1,main,14,27,F,R,IMT,2021-07-13_14h36.47.604,ImageRatingTask_S5,2021.1.4,MacIntel,60.0024001,,,,,,,,,,,,,,,,,
,,,,,,,,,,,,0,1,1,1,1,second,14,27,F,R,IMT,2021-07-13_14h36.47.604,ImageRatingTask_S5,2021.1.4,MacIntel,60.0024001,,,,,,,,,,,,,,,,,
,,,,,,,,,,,,0,2,2,2,1,third,14,27,F,R,IMT,2021-07-13_14h36.47.604,ImageRatingTask_S5,2021.1.4,MacIntel,60.0024001,,,,,,,,,,,,,,,,,
,,,,,,,,,,,,0,3,3,3,1,fourth,14,27,F,R,IMT,2021-07-13_14h36.47.604,ImageRatingTask_S5,2021.1.4,MacIntel,60.0024001,,,,,,,,,,,,,,,,,
,,,,,,,,,,,,0,4,4,4,1,fifth,14,27,F,R,IMT,2021-07-13_14h36.47.604,ImageRatingTask_S5,2021.1.4,MacIntel,60.0024001,,,,,,,,,,,,,,,,,
,,,,,,,,,,,,0,5,5,5,1,sixth,14,27,F,R,IMT,2021-07-13_14h36.47.604,ImageRatingTask_S5,2021.1.4,MacIntel,60.0024001,,,,,,,,,,,,,,,,,
,,,,,,,,,,,,0,6,6,6,1,seventh,14,27,F,R,IMT,2021-07-13_14h36.47.604,ImageRatingTask_S5,2021.1.4,MacIntel,60.0024001,,,,,,,,,,,,,,,,,
,,,,,,,,,,,,0,7,7,7,1,last,14,27,F,R,IMT,2021-07-13_14h36.47.604,ImageRatingTask_S5,2021.1.4,MacIntel,60.0024001,,,,,,,,,,,,,,,,,
,,,,,,,,,,,,,,,,,,14,27,F,R,IMT,2021-07-13_14h36.47.604,ImageRatingTask_S5,2021.1.4,MacIntel,60.0024001,0,63,63,54,1,DreamStudyImages_rs1000x750g/Houses/NDPS18_houses2_CROPPED.jpg,,,,,,,,,,,
,,6,1.7665,1,0.2362,6,1.466,1,0.9482,2,0.5216,0,0,0,0,1,main,14,27,F,R,IMT,2021-07-13_14h36.47.604,ImageRatingTask_S5,2021.1.4,MacIntel,60.0024001,,,,,,,,,,,,,,,,,
,,,,,,,,,,,,0,1,1,1,1,second,14,27,F,R,IMT,2021-07-13_14h36.47.604,ImageRatingTask_S5,2021.1.4,MacIntel,60.0024001,,,,,,,,,,,,,,,,,
,,,,,,,,,,,,0,2,2,2,1,third,14,27,F,R,IMT,2021-07-13_14h36.47.604,ImageRatingTask_S5,2021.1.4,MacIntel,60.0024001,,,,,,,,,,,,,,,,,
,,,,,,,,,,,,0,3,3,3,1,fourth,14,27,F,R,IMT,2021-07-13_14h36.47.604,ImageRatingTask_S5,2021.1.4,MacIntel,60.0024001,,,,,,,,,,,,,,,,,
,,,,,,,,,,,,0,4,4,4,1,fifth,14,27,F,R,IMT,2021-07-13_14h36.47.604,ImageRatingTask_S5,2021.1.4,MacIntel,60.0024001,,,,,,,,,,,,,,,,,
,,,,,,,,,,,,0,5,5,5,1,sixth,14,27,F,R,IMT,2021-07-13_14h36.47.604,ImageRatingTask_S5,2021.1.4,MacIntel,60.0024001,,,,,,,,,,,,,,,,,
,,,,,,,,,,,,0,6,6,6,1,seventh,14,27,F,R,IMT,2021-07-13_14h36.47.604,ImageRatingTask_S5,2021.1.4,MacIntel,60.0024001,,,,,,,,,,,,,,,,,
,,,,,,,,,,,,0,7,7,7,1,last,14,27,F,R,IMT,2021-07-13_14h36.47.604,ImageRatingTask_S5,2021.1.4,MacIntel,60.0024001,,,,,,,,,,,,,,,,,
,,,,,,,,,,,,,,,,,,14,27,F,R,IMT,2021-07-13_14h36.47.604,ImageRatingTask_S5,2021.1.4,MacIntel,60.0024001,0,64,64,112,1,DreamStudyImages_rs1000x750g/Children/Faces_131_v.jpg,,,,,,,,,,,
,,5,2.464,1,0.3164,1,0.7915,1,0.9742,3,0.8033,0,0,0,0,1,main,14,27,F,R,IMT,2021-07-13_14h36.47.604,ImageRatingTask_S5,2021.1.4,MacIntel,60.0024001,,,,,,,,,,,,,,,,,
,,,,,,,,,,,,0,1,1,1,1,second,14,27,F,R,IMT,2021-07-13_14h36.47.604,ImageRatingTask_S5,2021.1.4,MacIntel,60.0024001,,,,,,,,,,,,,,,,,
,,,,,,,,,,,,0,2,2,2,1,third,14,27,F,R,IMT,2021-07-13_14h36.47.604,ImageRatingTask_S5,2021.1.4,MacIntel,60.0024001,,,,,,,,,,,,,,,,,
,,,,,,,,,,,,0,3,3,3,1,fourth,14,27,F,R,IMT,2021-07-13_14h36.47.604,ImageRatingTask_S5,2021.1.4,MacIntel,60.0024001,,,,,,,,,,,,,,,,,
,,,,,,,,,,,,0,4,4,4,1,fifth,14,27,F,R,IMT,2021-07-13_14h36.47.604,ImageRatingTask_S5,2021.1.4,MacIntel,60.0024001,,,,,,,,,,,,,,,,,
,,,,,,,,,,,,0,5,5,5,1,sixth,14,27,F,R,IMT,2021-07-13_14h36.47.604,ImageRatingTask_S5,2021.1.4,MacIntel,60.0024001,,,,,,,,,,,,,,,,,
,,,,,,,,,,,,0,6,6,6,1,seventh,14,27,F,R,IMT,2021-07-13_14h36.47.604,ImageRatingTask_S5,2021.1.4,MacIntel,60.0024001,,,,,,,,,,,,,,,,,
,,,,,,,,,,,,0,7,7,7,1,last,14,27,F,R,IMT,2021-07-13_14h36.47.604,ImageRatingTask_S5,2021.1.4,MacIntel,60.0024001,,,,,,,,,,,,,,,,,
,,,,,,,,,,,,,,,,,,14,27,F,R,IMT,2021-07-13_14h36.47.604,ImageRatingTask_S5,2021.1.4,MacIntel,60.0024001,0,65,65,36,1,DreamStudyImages_rs1000x750g/Mammals/IAPS1600_horse3.jpg,,,,,,,,,,,
,,5,6.4021,1,0.3144,1,3.4986,1,0.8338,7,1.0636,0,0,0,0,1,main,14,27,F,R,IMT,2021-07-13_14h36.47.604,ImageRatingTask_S5,2021.1.4,MacIntel,60.0024001,,,,,,,,,,,,,,,,,
,,,,,,,,,,,,0,1,1,1,1,second,14,27,F,R,IMT,2021-07-13_14h36.47.604,ImageRatingTask_S5,2021.1.4,MacIntel,60.0024001,,,,,,,,,,,,,,,,,
,,,,,,,,,,,,0,2,2,2,1,third,14,27,F,R,IMT,2021-07-13_14h36.47.604,ImageRatingTask_S5,2021.1.4,MacIntel,60.0024001,,,,,,,,,,,,,,,,,
,,,,,,,,,,,,0,3,3,3,1,fourth,14,27,F,R,IMT,2021-07-13_14h36.47.604,ImageRatingTask_S5,2021.1.4,MacIntel,60.0024001,,,,,,,,,,,,,,,,,
,,,,,,,,,,,,0,4,4,4,1,fifth,14,27,F,R,IMT,2021-07-13_14h36.47.604,ImageRatingTask_S5,2021.1.4,MacIntel,60.0024001,,,,,,,,,,,,,,,,,
,,,,,,,,,,,,0,5,5,5,1,sixth,14,27,F,R,IMT,2021-07-13_14h36.47.604,ImageRatingTask_S5,2021.1.4,MacIntel,60.0024001,,,,,,,,,,,,,,,,,
,,,,,,,,,,,,0,6,6,6,1,seventh,14,27,F,R,IMT,2021-07-13_14h36.47.604,ImageRatingTask_S5,2021.1.4,MacIntel,60.0024001,,,,,,,,,,,,,,,,,
,,,,,,,,,,,,0,7,7,7,1,last,14,27,F,R,IMT,2021-07-13_14h36.47.604,ImageRatingTask_S5,2021.1.4,MacIntel,60.0024001,,,,,,,,,,,,,,,,,
,,,,,,,,,,,,,,,,,,14,27,F,R,IMT,2021-07-13_14h36.47.604,ImageRatingTask_S5,2021.1.4,MacIntel,60.0024001,0,66,66,28,1,DreamStudyImages_rs1000x750g/Vehicles/Car accident 3.jpg,,,,,,,,,,,
,,6,4.5959,2,3.0802,2,2.0966,1,1.0308,8,0.6813,0,0,0,0,1,main,14,27,F,R,IMT,2021-07-13_14h36.47.604,ImageRatingTask_S5,2021.1.4,MacIntel,60.0024001,,,,,,,,,,,,,,,,,
,,,,,,,,,,,,0,1,1,1,1,second,14,27,F,R,IMT,2021-07-13_14h36.47.604,ImageRatingTask_S5,2021.1.4,MacIntel,60.0024001,,,,,,,,,,,,,,,,,
,,,,,,,,,,,,0,2,2,2,1,third,14,27,F,R,IMT,2021-07-13_14h36.47.604,ImageRatingTask_S5,2021.1.4,MacIntel,60.0024001,,,,,,,,,,,,,,,,,
,,,,,,,,,,,,0,3,3,3,1,fourth,14,27,F,R,IMT,2021-07-13_14h36.47.604,ImageRatingTask_S5,2021.1.4,MacIntel,60.0024001,,,,,,,,,,,,,,,,,
,,,,,,,,,,,,0,4,4,4,1,fifth,14,27,F,R,IMT,2021-07-13_14h36.47.604,ImageRatingTask_S5,2021.1.4,MacIntel,60.0024001,,,,,,,,,,,,,,,,,
,,,,,,,,,,,,0,5,5,5,1,sixth,14,27,F,R,IMT,2021-07-13_14h36.47.604,ImageRatingTask_S5,2021.1.4,MacIntel,60.0024001,,,,,,,,,,,,,,,,,
,,,,,,,,,,,,0,6,6,6,1,seventh,14,27,F,R,IMT,2021-07-13_14h36.47.604,ImageRatingTask_S5,2021.1.4,MacIntel,60.0024001,,,,,,,,,,,,,,,,,
,,,,,,,,,,,,0,7,7,7,1,last,14,27,F,R,IMT,2021-07-13_14h36.47.604,ImageRatingTask_S5,2021.1.4,MacIntel,60.0024001,,,,,,,,,,,,,,,,,
,,,,,,,,,,,,,,,,,,14,27,F,R,IMT,2021-07-13_14h36.47.604,ImageRatingTask_S5,2021.1.4,MacIntel,60.0024001,0,67,67,67,1,DreamStudyImages_rs1000x750g/Water/NDPS126_volcanicwater2.jpg,,,,,,,,,,,
,,5,2.3182,1,0.2859,2,4.6187,0,4.4625,,,0,0,0,0,1,main,14,27,F,R,IMT,2021-07-13_14h36.47.604,ImageRatingTask_S5,2021.1.4,MacIntel,60.0024001,,,,,,,,,,,,,,,,,
,,,,,,,,,,,,0,1,1,1,1,second,14,27,F,R,IMT,2021-07-13_14h36.47.604,ImageRatingTask_S5,2021.1.4,MacIntel,60.0024001,,,,,,,,,,,,,,,,,
,,,,,,,,,,,,0,2,2,2,1,third,14,27,F,R,IMT,2021-07-13_14h36.47.604,ImageRatingTask_S5,2021.1.4,MacIntel,60.0024001,,,,,,,,,,,,,,,,,
,,,,,,,,,,,,0,3,3,3,1,fourth,14,27,F,R,IMT,2021-07-13_14h36.47.604,ImageRatingTask_S5,2021.1.4,MacIntel,60.0024001,,,,,,,,,,,,,,,,,
,,,,,,,,,,,,0,4,4,4,1,fifth,14,27,F,R,IMT,2021-07-13_14h36.47.604,ImageRatingTask_S5,2021.1.4,MacIntel,60.0024001,,,,,,,,,,,,,,,,,
,,,,,,,,,,,,0,5,5,5,1,sixth,14,27,F,R,IMT,2021-07-13_14h36.47.604,ImageRatingTask_S5,2021.1.4,MacIntel,60.0024001,,,,,,,,,,,,,,,,,
,,,,,,,,,,,,0,6,6,6,1,seventh,14,27,F,R,IMT,2021-07-13_14h36.47.604,ImageRatingTask_S5,2021.1.4,MacIntel,60.0024001,,,,,,,,,,,,,,,,,
,,,,,,,,,,,,0,7,7,7,1,last,14,27,F,R,IMT,2021-07-13_14h36.47.604,ImageRatingTask_S5,2021.1.4,MacIntel,60.0024001,,,,,,,,,,,,,,,,,
,,,,,,,,,,,,,,,,,,14,27,F,R,IMT,2021-07-13_14h36.47.604,ImageRatingTask_S5,2021.1.4,MacIntel,60.0024001,0,68,68,107,1,DreamStudyImages_rs1000x750g/Water/Lake 6.jpg,,,,,,,,,,,
,,5,2.85,1,0.3198,2,1.9075,1,0.8314,6,0.6612,0,0,0,0,1,main,14,27,F,R,IMT,2021-07-13_14h36.47.604,ImageRatingTask_S5,2021.1.4,MacIntel,60.0024001,,,,,,,,,,,,,,,,,
,,,,,,,,,,,,0,1,1,1,1,second,14,27,F,R,IMT,2021-07-13_14h36.47.604,ImageRatingTask_S5,2021.1.4,MacIntel,60.0024001,,,,,,,,,,,,,,,,,
,,,,,,,,,,,,0,2,2,2,1,third,14,27,F,R,IMT,2021-07-13_14h36.47.604,ImageRatingTask_S5,2021.1.4,MacIntel,60.0024001,,,,,,,,,,,,,,,,,
,,,,,,,,,,,,0,3,3,3,1,fourth,14,27,F,R,IMT,2021-07-13_14h36.47.604,ImageRatingTask_S5,2021.1.4,MacIntel,60.0024001,,,,,,,,,,,,,,,,,
,,,,,,,,,,,,0,4,4,4,1,fifth,14,27,F,R,IMT,2021-07-13_14h36.47.604,ImageRatingTask_S5,2021.1.4,MacIntel,60.0024001,,,,,,,,,,,,,,,,,
,,,,,,,,,,,,0,5,5,5,1,sixth,14,27,F,R,IMT,2021-07-13_14h36.47.604,ImageRatingTask_S5,2021.1.4,MacIntel,60.0024001,,,,,,,,,,,,,,,,,
,,,,,,,,,,,,0,6,6,6,1,seventh,14,27,F,R,IMT,2021-07-13_14h36.47.604,ImageRatingTask_S5,2021.1.4,MacIntel,60.0024001,,,,,,,,,,,,,,,,,
,,,,,,,,,,,,0,7,7,7,1,last,14,27,F,R,IMT,2021-07-13_14h36.47.604,ImageRatingTask_S5,2021.1.4,MacIntel,60.0024001,,,,,,,,,,,,,,,,,
,,,,,,,,,,,,,,,,,,14,27,F,R,IMT,2021-07-13_14h36.47.604,ImageRatingTask_S5,2021.1.4,MacIntel,60.0024001,0,69,69,61,1,DreamStudyImages_rs1000x750g/Water/sydneyopera.jpg,,,,,,,,,,,
,,3,2.2836,4,1.1174,2,1.6332,1,0.5986,3,0.6782,0,0,0,0,1,main,14,27,F,R,IMT,2021-07-13_14h36.47.604,ImageRatingTask_S5,2021.1.4,MacIntel,60.0024001,,,,,,,,,,,,,,,,,
,,,,,,,,,,,,0,1,1,1,1,second,14,27,F,R,IMT,2021-07-13_14h36.47.604,ImageRatingTask_S5,2021.1.4,MacIntel,60.0024001,,,,,,,,,,,,,,,,,
,,,,,,,,,,,,0,2,2,2,1,third,14,27,F,R,IMT,2021-07-13_14h36.47.604,ImageRatingTask_S5,2021.1.4,MacIntel,60.0024001,,,,,,,,,,,,,,,,,
,,,,,,,,,,,,0,3,3,3,1,fourth,14,27,F,R,IMT,2021-07-13_14h36.47.604,ImageRatingTask_S5,2021.1.4,MacIntel,60.0024001,,,,,,,,,,,,,,,,,
,,,,,,,,,,,,0,4,4,4,1,fifth,14,27,F,R,IMT,2021-07-13_14h36.47.604,ImageRatingTask_S5,2021.1.4,MacIntel,60.0024001,,,,,,,,,,,,,,,,,
,,,,,,,,,,,,0,5,5,5,1,sixth,14,27,F,R,IMT,2021-07-13_14h36.47.604,ImageRatingTask_S5,2021.1.4,MacIntel,60.0024001,,,,,,,,,,,,,,,,,
,,,,,,,,,,,,0,6,6,6,1,seventh,14,27,F,R,IMT,2021-07-13_14h36.47.604,ImageRatingTask_S5,2021.1.4,MacIntel,60.0024001,,,,,,,,,,,,,,,,,
,,,,,,,,,,,,0,7,7,7,1,last,14,27,F,R,IMT,2021-07-13_14h36.47.604,ImageRatingTask_S5,2021.1.4,MacIntel,60.0024001,,,,,,,,,,,,,,,,,
,,,,,,,,,,,,,,,,,,14,27,F,R,IMT,2021-07-13_14h36.47.604,ImageRatingTask_S5,2021.1.4,MacIntel,60.0024001,0,70,70,5,1,DreamStudyImages_rs1000x750g/Mammals/Dog 31.jpg,,,,,,,,,,,
,,5,2.3158,1,0.3529,4,0.9916,1,1.3234,2,0.7117,0,0,0,0,1,main,14,27,F,R,IMT,2021-07-13_14h36.47.604,ImageRatingTask_S5,2021.1.4,MacIntel,60.0024001,,,,,,,,,,,,,,,,,
,,,,,,,,,,,,0,1,1,1,1,second,14,27,F,R,IMT,2021-07-13_14h36.47.604,ImageRatingTask_S5,2021.1.4,MacIntel,60.0024001,,,,,,,,,,,,,,,,,
,,,,,,,,,,,,0,2,2,2,1,third,14,27,F,R,IMT,2021-07-13_14h36.47.604,ImageRatingTask_S5,2021.1.4,MacIntel,60.0024001,,,,,,,,,,,,,,,,,
,,,,,,,,,,,,0,3,3,3,1,fourth,14,27,F,R,IMT,2021-07-13_14h36.47.604,ImageRatingTask_S5,2021.1.4,MacIntel,60.0024001,,,,,,,,,,,,,,,,,
,,,,,,,,,,,,0,4,4,4,1,fifth,14,27,F,R,IMT,2021-07-13_14h36.47.604,ImageRatingTask_S5,2021.1.4,MacIntel,60.0024001,,,,,,,,,,,,,,,,,
,,,,,,,,,,,,0,5,5,5,1,sixth,14,27,F,R,IMT,2021-07-13_14h36.47.604,ImageRatingTask_S5,2021.1.4,MacIntel,60.0024001,,,,,,,,,,,,,,,,,
,,,,,,,,,,,,0,6,6,6,1,seventh,14,27,F,R,IMT,2021-07-13_14h36.47.604,ImageRatingTask_S5,2021.1.4,MacIntel,60.0024001,,,,,,,,,,,,,,,,,
,,,,,,,,,,,,0,7,7,7,1,last,14,27,F,R,IMT,2021-07-13_14h36.47.604,ImageRatingTask_S5,2021.1.4,MacIntel,60.0024001,,,,,,,,,,,,,,,,,
,,,,,,,,,,,,,,,,,,14,27,F,R,IMT,2021-07-13_14h36.47.604,ImageRatingTask_S5,2021.1.4,MacIntel,60.0024001,0,71,71,98,1,DreamStudyImages_rs1000x750g/Children/Faces_110_h.jpg,,,,,,,,,,,
,,5,2.0332,1,0.2857,4,0.9839,1,0.9339,7,0.7824,0,0,0,0,1,main,14,27,F,R,IMT,2021-07-13_14h36.47.604,ImageRatingTask_S5,2021.1.4,MacIntel,60.0024001,,,,,,,,,,,,,,,,,
,,,,,,,,,,,,0,1,1,1,1,second,14,27,F,R,IMT,2021-07-13_14h36.47.604,ImageRatingTask_S5,2021.1.4,MacIntel,60.0024001,,,,,,,,,,,,,,,,,
,,,,,,,,,,,,0,2,2,2,1,third,14,27,F,R,IMT,2021-07-13_14h36.47.604,ImageRatingTask_S5,2021.1.4,MacIntel,60.0024001,,,,,,,,,,,,,,,,,
,,,,,,,,,,,,0,3,3,3,1,fourth,14,27,F,R,IMT,2021-07-13_14h36.47.604,ImageRatingTask_S5,2021.1.4,MacIntel,60.0024001,,,,,,,,,,,,,,,,,
,,,,,,,,,,,,0,4,4,4,1,fifth,14,27,F,R,IMT,2021-07-13_14h36.47.604,ImageRatingTask_S5,2021.1.4,MacIntel,60.0024001,,,,,,,,,,,,,,,,,
,,,,,,,,,,,,0,5,5,5,1,sixth,14,27,F,R,IMT,2021-07-13_14h36.47.604,ImageRatingTask_S5,2021.1.4,MacIntel,60.0024001,,,,,,,,,,,,,,,,,
,,,,,,,,,,,,0,6,6,6,1,seventh,14,27,F,R,IMT,2021-07-13_14h36.47.604,ImageRatingTask_S5,2021.1.4,MacIntel,60.0024001,,,,,,,,,,,,,,,,,
,,,,,,,,,,,,0,7,7,7,1,last,14,27,F,R,IMT,2021-07-13_14h36.47.604,ImageRatingTask_S5,2021.1.4,MacIntel,60.0024001,,,,,,,,,,,,,,,,,
,,,,,,,,,,,,,,,,,,14,27,F,R,IMT,2021-07-13_14h36.47.604,ImageRatingTask_S5,2021.1.4,MacIntel,60.0024001,0,72,72,70,1,DreamStudyImages_rs1000x750g/Vehicles/IAPS7039_train3.jpg,,,,,,,,,,,
,,2,5.4858,4,1.7619,3,1.8493,1,0.7508,7,1.229,0,0,0,0,1,main,14,27,F,R,IMT,2021-07-13_14h36.47.604,ImageRatingTask_S5,2021.1.4,MacIntel,60.0024001,,,,,,,,,,,,,,,,,
,,,,,,,,,,,,0,1,1,1,1,second,14,27,F,R,IMT,2021-07-13_14h36.47.604,ImageRatingTask_S5,2021.1.4,MacIntel,60.0024001,,,,,,,,,,,,,,,,,
,,,,,,,,,,,,0,2,2,2,1,third,14,27,F,R,IMT,2021-07-13_14h36.47.604,ImageRatingTask_S5,2021.1.4,MacIntel,60.0024001,,,,,,,,,,,,,,,,,
,,,,,,,,,,,,0,3,3,3,1,fourth,14,27,F,R,IMT,2021-07-13_14h36.47.604,ImageRatingTask_S5,2021.1.4,MacIntel,60.0024001,,,,,,,,,,,,,,,,,
,,,,,,,,,,,,0,4,4,4,1,fifth,14,27,F,R,IMT,2021-07-13_14h36.47.604,ImageRatingTask_S5,2021.1.4,MacIntel,60.0024001,,,,,,,,,,,,,,,,,
,,,,,,,,,,,,0,5,5,5,1,sixth,14,27,F,R,IMT,2021-07-13_14h36.47.604,ImageRatingTask_S5,2021.1.4,MacIntel,60.0024001,,,,,,,,,,,,,,,,,
,,,,,,,,,,,,0,6,6,6,1,seventh,14,27,F,R,IMT,2021-07-13_14h36.47.604,ImageRatingTask_S5,2021.1.4,MacIntel,60.0024001,,,,,,,,,,,,,,,,,
,,,,,,,,,,,,0,7,7,7,1,last,14,27,F,R,IMT,2021-07-13_14h36.47.604,ImageRatingTask_S5,2021.1.4,MacIntel,60.0024001,,,,,,,,,,,,,,,,,
,,,,,,,,,,,,,,,,,,14,27,F,R,IMT,2021-07-13_14h36.47.604,ImageRatingTask_S5,2021.1.4,MacIntel,60.0024001,0,73,73,72,1,DreamStudyImages_rs1000x750g/Vehicles/9904.jpg,,,,,,,,,,,
,,5,1.9695,1,0.478,3,2.1967,1,0.9176,2,0.6459,0,0,0,0,1,main,14,27,F,R,IMT,2021-07-13_14h36.47.604,ImageRatingTask_S5,2021.1.4,MacIntel,60.0024001,,,,,,,,,,,,,,,,,
,,,,,,,,,,,,0,1,1,1,1,second,14,27,F,R,IMT,2021-07-13_14h36.47.604,ImageRatingTask_S5,2021.1.4,MacIntel,60.0024001,,,,,,,,,,,,,,,,,
,,,,,,,,,,,,0,2,2,2,1,third,14,27,F,R,IMT,2021-07-13_14h36.47.604,ImageRatingTask_S5,2021.1.4,MacIntel,60.0024001,,,,,,,,,,,,,,,,,
,,,,,,,,,,,,0,3,3,3,1,fourth,14,27,F,R,IMT,2021-07-13_14h36.47.604,ImageRatingTask_S5,2021.1.4,MacIntel,60.0024001,,,,,,,,,,,,,,,,,
,,,,,,,,,,,,0,4,4,4,1,fifth,14,27,F,R,IMT,2021-07-13_14h36.47.604,ImageRatingTask_S5,2021.1.4,MacIntel,60.0024001,,,,,,,,,,,,,,,,,
,,,,,,,,,,,,0,5,5,5,1,sixth,14,27,F,R,IMT,2021-07-13_14h36.47.604,ImageRatingTask_S5,2021.1.4,MacIntel,60.0024001,,,,,,,,,,,,,,,,,
,,,,,,,,,,,,0,6,6,6,1,seventh,14,27,F,R,IMT,2021-07-13_14h36.47.604,ImageRatingTask_S5,2021.1.4,MacIntel,60.0024001,,,,,,,,,,,,,,,,,
,,,,,,,,,,,,0,7,7,7,1,last,14,27,F,R,IMT,2021-07-13_14h36.47.604,ImageRatingTask_S5,2021.1.4,MacIntel,60.0024001,,,,,,,,,,,,,,,,,
,,,,,,,,,,,,,,,,,,14,27,F,R,IMT,2021-07-13_14h36.47.604,ImageRatingTask_S5,2021.1.4,MacIntel,60.0024001,0,74,74,30,1,DreamStudyImages_rs1000x750g/Children/Faces_075_v.jpg,,,,,,,,,,,
,,5,2.2215,1,0.2816,1,6.5671,1,0.9151,6,1.079,0,0,0,0,1,main,14,27,F,R,IMT,2021-07-13_14h36.47.604,ImageRatingTask_S5,2021.1.4,MacIntel,60.0024001,,,,,,,,,,,,,,,,,
,,,,,,,,,,,,0,1,1,1,1,second,14,27,F,R,IMT,2021-07-13_14h36.47.604,ImageRatingTask_S5,2021.1.4,MacIntel,60.0024001,,,,,,,,,,,,,,,,,
,,,,,,,,,,,,0,2,2,2,1,third,14,27,F,R,IMT,2021-07-13_14h36.47.604,ImageRatingTask_S5,2021.1.4,MacIntel,60.0024001,,,,,,,,,,,,,,,,,
,,,,,,,,,,,,0,3,3,3,1,fourth,14,27,F,R,IMT,2021-07-13_14h36.47.604,ImageRatingTask_S5,2021.1.4,MacIntel,60.0024001,,,,,,,,,,,,,,,,,
,,,,,,,,,,,,0,4,4,4,1,fifth,14,27,F,R,IMT,2021-07-13_14h36.47.604,ImageRatingTask_S5,2021.1.4,MacIntel,60.0024001,,,,,,,,,,,,,,,,,
,,,,,,,,,,,,0,5,5,5,1,sixth,14,27,F,R,IMT,2021-07-13_14h36.47.604,ImageRatingTask_S5,2021.1.4,MacIntel,60.0024001,,,,,,,,,,,,,,,,,
,,,,,,,,,,,,0,6,6,6,1,seventh,14,27,F,R,IMT,2021-07-13_14h36.47.604,ImageRatingTask_S5,2021.1.4,MacIntel,60.0024001,,,,,,,,,,,,,,,,,
,,,,,,,,,,,,0,7,7,7,1,last,14,27,F,R,IMT,2021-07-13_14h36.47.604,ImageRatingTask_S5,2021.1.4,MacIntel,60.0024001,,,,,,,,,,,,,,,,,
,,,,,,,,,,,,,,,,,,14,27,F,R,IMT,2021-07-13_14h36.47.604,ImageRatingTask_S5,2021.1.4,MacIntel,60.0024001,0,75,75,73,1,DreamStudyImages_rs1000x750g/Houses/redhouse.jpg,,,,,,,,,,,
,,4,2.8012,1,1.5775,2,3.751,1,0.6578,2,0.3942,0,0,0,0,1,main,14,27,F,R,IMT,2021-07-13_14h36.47.604,ImageRatingTask_S5,2021.1.4,MacIntel,60.0024001,,,,,,,,,,,,,,,,,
,,,,,,,,,,,,0,1,1,1,1,second,14,27,F,R,IMT,2021-07-13_14h36.47.604,ImageRatingTask_S5,2021.1.4,MacIntel,60.0024001,,,,,,,,,,,,,,,,,
,,,,,,,,,,,,0,2,2,2,1,third,14,27,F,R,IMT,2021-07-13_14h36.47.604,ImageRatingTask_S5,2021.1.4,MacIntel,60.0024001,,,,,,,,,,,,,,,,,
,,,,,,,,,,,,0,3,3,3,1,fourth,14,27,F,R,IMT,2021-07-13_14h36.47.604,ImageRatingTask_S5,2021.1.4,MacIntel,60.0024001,,,,,,,,,,,,,,,,,
,,,,,,,,,,,,0,4,4,4,1,fifth,14,27,F,R,IMT,2021-07-13_14h36.47.604,ImageRatingTask_S5,2021.1.4,MacIntel,60.0024001,,,,,,,,,,,,,,,,,
,,,,,,,,,,,,0,5,5,5,1,sixth,14,27,F,R,IMT,2021-07-13_14h36.47.604,ImageRatingTask_S5,2021.1.4,MacIntel,60.0024001,,,,,,,,,,,,,,,,,
,,,,,,,,,,,,0,6,6,6,1,seventh,14,27,F,R,IMT,2021-07-13_14h36.47.604,ImageRatingTask_S5,2021.1.4,MacIntel,60.0024001,,,,,,,,,,,,,,,,,
,,,,,,,,,,,,0,7,7,7,1,last,14,27,F,R,IMT,2021-07-13_14h36.47.604,ImageRatingTask_S5,2021.1.4,MacIntel,60.0024001,,,,,,,,,,,,,,,,,
,,,,,,,,,,,,,,,,,,14,27,F,R,IMT,2021-07-13_14h36.47.604,ImageRatingTask_S5,2021.1.4,MacIntel,60.0024001,0,76,76,105,1,DreamStudyImages_rs1000x750g/Children/Sad face 8.jpg,,,,,,,,,,,
,,4,4.5482,2,0.5849,5,1.7604,1,1.1648,8,0.8293,0,0,0,0,1,main,14,27,F,R,IMT,2021-07-13_14h36.47.604,ImageRatingTask_S5,2021.1.4,MacIntel,60.0024001,,,,,,,,,,,,,,,,,
,,,,,,,,,,,,0,1,1,1,1,second,14,27,F,R,IMT,2021-07-13_14h36.47.604,ImageRatingTask_S5,2021.1.4,MacIntel,60.0024001,,,,,,,,,,,,,,,,,
,,,,,,,,,,,,0,2,2,2,1,third,14,27,F,R,IMT,2021-07-13_14h36.47.604,ImageRatingTask_S5,2021.1.4,MacIntel,60.0024001,,,,,,,,,,,,,,,,,
,,,,,,,,,,,,0,3,3,3,1,fourth,14,27,F,R,IMT,2021-07-13_14h36.47.604,ImageRatingTask_S5,2021.1.4,MacIntel,60.0024001,,,,,,,,,,,,,,,,,
,,,,,,,,,,,,0,4,4,4,1,fifth,14,27,F,R,IMT,2021-07-13_14h36.47.604,ImageRatingTask_S5,2021.1.4,MacIntel,60.0024001,,,,,,,,,,,,,,,,,
,,,,,,,,,,,,0,5,5,5,1,sixth,14,27,F,R,IMT,2021-07-13_14h36.47.604,ImageRatingTask_S5,2021.1.4,MacIntel,60.0024001,,,,,,,,,,,,,,,,,
,,,,,,,,,,,,0,6,6,6,1,seventh,14,27,F,R,IMT,2021-07-13_14h36.47.604,ImageRatingTask_S5,2021.1.4,MacIntel,60.0024001,,,,,,,,,,,,,,,,,
,,,,,,,,,,,,0,7,7,7,1,last,14,27,F,R,IMT,2021-07-13_14h36.47.604,ImageRatingTask_S5,2021.1.4,MacIntel,60.0024001,,,,,,,,,,,,,,,,,
,,,,,,,,,,,,,,,,,,14,27,F,R,IMT,2021-07-13_14h36.47.604,ImageRatingTask_S5,2021.1.4,MacIntel,60.0024001,0,77,77,141,1,DreamStudyImages_rs1000x750g/Water/NDPS124_swamp.jpg,,,,,,,,,,,
,,9,2.1533,4,1.5513,6,3.4493,1,0.7649,3,0.7979,0,0,0,0,1,main,14,27,F,R,IMT,2021-07-13_14h36.47.604,ImageRatingTask_S5,2021.1.4,MacIntel,60.0024001,,,,,,,,,,,,,,,,,
,,,,,,,,,,,,0,1,1,1,1,second,14,27,F,R,IMT,2021-07-13_14h36.47.604,ImageRatingTask_S5,2021.1.4,MacIntel,60.0024001,,,,,,,,,,,,,,,,,
,,,,,,,,,,,,0,2,2,2,1,third,14,27,F,R,IMT,2021-07-13_14h36.47.604,ImageRatingTask_S5,2021.1.4,MacIntel,60.0024001,,,,,,,,,,,,,,,,,
,,,,,,,,,,,,0,3,3,3,1,fourth,14,27,F,R,IMT,2021-07-13_14h36.47.604,ImageRatingTask_S5,2021.1.4,MacIntel,60.0024001,,,,,,,,,,,,,,,,,
