slider_pre.response,slider_pre.rt,key_val.keys,key_val.rt,key_aro.keys,key_aro.rt,key_qual.keys,key_qual.rt,key_ncat.keys,key_ncat.rt,key_cats.keys,key_cats.rt,ncat_order.thisRepN,ncat_order.thisTrialN,ncat_order.thisN,ncat_order.thisIndex,ncat_order.ran,cond_cat,participant,age,gender,handedness (L/R),site (IMT/Donders),date,expName,psychopyVersion,OS,frameRate,img_trials.thisRepN,img_trials.thisTrialN,img_trials.thisN,img_trials.thisIndex,img_trials.ran,filename,slider_post.response,slider_post.rt,textbox_openfb.text
6,4.559,6,3.9941,2,3.2621,7,1.6046,3,5.2779,2,2.2874,0,0,0,0,1,main,14,27,F,R,IMT,2021-07-10_14h20.24.309,ImageRatingTask_S2,2021.1.4,MacIntel,59.94125757,,,,,,,,,
,,,,,,,,,,1,2.6159,0,1,1,1,1,second,14,27,F,R,IMT,2021-07-10_14h20.24.309,ImageRatingTask_S2,2021.1.4,MacIntel,59.94125757,,,,,,,,,
,,,,,,,,,,6,1.2335,0,2,2,2,1,third,14,27,F,R,IMT,2021-07-10_14h20.24.309,ImageRatingTask_S2,2021.1.4,MacIntel,59.94125757,,,,,,,,,
,,,,,,,,,,,,0,3,3,3,1,fourth,14,27,F,R,IMT,2021-07-10_14h20.24.309,ImageRatingTask_S2,2021.1.4,MacIntel,59.94125757,,,,,,,,,
,,,,,,,,,,,,0,4,4,4,1,fifth,14,27,F,R,IMT,2021-07-10_14h20.24.309,ImageRatingTask_S2,2021.1.4,MacIntel,59.94125757,,,,,,,,,
,,,,,,,,,,,,0,5,5,5,1,sixth,14,27,F,R,IMT,2021-07-10_14h20.24.309,ImageRatingTask_S2,2021.1.4,MacIntel,59.94125757,,,,,,,,,
,,,,,,,,,,,,0,6,6,6,1,seventh,14,27,F,R,IMT,2021-07-10_14h20.24.309,ImageRatingTask_S2,2021.1.4,MacIntel,59.94125757,,,,,,,,,
,,,,,,,,,,,,0,7,7,7,1,last,14,27,F,R,IMT,2021-07-10_14h20.24.309,ImageRatingTask_S2,2021.1.4,MacIntel,59.94125757,,,,,,,,,
,,,,,,,,,,,,,,,,,,14,27,F,R,IMT,2021-07-10_14h20.24.309,ImageRatingTask_S2,2021.1.4,MacIntel,59.94125757,0,0,0,45,1,DreamStudyImages_rs1000x750g/Children/Faces_097_v.jpg,,,
,,1,2.9531,4,2.4676,3,3.2634,1,3.3347,2,0.8572,0,0,0,0,1,main,14,27,F,R,IMT,2021-07-10_14h20.24.309,ImageRatingTask_S2,2021.1.4,MacIntel,59.94125757,,,,,,,,,
,,,,,,,,,,,,0,1,1,1,1,second,14,27,F,R,IMT,2021-07-10_14h20.24.309,ImageRatingTask_S2,2021.1.4,MacIntel,59.94125757,,,,,,,,,
,,,,,,,,,,,,0,2,2,2,1,third,14,27,F,R,IMT,2021-07-10_14h20.24.309,ImageRatingTask_S2,2021.1.4,MacIntel,59.94125757,,,,,,,,,
,,,,,,,,,,,,0,3,3,3,1,fourth,14,27,F,R,IMT,2021-07-10_14h20.24.309,ImageRatingTask_S2,2021.1.4,MacIntel,59.94125757,,,,,,,,,
,,,,,,,,,,,,0,4,4,4,1,fifth,14,27,F,R,IMT,2021-07-10_14h20.24.309,ImageRatingTask_S2,2021.1.4,MacIntel,59.94125757,,,,,,,,,
,,,,,,,,,,,,0,5,5,5,1,sixth,14,27,F,R,IMT,2021-07-10_14h20.24.309,ImageRatingTask_S2,2021.1.4,MacIntel,59.94125757,,,,,,,,,
,,,,,,,,,,,,0,6,6,6,1,seventh,14,27,F,R,IMT,2021-07-10_14h20.24.309,ImageRatingTask_S2,2021.1.4,MacIntel,59.94125757,,,,,,,,,
,,,,,,,,,,,,0,7,7,7,1,last,14,27,F,R,IMT,2021-07-10_14h20.24.309,ImageRatingTask_S2,2021.1.4,MacIntel,59.94125757,,,,,,,,,
,,,,,,,,,,,,,,,,,,14,27,F,R,IMT,2021-07-10_14h20.24.309,ImageRatingTask_S2,2021.1.4,MacIntel,59.94125757,0,1,1,65,1,DreamStudyImages_rs1000x750g/Children/Miserable pose 3.jpg,,,
,,6,7.0052,1,1.7842,5,1.9504,1,1.4995,2,0.4615,0,0,0,0,1,main,14,27,F,R,IMT,2021-07-10_14h20.24.309,ImageRatingTask_S2,2021.1.4,MacIntel,59.94125757,,,,,,,,,
,,,,,,,,,,,,0,1,1,1,1,second,14,27,F,R,IMT,2021-07-10_14h20.24.309,ImageRatingTask_S2,2021.1.4,MacIntel,59.94125757,,,,,,,,,
,,,,,,,,,,,,0,2,2,2,1,third,14,27,F,R,IMT,2021-07-10_14h20.24.309,ImageRatingTask_S2,2021.1.4,MacIntel,59.94125757,,,,,,,,,
,,,,,,,,,,,,0,3,3,3,1,fourth,14,27,F,R,IMT,2021-07-10_14h20.24.309,ImageRatingTask_S2,2021.1.4,MacIntel,59.94125757,,,,,,,,,
,,,,,,,,,,,,0,4,4,4,1,fifth,14,27,F,R,IMT,2021-07-10_14h20.24.309,ImageRatingTask_S2,2021.1.4,MacIntel,59.94125757,,,,,,,,,
,,,,,,,,,,,,0,5,5,5,1,sixth,14,27,F,R,IMT,2021-07-10_14h20.24.309,ImageRatingTask_S2,2021.1.4,MacIntel,59.94125757,,,,,,,,,
,,,,,,,,,,,,0,6,6,6,1,seventh,14,27,F,R,IMT,2021-07-10_14h20.24.309,ImageRatingTask_S2,2021.1.4,MacIntel,59.94125757,,,,,,,,,
,,,,,,,,,,,,0,7,7,7,1,last,14,27,F,R,IMT,2021-07-10_14h20.24.309,ImageRatingTask_S2,2021.1.4,MacIntel,59.94125757,,,,,,,,,
,,,,,,,,,,,,,,,,,,14,27,F,R,IMT,2021-07-10_14h20.24.309,ImageRatingTask_S2,2021.1.4,MacIntel,59.94125757,0,2,2,103,1,DreamStudyImages_rs1000x750g/Children/Faces_005_h.jpg,,,
,,4,9.6986,2,2.5107,6,2.0287,1,7.2241,5,0.9987,0,0,0,0,1,main,14,27,F,R,IMT,2021-07-10_14h20.24.309,ImageRatingTask_S2,2021.1.4,MacIntel,59.94125757,,,,,,,,,
,,,,,,,,,,,,0,1,1,1,1,second,14,27,F,R,IMT,2021-07-10_14h20.24.309,ImageRatingTask_S2,2021.1.4,MacIntel,59.94125757,,,,,,,,,
,,,,,,,,,,,,0,2,2,2,1,third,14,27,F,R,IMT,2021-07-10_14h20.24.309,ImageRatingTask_S2,2021.1.4,MacIntel,59.94125757,,,,,,,,,
,,,,,,,,,,,,0,3,3,3,1,fourth,14,27,F,R,IMT,2021-07-10_14h20.24.309,ImageRatingTask_S2,2021.1.4,MacIntel,59.94125757,,,,,,,,,
,,,,,,,,,,,,0,4,4,4,1,fifth,14,27,F,R,IMT,2021-07-10_14h20.24.309,ImageRatingTask_S2,2021.1.4,MacIntel,59.94125757,,,,,,,,,
,,,,,,,,,,,,0,5,5,5,1,sixth,14,27,F,R,IMT,2021-07-10_14h20.24.309,ImageRatingTask_S2,2021.1.4,MacIntel,59.94125757,,,,,,,,,
,,,,,,,,,,,,0,6,6,6,1,seventh,14,27,F,R,IMT,2021-07-10_14h20.24.309,ImageRatingTask_S2,2021.1.4,MacIntel,59.94125757,,,,,,,,,
,,,,,,,,,,,,0,7,7,7,1,last,14,27,F,R,IMT,2021-07-10_14h20.24.309,ImageRatingTask_S2,2021.1.4,MacIntel,59.94125757,,,,,,,,,
,,,,,,,,,,,,,,,,,,14,27,F,R,IMT,2021-07-10_14h20.24.309,ImageRatingTask_S2,2021.1.4,MacIntel,59.94125757,0,3,3,61,1,DreamStudyImages_rs1000x750g/Food/Objects_071_h.jpg,,,
,,8,5.3023,3,1.4787,6,5.2009,1,2.4229,3,1.1975,0,0,0,0,1,main,14,27,F,R,IMT,2021-07-10_14h20.24.309,ImageRatingTask_S2,2021.1.4,MacIntel,59.94125757,,,,,,,,,
,,,,,,,,,,,,0,1,1,1,1,second,14,27,F,R,IMT,2021-07-10_14h20.24.309,ImageRatingTask_S2,2021.1.4,MacIntel,59.94125757,,,,,,,,,
,,,,,,,,,,,,0,2,2,2,1,third,14,27,F,R,IMT,2021-07-10_14h20.24.309,ImageRatingTask_S2,2021.1.4,MacIntel,59.94125757,,,,,,,,,
,,,,,,,,,,,,0,3,3,3,1,fourth,14,27,F,R,IMT,2021-07-10_14h20.24.309,ImageRatingTask_S2,2021.1.4,MacIntel,59.94125757,,,,,,,,,
,,,,,,,,,,,,0,4,4,4,1,fifth,14,27,F,R,IMT,2021-07-10_14h20.24.309,ImageRatingTask_S2,2021.1.4,MacIntel,59.94125757,,,,,,,,,
,,,,,,,,,,,,0,5,5,5,1,sixth,14,27,F,R,IMT,2021-07-10_14h20.24.309,ImageRatingTask_S2,2021.1.4,MacIntel,59.94125757,,,,,,,,,
,,,,,,,,,,,,0,6,6,6,1,seventh,14,27,F,R,IMT,2021-07-10_14h20.24.309,ImageRatingTask_S2,2021.1.4,MacIntel,59.94125757,,,,,,,,,
,,,,,,,,,,,,0,7,7,7,1,last,14,27,F,R,IMT,2021-07-10_14h20.24.309,ImageRatingTask_S2,2021.1.4,MacIntel,59.94125757,,,,,,,,,
,,,,,,,,,,,,,,,,,,14,27,F,R,IMT,2021-07-10_14h20.24.309,ImageRatingTask_S2,2021.1.4,MacIntel,59.94125757,0,4,4,151,1,DreamStudyImages_rs1000x750g/Mammals/Animals_196_h.jpg,,,
,,6,4.9069,1,1.0772,4,1.9508,1,2.141,5,0.9306,0,0,0,0,1,main,14,27,F,R,IMT,2021-07-10_14h20.24.309,ImageRatingTask_S2,2021.1.4,MacIntel,59.94125757,,,,,,,,,
,,,,,,,,,,,,0,1,1,1,1,second,14,27,F,R,IMT,2021-07-10_14h20.24.309,ImageRatingTask_S2,2021.1.4,MacIntel,59.94125757,,,,,,,,,
,,,,,,,,,,,,0,2,2,2,1,third,14,27,F,R,IMT,2021-07-10_14h20.24.309,ImageRatingTask_S2,2021.1.4,MacIntel,59.94125757,,,,,,,,,
,,,,,,,,,,,,0,3,3,3,1,fourth,14,27,F,R,IMT,2021-07-10_14h20.24.309,ImageRatingTask_S2,2021.1.4,MacIntel,59.94125757,,,,,,,,,
,,,,,,,,,,,,0,4,4,4,1,fifth,14,27,F,R,IMT,2021-07-10_14h20.24.309,ImageRatingTask_S2,2021.1.4,MacIntel,59.94125757,,,,,,,,,
,,,,,,,,,,,,0,5,5,5,1,sixth,14,27,F,R,IMT,2021-07-10_14h20.24.309,ImageRatingTask_S2,2021.1.4,MacIntel,59.94125757,,,,,,,,,
,,,,,,,,,,,,0,6,6,6,1,seventh,14,27,F,R,IMT,2021-07-10_14h20.24.309,ImageRatingTask_S2,2021.1.4,MacIntel,59.94125757,,,,,,,,,
,,,,,,,,,,,,0,7,7,7,1,last,14,27,F,R,IMT,2021-07-10_14h20.24.309,ImageRatingTask_S2,2021.1.4,MacIntel,59.94125757,,,,,,,,,
,,,,,,,,,,,,,,,,,,14,27,F,R,IMT,2021-07-10_14h20.24.309,ImageRatingTask_S2,2021.1.4,MacIntel,59.94125757,0,5,5,22,1,DreamStudyImages_rs1000x750g/Food/IAPS7281_skewers.jpg,,,
,,6,7.4759,2,3.2923,2,2.7255,1,2.9561,8,1.2233,0,0,0,0,1,main,14,27,F,R,IMT,2021-07-10_14h20.24.309,ImageRatingTask_S2,2021.1.4,MacIntel,59.94125757,,,,,,,,,
,,,,,,,,,,,,0,1,1,1,1,second,14,27,F,R,IMT,2021-07-10_14h20.24.309,ImageRatingTask_S2,2021.1.4,MacIntel,59.94125757,,,,,,,,,
,,,,,,,,,,,,0,2,2,2,1,third,14,27,F,R,IMT,2021-07-10_14h20.24.309,ImageRatingTask_S2,2021.1.4,MacIntel,59.94125757,,,,,,,,,
,,,,,,,,,,,,0,3,3,3,1,fourth,14,27,F,R,IMT,2021-07-10_14h20.24.309,ImageRatingTask_S2,2021.1.4,MacIntel,59.94125757,,,,,,,,,
,,,,,,,,,,,,0,4,4,4,1,fifth,14,27,F,R,IMT,2021-07-10_14h20.24.309,ImageRatingTask_S2,2021.1.4,MacIntel,59.94125757,,,,,,,,,
,,,,,,,,,,,,0,5,5,5,1,sixth,14,27,F,R,IMT,2021-07-10_14h20.24.309,ImageRatingTask_S2,2021.1.4,MacIntel,59.94125757,,,,,,,,,
,,,,,,,,,,,,0,6,6,6,1,seventh,14,27,F,R,IMT,2021-07-10_14h20.24.309,ImageRatingTask_S2,2021.1.4,MacIntel,59.94125757,,,,,,,,,
,,,,,,,,,,,,0,7,7,7,1,last,14,27,F,R,IMT,2021-07-10_14h20.24.309,ImageRatingTask_S2,2021.1.4,MacIntel,59.94125757,,,,,,,,,
,,,,,,,,,,,,,,,,,,14,27,F,R,IMT,2021-07-10_14h20.24.309,ImageRatingTask_S2,2021.1.4,MacIntel,59.94125757,0,6,6,114,1,DreamStudyImages_rs1000x750g/Water/IAPS5760_lake.jpg,,,
,,4,12.3431,2,2.7716,7,2.304,1,2.3629,7,5.5377,0,0,0,0,1,main,14,27,F,R,IMT,2021-07-10_14h20.24.309,ImageRatingTask_S2,2021.1.4,MacIntel,59.94125757,,,,,,,,,
,,,,,,,,,,,,0,1,1,1,1,second,14,27,F,R,IMT,2021-07-10_14h20.24.309,ImageRatingTask_S2,2021.1.4,MacIntel,59.94125757,,,,,,,,,
,,,,,,,,,,,,0,2,2,2,1,third,14,27,F,R,IMT,2021-07-10_14h20.24.309,ImageRatingTask_S2,2021.1.4,MacIntel,59.94125757,,,,,,,,,
,,,,,,,,,,,,0,3,3,3,1,fourth,14,27,F,R,IMT,2021-07-10_14h20.24.309,ImageRatingTask_S2,2021.1.4,MacIntel,59.94125757,,,,,,,,,
,,,,,,,,,,,,0,4,4,4,1,fifth,14,27,F,R,IMT,2021-07-10_14h20.24.309,ImageRatingTask_S2,2021.1.4,MacIntel,59.94125757,,,,,,,,,
,,,,,,,,,,,,0,5,5,5,1,sixth,14,27,F,R,IMT,2021-07-10_14h20.24.309,ImageRatingTask_S2,2021.1.4,MacIntel,59.94125757,,,,,,,,,
,,,,,,,,,,,,0,6,6,6,1,seventh,14,27,F,R,IMT,2021-07-10_14h20.24.309,ImageRatingTask_S2,2021.1.4,MacIntel,59.94125757,,,,,,,,,
,,,,,,,,,,,,0,7,7,7,1,last,14,27,F,R,IMT,2021-07-10_14h20.24.309,ImageRatingTask_S2,2021.1.4,MacIntel,59.94125757,,,,,,,,,
,,,,,,,,,,,,,,,,,,14,27,F,R,IMT,2021-07-10_14h20.24.309,ImageRatingTask_S2,2021.1.4,MacIntel,59.94125757,0,7,7,118,1,DreamStudyImages_rs1000x750g/Vehicles/NDPS40_carindust.jpg,,,
,,6,3.7596,1,1.1844,2,1.5278,1,1.544,2,0.4822,0,0,0,0,1,main,14,27,F,R,IMT,2021-07-10_14h20.24.309,ImageRatingTask_S2,2021.1.4,MacIntel,59.94125757,,,,,,,,,
,,,,,,,,,,,,0,1,1,1,1,second,14,27,F,R,IMT,2021-07-10_14h20.24.309,ImageRatingTask_S2,2021.1.4,MacIntel,59.94125757,,,,,,,,,
,,,,,,,,,,,,0,2,2,2,1,third,14,27,F,R,IMT,2021-07-10_14h20.24.309,ImageRatingTask_S2,2021.1.4,MacIntel,59.94125757,,,,,,,,,
,,,,,,,,,,,,0,3,3,3,1,fourth,14,27,F,R,IMT,2021-07-10_14h20.24.309,ImageRatingTask_S2,2021.1.4,MacIntel,59.94125757,,,,,,,,,
,,,,,,,,,,,,0,4,4,4,1,fifth,14,27,F,R,IMT,2021-07-10_14h20.24.309,ImageRatingTask_S2,2021.1.4,MacIntel,59.94125757,,,,,,,,,
,,,,,,,,,,,,0,5,5,5,1,sixth,14,27,F,R,IMT,2021-07-10_14h20.24.309,ImageRatingTask_S2,2021.1.4,MacIntel,59.94125757,,,,,,,,,
,,,,,,,,,,,,0,6,6,6,1,seventh,14,27,F,R,IMT,2021-07-10_14h20.24.309,ImageRatingTask_S2,2021.1.4,MacIntel,59.94125757,,,,,,,,,
,,,,,,,,,,,,0,7,7,7,1,last,14,27,F,R,IMT,2021-07-10_14h20.24.309,ImageRatingTask_S2,2021.1.4,MacIntel,59.94125757,,,,,,,,,
,,,,,,,,,,,,,,,,,,14,27,F,R,IMT,2021-07-10_14h20.24.309,ImageRatingTask_S2,2021.1.4,MacIntel,59.94125757,0,8,8,62,1,DreamStudyImages_rs1000x750g/Children/IAPS2040_baby1.jpg,,,
,,5,4.6227,1,1.6976,6,2.9356,1,11.2719,6,1.2814,0,0,0,0,1,main,14,27,F,R,IMT,2021-07-10_14h20.24.309,ImageRatingTask_S2,2021.1.4,MacIntel,59.94125757,,,,,,,,,
,,,,,,,,,,,,0,1,1,1,1,second,14,27,F,R,IMT,2021-07-10_14h20.24.309,ImageRatingTask_S2,2021.1.4,MacIntel,59.94125757,,,,,,,,,
,,,,,,,,,,,,0,2,2,2,1,third,14,27,F,R,IMT,2021-07-10_14h20.24.309,ImageRatingTask_S2,2021.1.4,MacIntel,59.94125757,,,,,,,,,
,,,,,,,,,,,,0,3,3,3,1,fourth,14,27,F,R,IMT,2021-07-10_14h20.24.309,ImageRatingTask_S2,2021.1.4,MacIntel,59.94125757,,,,,,,,,
,,,,,,,,,,,,0,4,4,4,1,fifth,14,27,F,R,IMT,2021-07-10_14h20.24.309,ImageRatingTask_S2,2021.1.4,MacIntel,59.94125757,,,,,,,,,
,,,,,,,,,,,,0,5,5,5,1,sixth,14,27,F,R,IMT,2021-07-10_14h20.24.309,ImageRatingTask_S2,2021.1.4,MacIntel,59.94125757,,,,,,,,,
,,,,,,,,,,,,0,6,6,6,1,seventh,14,27,F,R,IMT,2021-07-10_14h20.24.309,ImageRatingTask_S2,2021.1.4,MacIntel,59.94125757,,,,,,,,,
,,,,,,,,,,,,0,7,7,7,1,last,14,27,F,R,IMT,2021-07-10_14h20.24.309,ImageRatingTask_S2,2021.1.4,MacIntel,59.94125757,,,,,,,,,
,,,,,,,,,,,,,,,,,,14,27,F,R,IMT,2021-07-10_14h20.24.309,ImageRatingTask_S2,2021.1.4,MacIntel,59.94125757,0,9,9,52,1,DreamStudyImages_rs1000x750g/Houses/Objects_162_h.jpg,,,
,,5,12.1595,1,1.4509,7,1.6975,1,2.0451,8,1.1157,0,0,0,0,1,main,14,27,F,R,IMT,2021-07-10_14h20.24.309,ImageRatingTask_S2,2021.1.4,MacIntel,59.94125757,,,,,,,,,
,,,,,,,,,,,,0,1,1,1,1,second,14,27,F,R,IMT,2021-07-10_14h20.24.309,ImageRatingTask_S2,2021.1.4,MacIntel,59.94125757,,,,,,,,,
,,,,,,,,,,,,0,2,2,2,1,third,14,27,F,R,IMT,2021-07-10_14h20.24.309,ImageRatingTask_S2,2021.1.4,MacIntel,59.94125757,,,,,,,,,
,,,,,,,,,,,,0,3,3,3,1,fourth,14,27,F,R,IMT,2021-07-10_14h20.24.309,ImageRatingTask_S2,2021.1.4,MacIntel,59.94125757,,,,,,,,,
,,,,,,,,,,,,0,4,4,4,1,fifth,14,27,F,R,IMT,2021-07-10_14h20.24.309,ImageRatingTask_S2,2021.1.4,MacIntel,59.94125757,,,,,,,,,
,,,,,,,,,,,,0,5,5,5,1,sixth,14,27,F,R,IMT,2021-07-10_14h20.24.309,ImageRatingTask_S2,2021.1.4,MacIntel,59.94125757,,,,,,,,,
,,,,,,,,,,,,0,6,6,6,1,seventh,14,27,F,R,IMT,2021-07-10_14h20.24.309,ImageRatingTask_S2,2021.1.4,MacIntel,59.94125757,,,,,,,,,
,,,,,,,,,,,,0,7,7,7,1,last,14,27,F,R,IMT,2021-07-10_14h20.24.309,ImageRatingTask_S2,2021.1.4,MacIntel,59.94125757,,,,,,,,,
,,,,,,,,,,,,,,,,,,14,27,F,R,IMT,2021-07-10_14h20.24.309,ImageRatingTask_S2,2021.1.4,MacIntel,59.94125757,0,10,10,119,1,DreamStudyImages_rs1000x750g/Water/water_neut_5.jpg,,,
,,5,5.0107,2,3.7448,4,2.0651,2,3.3507,2,1.6021,0,0,0,0,1,main,14,27,F,R,IMT,2021-07-10_14h20.24.309,ImageRatingTask_S2,2021.1.4,MacIntel,59.94125757,,,,,,,,,
,,,,,,,,,,1,0.4433,0,1,1,1,1,second,14,27,F,R,IMT,2021-07-10_14h20.24.309,ImageRatingTask_S2,2021.1.4,MacIntel,59.94125757,,,,,,,,,
,,,,,,,,,,,,0,2,2,2,1,third,14,27,F,R,IMT,2021-07-10_14h20.24.309,ImageRatingTask_S2,2021.1.4,MacIntel,59.94125757,,,,,,,,,
,,,,,,,,,,,,0,3,3,3,1,fourth,14,27,F,R,IMT,2021-07-10_14h20.24.309,ImageRatingTask_S2,2021.1.4,MacIntel,59.94125757,,,,,,,,,
,,,,,,,,,,,,0,4,4,4,1,fifth,14,27,F,R,IMT,2021-07-10_14h20.24.309,ImageRatingTask_S2,2021.1.4,MacIntel,59.94125757,,,,,,,,,
,,,,,,,,,,,,0,5,5,5,1,sixth,14,27,F,R,IMT,2021-07-10_14h20.24.309,ImageRatingTask_S2,2021.1.4,MacIntel,59.94125757,,,,,,,,,
,,,,,,,,,,,,0,6,6,6,1,seventh,14,27,F,R,IMT,2021-07-10_14h20.24.309,ImageRatingTask_S2,2021.1.4,MacIntel,59.94125757,,,,,,,,,
,,,,,,,,,,,,0,7,7,7,1,last,14,27,F,R,IMT,2021-07-10_14h20.24.309,ImageRatingTask_S2,2021.1.4,MacIntel,59.94125757,,,,,,,,,
,,,,,,,,,,,,,,,,,,14,27,F,R,IMT,2021-07-10_14h20.24.309,ImageRatingTask_S2,2021.1.4,MacIntel,59.94125757,0,11,11,87,1,DreamStudyImages_rs1000x750g/Children/Faces_012_v.jpg,,,
,,7,7.5077,3,1.6053,7,2.1852,1,1.8994,7,1.2494,0,0,0,0,1,main,14,27,F,R,IMT,2021-07-10_14h20.24.309,ImageRatingTask_S2,2021.1.4,MacIntel,59.94125757,,,,,,,,,
,,,,,,,,,,,,0,1,1,1,1,second,14,27,F,R,IMT,2021-07-10_14h20.24.309,ImageRatingTask_S2,2021.1.4,MacIntel,59.94125757,,,,,,,,,
,,,,,,,,,,,,0,2,2,2,1,third,14,27,F,R,IMT,2021-07-10_14h20.24.309,ImageRatingTask_S2,2021.1.4,MacIntel,59.94125757,,,,,,,,,
,,,,,,,,,,,,0,3,3,3,1,fourth,14,27,F,R,IMT,2021-07-10_14h20.24.309,ImageRatingTask_S2,2021.1.4,MacIntel,59.94125757,,,,,,,,,
,,,,,,,,,,,,0,4,4,4,1,fifth,14,27,F,R,IMT,2021-07-10_14h20.24.309,ImageRatingTask_S2,2021.1.4,MacIntel,59.94125757,,,,,,,,,
,,,,,,,,,,,,0,5,5,5,1,sixth,14,27,F,R,IMT,2021-07-10_14h20.24.309,ImageRatingTask_S2,2021.1.4,MacIntel,59.94125757,,,,,,,,,
,,,,,,,,,,,,0,6,6,6,1,seventh,14,27,F,R,IMT,2021-07-10_14h20.24.309,ImageRatingTask_S2,2021.1.4,MacIntel,59.94125757,,,,,,,,,
,,,,,,,,,,,,0,7,7,7,1,last,14,27,F,R,IMT,2021-07-10_14h20.24.309,ImageRatingTask_S2,2021.1.4,MacIntel,59.94125757,,,,,,,,,
,,,,,,,,,,,,,,,,,,14,27,F,R,IMT,2021-07-10_14h20.24.309,ImageRatingTask_S2,2021.1.4,MacIntel,59.94125757,0,12,12,3,1,DreamStudyImages_rs1000x750g/Vehicles/bluevan.jpg,,,
,,4,8.4031,2,1.7309,8,2.1982,1,2.2319,2,1.0453,0,0,0,0,1,main,14,27,F,R,IMT,2021-07-10_14h20.24.309,ImageRatingTask_S2,2021.1.4,MacIntel,59.94125757,,,,,,,,,
,,,,,,,,,,,,0,1,1,1,1,second,14,27,F,R,IMT,2021-07-10_14h20.24.309,ImageRatingTask_S2,2021.1.4,MacIntel,59.94125757,,,,,,,,,
,,,,,,,,,,,,0,2,2,2,1,third,14,27,F,R,IMT,2021-07-10_14h20.24.309,ImageRatingTask_S2,2021.1.4,MacIntel,59.94125757,,,,,,,,,
,,,,,,,,,,,,0,3,3,3,1,fourth,14,27,F,R,IMT,2021-07-10_14h20.24.309,ImageRatingTask_S2,2021.1.4,MacIntel,59.94125757,,,,,,,,,
,,,,,,,,,,,,0,4,4,4,1,fifth,14,27,F,R,IMT,2021-07-10_14h20.24.309,ImageRatingTask_S2,2021.1.4,MacIntel,59.94125757,,,,,,,,,
,,,,,,,,,,,,0,5,5,5,1,sixth,14,27,F,R,IMT,2021-07-10_14h20.24.309,ImageRatingTask_S2,2021.1.4,MacIntel,59.94125757,,,,,,,,,
,,,,,,,,,,,,0,6,6,6,1,seventh,14,27,F,R,IMT,2021-07-10_14h20.24.309,ImageRatingTask_S2,2021.1.4,MacIntel,59.94125757,,,,,,,,,
,,,,,,,,,,,,0,7,7,7,1,last,14,27,F,R,IMT,2021-07-10_14h20.24.309,ImageRatingTask_S2,2021.1.4,MacIntel,59.94125757,,,,,,,,,
,,,,,,,,,,,,,,,,,,14,27,F,R,IMT,2021-07-10_14h20.24.309,ImageRatingTask_S2,2021.1.4,MacIntel,59.94125757,0,13,13,71,1,DreamStudyImages_rs1000x750g/Children/People_042_h.jpg,,,
,,3,4.1835,4,2.037,4,2.1717,1,2.0482,3,0.9275,0,0,0,0,1,main,14,27,F,R,IMT,2021-07-10_14h20.24.309,ImageRatingTask_S2,2021.1.4,MacIntel,59.94125757,,,,,,,,,
,,,,,,,,,,,,0,1,1,1,1,second,14,27,F,R,IMT,2021-07-10_14h20.24.309,ImageRatingTask_S2,2021.1.4,MacIntel,59.94125757,,,,,,,,,
,,,,,,,,,,,,0,2,2,2,1,third,14,27,F,R,IMT,2021-07-10_14h20.24.309,ImageRatingTask_S2,2021.1.4,MacIntel,59.94125757,,,,,,,,,
,,,,,,,,,,,,0,3,3,3,1,fourth,14,27,F,R,IMT,2021-07-10_14h20.24.309,ImageRatingTask_S2,2021.1.4,MacIntel,59.94125757,,,,,,,,,
,,,,,,,,,,,,0,4,4,4,1,fifth,14,27,F,R,IMT,2021-07-10_14h20.24.309,ImageRatingTask_S2,2021.1.4,MacIntel,59.94125757,,,,,,,,,
,,,,,,,,,,,,0,5,5,5,1,sixth,14,27,F,R,IMT,2021-07-10_14h20.24.309,ImageRatingTask_S2,2021.1.4,MacIntel,59.94125757,,,,,,,,,
,,,,,,,,,,,,0,6,6,6,1,seventh,14,27,F,R,IMT,2021-07-10_14h20.24.309,ImageRatingTask_S2,2021.1.4,MacIntel,59.94125757,,,,,,,,,
,,,,,,,,,,,,0,7,7,7,1,last,14,27,F,R,IMT,2021-07-10_14h20.24.309,ImageRatingTask_S2,2021.1.4,MacIntel,59.94125757,,,,,,,,,
,,,,,,,,,,,,,,,,,,14,27,F,R,IMT,2021-07-10_14h20.24.309,ImageRatingTask_S2,2021.1.4,MacIntel,59.94125757,0,14,14,10,1,DreamStudyImages_rs1000x750g/Mammals/IAPS1726_tiger2.jpg,,,
,,5,8.636,2,1.3377,7,4.1929,1,1.9482,8,0.6795,0,0,0,0,1,main,14,27,F,R,IMT,2021-07-10_14h20.24.309,ImageRatingTask_S2,2021.1.4,MacIntel,59.94125757,,,,,,,,,
,,,,,,,,,,,,0,1,1,1,1,second,14,27,F,R,IMT,2021-07-10_14h20.24.309,ImageRatingTask_S2,2021.1.4,MacIntel,59.94125757,,,,,,,,,
,,,,,,,,,,,,0,2,2,2,1,third,14,27,F,R,IMT,2021-07-10_14h20.24.309,ImageRatingTask_S2,2021.1.4,MacIntel,59.94125757,,,,,,,,,
,,,,,,,,,,,,0,3,3,3,1,fourth,14,27,F,R,IMT,2021-07-10_14h20.24.309,ImageRatingTask_S2,2021.1.4,MacIntel,59.94125757,,,,,,,,,
,,,,,,,,,,,,0,4,4,4,1,fifth,14,27,F,R,IMT,2021-07-10_14h20.24.309,ImageRatingTask_S2,2021.1.4,MacIntel,59.94125757,,,,,,,,,
,,,,,,,,,,,,0,5,5,5,1,sixth,14,27,F,R,IMT,2021-07-10_14h20.24.309,ImageRatingTask_S2,2021.1.4,MacIntel,59.94125757,,,,,,,,,
,,,,,,,,,,,,0,6,6,6,1,seventh,14,27,F,R,IMT,2021-07-10_14h20.24.309,ImageRatingTask_S2,2021.1.4,MacIntel,59.94125757,,,,,,,,,
,,,,,,,,,,,,0,7,7,7,1,last,14,27,F,R,IMT,2021-07-10_14h20.24.309,ImageRatingTask_S2,2021.1.4,MacIntel,59.94125757,,,,,,,,,
,,,,,,,,,,,,,,,,,,14,27,F,R,IMT,2021-07-10_14h20.24.309,ImageRatingTask_S2,2021.1.4,MacIntel,59.94125757,0,15,15,135,1,DreamStudyImages_rs1000x750g/Water/waveonrocks.jpg,,,
,,6,2.4015,3,2.7808,7,1.5205,1,1.4956,2,0.8745,0,0,0,0,1,main,14,27,F,R,IMT,2021-07-10_14h20.24.309,ImageRatingTask_S2,2021.1.4,MacIntel,59.94125757,,,,,,,,,
,,,,,,,,,,,,0,1,1,1,1,second,14,27,F,R,IMT,2021-07-10_14h20.24.309,ImageRatingTask_S2,2021.1.4,MacIntel,59.94125757,,,,,,,,,
,,,,,,,,,,,,0,2,2,2,1,third,14,27,F,R,IMT,2021-07-10_14h20.24.309,ImageRatingTask_S2,2021.1.4,MacIntel,59.94125757,,,,,,,,,
,,,,,,,,,,,,0,3,3,3,1,fourth,14,27,F,R,IMT,2021-07-10_14h20.24.309,ImageRatingTask_S2,2021.1.4,MacIntel,59.94125757,,,,,,,,,
,,,,,,,,,,,,0,4,4,4,1,fifth,14,27,F,R,IMT,2021-07-10_14h20.24.309,ImageRatingTask_S2,2021.1.4,MacIntel,59.94125757,,,,,,,,,
,,,,,,,,,,,,0,5,5,5,1,sixth,14,27,F,R,IMT,2021-07-10_14h20.24.309,ImageRatingTask_S2,2021.1.4,MacIntel,59.94125757,,,,,,,,,
,,,,,,,,,,,,0,6,6,6,1,seventh,14,27,F,R,IMT,2021-07-10_14h20.24.309,ImageRatingTask_S2,2021.1.4,MacIntel,59.94125757,,,,,,,,,
,,,,,,,,,,,,0,7,7,7,1,last,14,27,F,R,IMT,2021-07-10_14h20.24.309,ImageRatingTask_S2,2021.1.4,MacIntel,59.94125757,,,,,,,,,
,,,,,,,,,,,,,,,,,,14,27,F,R,IMT,2021-07-10_14h20.24.309,ImageRatingTask_S2,2021.1.4,MacIntel,59.94125757,0,16,16,122,1,DreamStudyImages_rs1000x750g/Children/People_055_h.jpg,,,
,,5,2.5556,1,0.9746,6,1.6511,1,2.2032,6,3.0549,0,0,0,0,1,main,14,27,F,R,IMT,2021-07-10_14h20.24.309,ImageRatingTask_S2,2021.1.4,MacIntel,59.94125757,,,,,,,,,
,,,,,,,,,,,,0,1,1,1,1,second,14,27,F,R,IMT,2021-07-10_14h20.24.309,ImageRatingTask_S2,2021.1.4,MacIntel,59.94125757,,,,,,,,,
,,,,,,,,,,,,0,2,2,2,1,third,14,27,F,R,IMT,2021-07-10_14h20.24.309,ImageRatingTask_S2,2021.1.4,MacIntel,59.94125757,,,,,,,,,
,,,,,,,,,,,,0,3,3,3,1,fourth,14,27,F,R,IMT,2021-07-10_14h20.24.309,ImageRatingTask_S2,2021.1.4,MacIntel,59.94125757,,,,,,,,,
,,,,,,,,,,,,0,4,4,4,1,fifth,14,27,F,R,IMT,2021-07-10_14h20.24.309,ImageRatingTask_S2,2021.1.4,MacIntel,59.94125757,,,,,,,,,
,,,,,,,,,,,,0,5,5,5,1,sixth,14,27,F,R,IMT,2021-07-10_14h20.24.309,ImageRatingTask_S2,2021.1.4,MacIntel,59.94125757,,,,,,,,,
,,,,,,,,,,,,0,6,6,6,1,seventh,14,27,F,R,IMT,2021-07-10_14h20.24.309,ImageRatingTask_S2,2021.1.4,MacIntel,59.94125757,,,,,,,,,
,,,,,,,,,,,,0,7,7,7,1,last,14,27,F,R,IMT,2021-07-10_14h20.24.309,ImageRatingTask_S2,2021.1.4,MacIntel,59.94125757,,,,,,,,,
,,,,,,,,,,,,,,,,,,14,27,F,R,IMT,2021-07-10_14h20.24.309,ImageRatingTask_S2,2021.1.4,MacIntel,59.94125757,0,17,17,58,1,DreamStudyImages_rs1000x750g/Houses/IAPS7491_bunker.jpg,,,
,,5,21.0427,1,1.4178,2,2.1299,1,1.6289,6,0.9992,0,0,0,0,1,main,14,27,F,R,IMT,2021-07-10_14h20.24.309,ImageRatingTask_S2,2021.1.4,MacIntel,59.94125757,,,,,,,,,
,,,,,,,,,,,,0,1,1,1,1,second,14,27,F,R,IMT,2021-07-10_14h20.24.309,ImageRatingTask_S2,2021.1.4,MacIntel,59.94125757,,,,,,,,,
,,,,,,,,,,,,0,2,2,2,1,third,14,27,F,R,IMT,2021-07-10_14h20.24.309,ImageRatingTask_S2,2021.1.4,MacIntel,59.94125757,,,,,,,,,
,,,,,,,,,,,,0,3,3,3,1,fourth,14,27,F,R,IMT,2021-07-10_14h20.24.309,ImageRatingTask_S2,2021.1.4,MacIntel,59.94125757,,,,,,,,,
,,,,,,,,,,,,0,4,4,4,1,fifth,14,27,F,R,IMT,2021-07-10_14h20.24.309,ImageRatingTask_S2,2021.1.4,MacIntel,59.94125757,,,,,,,,,
,,,,,,,,,,,,0,5,5,5,1,sixth,14,27,F,R,IMT,2021-07-10_14h20.24.309,ImageRatingTask_S2,2021.1.4,MacIntel,59.94125757,,,,,,,,,
,,,,,,,,,,,,0,6,6,6,1,seventh,14,27,F,R,IMT,2021-07-10_14h20.24.309,ImageRatingTask_S2,2021.1.4,MacIntel,59.94125757,,,,,,,,,
,,,,,,,,,,,,0,7,7,7,1,last,14,27,F,R,IMT,2021-07-10_14h20.24.309,ImageRatingTask_S2,2021.1.4,MacIntel,59.94125757,,,,,,,,,
,,,,,,,,,,,,,,,,,,14,27,F,R,IMT,2021-07-10_14h20.24.309,ImageRatingTask_S2,2021.1.4,MacIntel,59.94125757,0,18,18,67,1,DreamStudyImages_rs1000x750g/Houses/House 1.jpg,,,
,,5,2.3871,1,1.0334,5,3.2623,1,5.4081,6,0.9737,0,0,0,0,1,main,14,27,F,R,IMT,2021-07-10_14h20.24.309,ImageRatingTask_S2,2021.1.4,MacIntel,59.94125757,,,,,,,,,
,,,,,,,,,,,,0,1,1,1,1,second,14,27,F,R,IMT,2021-07-10_14h20.24.309,ImageRatingTask_S2,2021.1.4,MacIntel,59.94125757,,,,,,,,,
,,,,,,,,,,,,0,2,2,2,1,third,14,27,F,R,IMT,2021-07-10_14h20.24.309,ImageRatingTask_S2,2021.1.4,MacIntel,59.94125757,,,,,,,,,
,,,,,,,,,,,,0,3,3,3,1,fourth,14,27,F,R,IMT,2021-07-10_14h20.24.309,ImageRatingTask_S2,2021.1.4,MacIntel,59.94125757,,,,,,,,,
,,,,,,,,,,,,0,4,4,4,1,fifth,14,27,F,R,IMT,2021-07-10_14h20.24.309,ImageRatingTask_S2,2021.1.4,MacIntel,59.94125757,,,,,,,,,
,,,,,,,,,,,,0,5,5,5,1,sixth,14,27,F,R,IMT,2021-07-10_14h20.24.309,ImageRatingTask_S2,2021.1.4,MacIntel,59.94125757,,,,,,,,,
,,,,,,,,,,,,0,6,6,6,1,seventh,14,27,F,R,IMT,2021-07-10_14h20.24.309,ImageRatingTask_S2,2021.1.4,MacIntel,59.94125757,,,,,,,,,
,,,,,,,,,,,,0,7,7,7,1,last,14,27,F,R,IMT,2021-07-10_14h20.24.309,ImageRatingTask_S2,2021.1.4,MacIntel,59.94125757,,,,,,,,,
,,,,,,,,,,,,,,,,,,14,27,F,R,IMT,2021-07-10_14h20.24.309,ImageRatingTask_S2,2021.1.4,MacIntel,59.94125757,0,19,19,93,1,DreamStudyImages_rs1000x750g/Houses/Objects_241_h.jpg,,,
,,8,3.8066,4,2.234,6,1.8372,1,1.6379,3,1.6418,0,0,0,0,1,main,14,27,F,R,IMT,2021-07-10_14h20.24.309,ImageRatingTask_S2,2021.1.4,MacIntel,59.94125757,,,,,,,,,
,,,,,,,,,,,,0,1,1,1,1,second,14,27,F,R,IMT,2021-07-10_14h20.24.309,ImageRatingTask_S2,2021.1.4,MacIntel,59.94125757,,,,,,,,,
,,,,,,,,,,,,0,2,2,2,1,third,14,27,F,R,IMT,2021-07-10_14h20.24.309,ImageRatingTask_S2,2021.1.4,MacIntel,59.94125757,,,,,,,,,
,,,,,,,,,,,,0,3,3,3,1,fourth,14,27,F,R,IMT,2021-07-10_14h20.24.309,ImageRatingTask_S2,2021.1.4,MacIntel,59.94125757,,,,,,,,,
,,,,,,,,,,,,0,4,4,4,1,fifth,14,27,F,R,IMT,2021-07-10_14h20.24.309,ImageRatingTask_S2,2021.1.4,MacIntel,59.94125757,,,,,,,,,
,,,,,,,,,,,,0,5,5,5,1,sixth,14,27,F,R,IMT,2021-07-10_14h20.24.309,ImageRatingTask_S2,2021.1.4,MacIntel,59.94125757,,,,,,,,,
,,,,,,,,,,,,0,6,6,6,1,seventh,14,27,F,R,IMT,2021-07-10_14h20.24.309,ImageRatingTask_S2,2021.1.4,MacIntel,59.94125757,,,,,,,,,
,,,,,,,,,,,,0,7,7,7,1,last,14,27,F,R,IMT,2021-07-10_14h20.24.309,ImageRatingTask_S2,2021.1.4,MacIntel,59.94125757,,,,,,,,,
,,,,,,,,,,,,,,,,,,14,27,F,R,IMT,2021-07-10_14h20.24.309,ImageRatingTask_S2,2021.1.4,MacIntel,59.94125757,0,20,20,77,1,DreamStudyImages_rs1000x750g/Mammals/Meerkat 1.jpg,,,
,,8,3.6151,4,1.3547,4,2.985,1,1.5002,3,2.1972,0,0,0,0,1,main,14,27,F,R,IMT,2021-07-10_14h20.24.309,ImageRatingTask_S2,2021.1.4,MacIntel,59.94125757,,,,,,,,,
,,,,,,,,,,,,0,1,1,1,1,second,14,27,F,R,IMT,2021-07-10_14h20.24.309,ImageRatingTask_S2,2021.1.4,MacIntel,59.94125757,,,,,,,,,
,,,,,,,,,,,,0,2,2,2,1,third,14,27,F,R,IMT,2021-07-10_14h20.24.309,ImageRatingTask_S2,2021.1.4,MacIntel,59.94125757,,,,,,,,,
,,,,,,,,,,,,0,3,3,3,1,fourth,14,27,F,R,IMT,2021-07-10_14h20.24.309,ImageRatingTask_S2,2021.1.4,MacIntel,59.94125757,,,,,,,,,
,,,,,,,,,,,,0,4,4,4,1,fifth,14,27,F,R,IMT,2021-07-10_14h20.24.309,ImageRatingTask_S2,2021.1.4,MacIntel,59.94125757,,,,,,,,,
,,,,,,,,,,,,0,5,5,5,1,sixth,14,27,F,R,IMT,2021-07-10_14h20.24.309,ImageRatingTask_S2,2021.1.4,MacIntel,59.94125757,,,,,,,,,
,,,,,,,,,,,,0,6,6,6,1,seventh,14,27,F,R,IMT,2021-07-10_14h20.24.309,ImageRatingTask_S2,2021.1.4,MacIntel,59.94125757,,,,,,,,,
,,,,,,,,,,,,0,7,7,7,1,last,14,27,F,R,IMT,2021-07-10_14h20.24.309,ImageRatingTask_S2,2021.1.4,MacIntel,59.94125757,,,,,,,,,
,,,,,,,,,,,,,,,,,,14,27,F,R,IMT,2021-07-10_14h20.24.309,ImageRatingTask_S2,2021.1.4,MacIntel,59.94125757,0,21,21,57,1,DreamStudyImages_rs1000x750g/Mammals/IAPS1722_leopardcubs.jpg,,,
,,4,137.8351,3,2.2254,8,1.5779,1,1.0469,8,2.2332,0,0,0,0,1,main,14,27,F,R,IMT,2021-07-10_14h20.24.309,ImageRatingTask_S2,2021.1.4,MacIntel,59.94125757,,,,,,,,,
,,,,,,,,,,,,0,1,1,1,1,second,14,27,F,R,IMT,2021-07-10_14h20.24.309,ImageRatingTask_S2,2021.1.4,MacIntel,59.94125757,,,,,,,,,
,,,,,,,,,,,,0,2,2,2,1,third,14,27,F,R,IMT,2021-07-10_14h20.24.309,ImageRatingTask_S2,2021.1.4,MacIntel,59.94125757,,,,,,,,,
,,,,,,,,,,,,0,3,3,3,1,fourth,14,27,F,R,IMT,2021-07-10_14h20.24.309,ImageRatingTask_S2,2021.1.4,MacIntel,59.94125757,,,,,,,,,
,,,,,,,,,,,,0,4,4,4,1,fifth,14,27,F,R,IMT,2021-07-10_14h20.24.309,ImageRatingTask_S2,2021.1.4,MacIntel,59.94125757,,,,,,,,,
,,,,,,,,,,,,0,5,5,5,1,sixth,14,27,F,R,IMT,2021-07-10_14h20.24.309,ImageRatingTask_S2,2021.1.4,MacIntel,59.94125757,,,,,,,,,
,,,,,,,,,,,,0,6,6,6,1,seventh,14,27,F,R,IMT,2021-07-10_14h20.24.309,ImageRatingTask_S2,2021.1.4,MacIntel,59.94125757,,,,,,,,,
,,,,,,,,,,,,0,7,7,7,1,last,14,27,F,R,IMT,2021-07-10_14h20.24.309,ImageRatingTask_S2,2021.1.4,MacIntel,59.94125757,,,,,,,,,
,,,,,,,,,,,,,,,,,,14,27,F,R,IMT,2021-07-10_14h20.24.309,ImageRatingTask_S2,2021.1.4,MacIntel,59.94125757,0,22,22,70,1,DreamStudyImages_rs1000x750g/Water/16_CHECK.jpg,,,
,,5,5.9486,3,1.7138,7,2.3484,1,1.0296,8,0.8655,0,0,0,0,1,main,14,27,F,R,IMT,2021-07-10_14h20.24.309,ImageRatingTask_S2,2021.1.4,MacIntel,59.94125757,,,,,,,,,
,,,,,,,,,,,,0,1,1,1,1,second,14,27,F,R,IMT,2021-07-10_14h20.24.309,ImageRatingTask_S2,2021.1.4,MacIntel,59.94125757,,,,,,,,,
,,,,,,,,,,,,0,2,2,2,1,third,14,27,F,R,IMT,2021-07-10_14h20.24.309,ImageRatingTask_S2,2021.1.4,MacIntel,59.94125757,,,,,,,,,
,,,,,,,,,,,,0,3,3,3,1,fourth,14,27,F,R,IMT,2021-07-10_14h20.24.309,ImageRatingTask_S2,2021.1.4,MacIntel,59.94125757,,,,,,,,,
,,,,,,,,,,,,0,4,4,4,1,fifth,14,27,F,R,IMT,2021-07-10_14h20.24.309,ImageRatingTask_S2,2021.1.4,MacIntel,59.94125757,,,,,,,,,
,,,,,,,,,,,,0,5,5,5,1,sixth,14,27,F,R,IMT,2021-07-10_14h20.24.309,ImageRatingTask_S2,2021.1.4,MacIntel,59.94125757,,,,,,,,,
,,,,,,,,,,,,0,6,6,6,1,seventh,14,27,F,R,IMT,2021-07-10_14h20.24.309,ImageRatingTask_S2,2021.1.4,MacIntel,59.94125757,,,,,,,,,
,,,,,,,,,,,,0,7,7,7,1,last,14,27,F,R,IMT,2021-07-10_14h20.24.309,ImageRatingTask_S2,2021.1.4,MacIntel,59.94125757,,,,,,,,,
,,,,,,,,,,,,,,,,,,14,27,F,R,IMT,2021-07-10_14h20.24.309,ImageRatingTask_S2,2021.1.4,MacIntel,59.94125757,0,23,23,132,1,DreamStudyImages_rs1000x750g/Water/46.jpg,,,
,,2,3.2589,3,1.6378,2,57.0592,1,2.7395,7,0.8273,0,0,0,0,1,main,14,27,F,R,IMT,2021-07-10_14h20.24.309,ImageRatingTask_S2,2021.1.4,MacIntel,59.94125757,,,,,,,,,
,,,,,,,,,,,,0,1,1,1,1,second,14,27,F,R,IMT,2021-07-10_14h20.24.309,ImageRatingTask_S2,2021.1.4,MacIntel,59.94125757,,,,,,,,,
,,,,,,,,,,,,0,2,2,2,1,third,14,27,F,R,IMT,2021-07-10_14h20.24.309,ImageRatingTask_S2,2021.1.4,MacIntel,59.94125757,,,,,,,,,
,,,,,,,,,,,,0,3,3,3,1,fourth,14,27,F,R,IMT,2021-07-10_14h20.24.309,ImageRatingTask_S2,2021.1.4,MacIntel,59.94125757,,,,,,,,,
,,,,,,,,,,,,0,4,4,4,1,fifth,14,27,F,R,IMT,2021-07-10_14h20.24.309,ImageRatingTask_S2,2021.1.4,MacIntel,59.94125757,,,,,,,,,
,,,,,,,,,,,,0,5,5,5,1,sixth,14,27,F,R,IMT,2021-07-10_14h20.24.309,ImageRatingTask_S2,2021.1.4,MacIntel,59.94125757,,,,,,,,,
,,,,,,,,,,,,0,6,6,6,1,seventh,14,27,F,R,IMT,2021-07-10_14h20.24.309,ImageRatingTask_S2,2021.1.4,MacIntel,59.94125757,,,,,,,,,
,,,,,,,,,,,,0,7,7,7,1,last,14,27,F,R,IMT,2021-07-10_14h20.24.309,ImageRatingTask_S2,2021.1.4,MacIntel,59.94125757,,,,,,,,,
,,,,,,,,,,,,,,,,,,14,27,F,R,IMT,2021-07-10_14h20.24.309,ImageRatingTask_S2,2021.1.4,MacIntel,59.94125757,0,24,24,11,1,DreamStudyImages_rs1000x750g/Vehicles/Tornado 1.jpg,,,
,,7,5.3246,2,2.4594,6,1.8427,1,3.3315,8,1.1489,0,0,0,0,1,main,14,27,F,R,IMT,2021-07-10_14h20.24.309,ImageRatingTask_S2,2021.1.4,MacIntel,59.94125757,,,,,,,,,
,,,,,,,,,,,,0,1,1,1,1,second,14,27,F,R,IMT,2021-07-10_14h20.24.309,ImageRatingTask_S2,2021.1.4,MacIntel,59.94125757,,,,,,,,,
,,,,,,,,,,,,0,2,2,2,1,third,14,27,F,R,IMT,2021-07-10_14h20.24.309,ImageRatingTask_S2,2021.1.4,MacIntel,59.94125757,,,,,,,,,
,,,,,,,,,,,,0,3,3,3,1,fourth,14,27,F,R,IMT,2021-07-10_14h20.24.309,ImageRatingTask_S2,2021.1.4,MacIntel,59.94125757,,,,,,,,,
,,,,,,,,,,,,0,4,4,4,1,fifth,14,27,F,R,IMT,2021-07-10_14h20.24.309,ImageRatingTask_S2,2021.1.4,MacIntel,59.94125757,,,,,,,,,
,,,,,,,,,,,,0,5,5,5,1,sixth,14,27,F,R,IMT,2021-07-10_14h20.24.309,ImageRatingTask_S2,2021.1.4,MacIntel,59.94125757,,,,,,,,,
,,,,,,,,,,,,0,6,6,6,1,seventh,14,27,F,R,IMT,2021-07-10_14h20.24.309,ImageRatingTask_S2,2021.1.4,MacIntel,59.94125757,,,,,,,,,
,,,,,,,,,,,,0,7,7,7,1,last,14,27,F,R,IMT,2021-07-10_14h20.24.309,ImageRatingTask_S2,2021.1.4,MacIntel,59.94125757,,,,,,,,,
,,,,,,,,,,,,,,,,,,14,27,F,R,IMT,2021-07-10_14h20.24.309,ImageRatingTask_S2,2021.1.4,MacIntel,59.94125757,0,25,25,148,1,DreamStudyImages_rs1000x750g/Water/Landscapes_169_h.jpg,,,
,,2,36.5896,3,4.1055,4,1.6885,1,1.0703,7,0.9002,0,0,0,0,1,main,14,27,F,R,IMT,2021-07-10_14h20.24.309,ImageRatingTask_S2,2021.1.4,MacIntel,59.94125757,,,,,,,,,
,,,,,,,,,,,,0,1,1,1,1,second,14,27,F,R,IMT,2021-07-10_14h20.24.309,ImageRatingTask_S2,2021.1.4,MacIntel,59.94125757,,,,,,,,,
,,,,,,,,,,,,0,2,2,2,1,third,14,27,F,R,IMT,2021-07-10_14h20.24.309,ImageRatingTask_S2,2021.1.4,MacIntel,59.94125757,,,,,,,,,
,,,,,,,,,,,,0,3,3,3,1,fourth,14,27,F,R,IMT,2021-07-10_14h20.24.309,ImageRatingTask_S2,2021.1.4,MacIntel,59.94125757,,,,,,,,,
,,,,,,,,,,,,0,4,4,4,1,fifth,14,27,F,R,IMT,2021-07-10_14h20.24.309,ImageRatingTask_S2,2021.1.4,MacIntel,59.94125757,,,,,,,,,
,,,,,,,,,,,,0,5,5,5,1,sixth,14,27,F,R,IMT,2021-07-10_14h20.24.309,ImageRatingTask_S2,2021.1.4,MacIntel,59.94125757,,,,,,,,,
,,,,,,,,,,,,0,6,6,6,1,seventh,14,27,F,R,IMT,2021-07-10_14h20.24.309,ImageRatingTask_S2,2021.1.4,MacIntel,59.94125757,,,,,,,,,
,,,,,,,,,,,,0,7,7,7,1,last,14,27,F,R,IMT,2021-07-10_14h20.24.309,ImageRatingTask_S2,2021.1.4,MacIntel,59.94125757,,,,,,,,,
,,,,,,,,,,,,,,,,,,14,27,F,R,IMT,2021-07-10_14h20.24.309,ImageRatingTask_S2,2021.1.4,MacIntel,59.94125757,0,26,26,92,1,DreamStudyImages_rs1000x750g/Vehicles/IAPS9622_planecrash2.jpg,,,
,,5,6.8748,1,0.7468,7,1.6968,2,43.1674,8,5.0418,0,0,0,0,1,main,14,27,F,R,IMT,2021-07-10_14h20.24.309,ImageRatingTask_S2,2021.1.4,MacIntel,59.94125757,,,,,,,,,
,,,,,,,,,,7,0.8901,0,1,1,1,1,second,14,27,F,R,IMT,2021-07-10_14h20.24.309,ImageRatingTask_S2,2021.1.4,MacIntel,59.94125757,,,,,,,,,
,,,,,,,,,,,,0,2,2,2,1,third,14,27,F,R,IMT,2021-07-10_14h20.24.309,ImageRatingTask_S2,2021.1.4,MacIntel,59.94125757,,,,,,,,,
,,,,,,,,,,,,0,3,3,3,1,fourth,14,27,F,R,IMT,2021-07-10_14h20.24.309,ImageRatingTask_S2,2021.1.4,MacIntel,59.94125757,,,,,,,,,
,,,,,,,,,,,,0,4,4,4,1,fifth,14,27,F,R,IMT,2021-07-10_14h20.24.309,ImageRatingTask_S2,2021.1.4,MacIntel,59.94125757,,,,,,,,,
,,,,,,,,,,,,0,5,5,5,1,sixth,14,27,F,R,IMT,2021-07-10_14h20.24.309,ImageRatingTask_S2,2021.1.4,MacIntel,59.94125757,,,,,,,,,
,,,,,,,,,,,,0,6,6,6,1,seventh,14,27,F,R,IMT,2021-07-10_14h20.24.309,ImageRatingTask_S2,2021.1.4,MacIntel,59.94125757,,,,,,,,,
,,,,,,,,,,,,0,7,7,7,1,last,14,27,F,R,IMT,2021-07-10_14h20.24.309,ImageRatingTask_S2,2021.1.4,MacIntel,59.94125757,,,,,,,,,
,,,,,,,,,,,,,,,,,,14,27,F,R,IMT,2021-07-10_14h20.24.309,ImageRatingTask_S2,2021.1.4,MacIntel,59.94125757,0,27,27,21,1,DreamStudyImages_rs1000x750g/Vehicles/Objects_205_h.jpg,,,
,,4,10.1445,3,2.2562,7,2.0956,2,1.6959,6,1.2408,0,0,0,0,1,main,14,27,F,R,IMT,2021-07-10_14h20.24.309,ImageRatingTask_S2,2021.1.4,MacIntel,59.94125757,,,,,,,,,
,,,,,,,,,,6,6.4753,0,1,1,1,1,second,14,27,F,R,IMT,2021-07-10_14h20.24.309,ImageRatingTask_S2,2021.1.4,MacIntel,59.94125757,,,,,,,,,
,,,,,,,,,,,,0,2,2,2,1,third,14,27,F,R,IMT,2021-07-10_14h20.24.309,ImageRatingTask_S2,2021.1.4,MacIntel,59.94125757,,,,,,,,,
,,,,,,,,,,,,0,3,3,3,1,fourth,14,27,F,R,IMT,2021-07-10_14h20.24.309,ImageRatingTask_S2,2021.1.4,MacIntel,59.94125757,,,,,,,,,
,,,,,,,,,,,,0,4,4,4,1,fifth,14,27,F,R,IMT,2021-07-10_14h20.24.309,ImageRatingTask_S2,2021.1.4,MacIntel,59.94125757,,,,,,,,,
,,,,,,,,,,,,0,5,5,5,1,sixth,14,27,F,R,IMT,2021-07-10_14h20.24.309,ImageRatingTask_S2,2021.1.4,MacIntel,59.94125757,,,,,,,,,
,,,,,,,,,,,,0,6,6,6,1,seventh,14,27,F,R,IMT,2021-07-10_14h20.24.309,ImageRatingTask_S2,2021.1.4,MacIntel,59.94125757,,,,,,,,,
,,,,,,,,,,,,0,7,7,7,1,last,14,27,F,R,IMT,2021-07-10_14h20.24.309,ImageRatingTask_S2,2021.1.4,MacIntel,59.94125757,,,,,,,,,
,,,,,,,,,,,,,,,,,,14,27,F,R,IMT,2021-07-10_14h20.24.309,ImageRatingTask_S2,2021.1.4,MacIntel,59.94125757,0,28,28,129,1,DreamStudyImages_rs1000x750g/Houses/Landscapes_015_h.jpg,,,
,,7,4.167,2,1.6537,3,1.698,2,1.8031,2,1.0524,0,0,0,0,1,main,14,27,F,R,IMT,2021-07-10_14h20.24.309,ImageRatingTask_S2,2021.1.4,MacIntel,59.94125757,,,,,,,,,
,,,,,,,,,,1,1.2652,0,1,1,1,1,second,14,27,F,R,IMT,2021-07-10_14h20.24.309,ImageRatingTask_S2,2021.1.4,MacIntel,59.94125757,,,,,,,,,
,,,,,,,,,,,,0,2,2,2,1,third,14,27,F,R,IMT,2021-07-10_14h20.24.309,ImageRatingTask_S2,2021.1.4,MacIntel,59.94125757,,,,,,,,,
,,,,,,,,,,,,0,3,3,3,1,fourth,14,27,F,R,IMT,2021-07-10_14h20.24.309,ImageRatingTask_S2,2021.1.4,MacIntel,59.94125757,,,,,,,,,
,,,,,,,,,,,,0,4,4,4,1,fifth,14,27,F,R,IMT,2021-07-10_14h20.24.309,ImageRatingTask_S2,2021.1.4,MacIntel,59.94125757,,,,,,,,,
,,,,,,,,,,,,0,5,5,5,1,sixth,14,27,F,R,IMT,2021-07-10_14h20.24.309,ImageRatingTask_S2,2021.1.4,MacIntel,59.94125757,,,,,,,,,
,,,,,,,,,,,,0,6,6,6,1,seventh,14,27,F,R,IMT,2021-07-10_14h20.24.309,ImageRatingTask_S2,2021.1.4,MacIntel,59.94125757,,,,,,,,,
,,,,,,,,,,,,0,7,7,7,1,last,14,27,F,R,IMT,2021-07-10_14h20.24.309,ImageRatingTask_S2,2021.1.4,MacIntel,59.94125757,,,,,,,,,
,,,,,,,,,,,,,,,,,,14,27,F,R,IMT,2021-07-10_14h20.24.309,ImageRatingTask_S2,2021.1.4,MacIntel,59.94125757,0,29,29,149,1,DreamStudyImages_rs1000x750g/Children/IAPS2900.2_girl12.jpg,,,
,,9,3.9782,4,3.9491,6,1.8127,1,2.2274,3,1.0744,0,0,0,0,1,main,14,27,F,R,IMT,2021-07-10_14h20.24.309,ImageRatingTask_S2,2021.1.4,MacIntel,59.94125757,,,,,,,,,
,,,,,,,,,,,,0,1,1,1,1,second,14,27,F,R,IMT,2021-07-10_14h20.24.309,ImageRatingTask_S2,2021.1.4,MacIntel,59.94125757,,,,,,,,,
,,,,,,,,,,,,0,2,2,2,1,third,14,27,F,R,IMT,2021-07-10_14h20.24.309,ImageRatingTask_S2,2021.1.4,MacIntel,59.94125757,,,,,,,,,
,,,,,,,,,,,,0,3,3,3,1,fourth,14,27,F,R,IMT,2021-07-10_14h20.24.309,ImageRatingTask_S2,2021.1.4,MacIntel,59.94125757,,,,,,,,,
,,,,,,,,,,,,0,4,4,4,1,fifth,14,27,F,R,IMT,2021-07-10_14h20.24.309,ImageRatingTask_S2,2021.1.4,MacIntel,59.94125757,,,,,,,,,
,,,,,,,,,,,,0,5,5,5,1,sixth,14,27,F,R,IMT,2021-07-10_14h20.24.309,ImageRatingTask_S2,2021.1.4,MacIntel,59.94125757,,,,,,,,,
,,,,,,,,,,,,0,6,6,6,1,seventh,14,27,F,R,IMT,2021-07-10_14h20.24.309,ImageRatingTask_S2,2021.1.4,MacIntel,59.94125757,,,,,,,,,
,,,,,,,,,,,,0,7,7,7,1,last,14,27,F,R,IMT,2021-07-10_14h20.24.309,ImageRatingTask_S2,2021.1.4,MacIntel,59.94125757,,,,,,,,,
,,,,,,,,,,,,,,,,,,14,27,F,R,IMT,2021-07-10_14h20.24.309,ImageRatingTask_S2,2021.1.4,MacIntel,59.94125757,0,30,30,101,1,DreamStudyImages_rs1000x750g/Mammals/IAPS1630_deer.jpg,,,
,,4,7.6145,2,3.2542,5,2.8628,1,1.8047,5,1.1813,0,0,0,0,1,main,14,27,F,R,IMT,2021-07-10_14h20.24.309,ImageRatingTask_S2,2021.1.4,MacIntel,59.94125757,,,,,,,,,
,,,,,,,,,,,,0,1,1,1,1,second,14,27,F,R,IMT,2021-07-10_14h20.24.309,ImageRatingTask_S2,2021.1.4,MacIntel,59.94125757,,,,,,,,,
,,,,,,,,,,,,0,2,2,2,1,third,14,27,F,R,IMT,2021-07-10_14h20.24.309,ImageRatingTask_S2,2021.1.4,MacIntel,59.94125757,,,,,,,,,
,,,,,,,,,,,,0,3,3,3,1,fourth,14,27,F,R,IMT,2021-07-10_14h20.24.309,ImageRatingTask_S2,2021.1.4,MacIntel,59.94125757,,,,,,,,,
,,,,,,,,,,,,0,4,4,4,1,fifth,14,27,F,R,IMT,2021-07-10_14h20.24.309,ImageRatingTask_S2,2021.1.4,MacIntel,59.94125757,,,,,,,,,
,,,,,,,,,,,,0,5,5,5,1,sixth,14,27,F,R,IMT,2021-07-10_14h20.24.309,ImageRatingTask_S2,2021.1.4,MacIntel,59.94125757,,,,,,,,,
,,,,,,,,,,,,0,6,6,6,1,seventh,14,27,F,R,IMT,2021-07-10_14h20.24.309,ImageRatingTask_S2,2021.1.4,MacIntel,59.94125757,,,,,,,,,
,,,,,,,,,,,,0,7,7,7,1,last,14,27,F,R,IMT,2021-07-10_14h20.24.309,ImageRatingTask_S2,2021.1.4,MacIntel,59.94125757,,,,,,,,,
,,,,,,,,,,,,,,,,,,14,27,F,R,IMT,2021-07-10_14h20.24.309,ImageRatingTask_S2,2021.1.4,MacIntel,59.94125757,0,31,31,49,1,DreamStudyImages_rs1000x750g/Food/Objects_045_h.jpg,,,
,,5,79.0682,1,1.61,7,3.9589,1,1.7953,6,1.2791,0,0,0,0,1,main,14,27,F,R,IMT,2021-07-10_14h20.24.309,ImageRatingTask_S2,2021.1.4,MacIntel,59.94125757,,,,,,,,,
,,,,,,,,,,,,0,1,1,1,1,second,14,27,F,R,IMT,2021-07-10_14h20.24.309,ImageRatingTask_S2,2021.1.4,MacIntel,59.94125757,,,,,,,,,
,,,,,,,,,,,,0,2,2,2,1,third,14,27,F,R,IMT,2021-07-10_14h20.24.309,ImageRatingTask_S2,2021.1.4,MacIntel,59.94125757,,,,,,,,,
,,,,,,,,,,,,0,3,3,3,1,fourth,14,27,F,R,IMT,2021-07-10_14h20.24.309,ImageRatingTask_S2,2021.1.4,MacIntel,59.94125757,,,,,,,,,
,,,,,,,,,,,,0,4,4,4,1,fifth,14,27,F,R,IMT,2021-07-10_14h20.24.309,ImageRatingTask_S2,2021.1.4,MacIntel,59.94125757,,,,,,,,,
,,,,,,,,,,,,0,5,5,5,1,sixth,14,27,F,R,IMT,2021-07-10_14h20.24.309,ImageRatingTask_S2,2021.1.4,MacIntel,59.94125757,,,,,,,,,
,,,,,,,,,,,,0,6,6,6,1,seventh,14,27,F,R,IMT,2021-07-10_14h20.24.309,ImageRatingTask_S2,2021.1.4,MacIntel,59.94125757,,,,,,,,,
,,,,,,,,,,,,0,7,7,7,1,last,14,27,F,R,IMT,2021-07-10_14h20.24.309,ImageRatingTask_S2,2021.1.4,MacIntel,59.94125757,,,,,,,,,
,,,,,,,,,,,,,,,,,,14,27,F,R,IMT,2021-07-10_14h20.24.309,ImageRatingTask_S2,2021.1.4,MacIntel,59.94125757,0,32,32,138,1,DreamStudyImages_rs1000x750g/Houses/Building 2.jpg,,,
,,1,4.7625,6,2.6181,8,7.2093,1,3.4409,3,2.0172,0,0,0,0,1,main,14,27,F,R,IMT,2021-07-10_14h20.24.309,ImageRatingTask_S2,2021.1.4,MacIntel,59.94125757,,,,,,,,,
,,,,,,,,,,,,0,1,1,1,1,second,14,27,F,R,IMT,2021-07-10_14h20.24.309,ImageRatingTask_S2,2021.1.4,MacIntel,59.94125757,,,,,,,,,
,,,,,,,,,,,,0,2,2,2,1,third,14,27,F,R,IMT,2021-07-10_14h20.24.309,ImageRatingTask_S2,2021.1.4,MacIntel,59.94125757,,,,,,,,,
,,,,,,,,,,,,0,3,3,3,1,fourth,14,27,F,R,IMT,2021-07-10_14h20.24.309,ImageRatingTask_S2,2021.1.4,MacIntel,59.94125757,,,,,,,,,
,,,,,,,,,,,,0,4,4,4,1,fifth,14,27,F,R,IMT,2021-07-10_14h20.24.309,ImageRatingTask_S2,2021.1.4,MacIntel,59.94125757,,,,,,,,,
,,,,,,,,,,,,0,5,5,5,1,sixth,14,27,F,R,IMT,2021-07-10_14h20.24.309,ImageRatingTask_S2,2021.1.4,MacIntel,59.94125757,,,,,,,,,
,,,,,,,,,,,,0,6,6,6,1,seventh,14,27,F,R,IMT,2021-07-10_14h20.24.309,ImageRatingTask_S2,2021.1.4,MacIntel,59.94125757,,,,,,,,,
,,,,,,,,,,,,0,7,7,7,1,last,14,27,F,R,IMT,2021-07-10_14h20.24.309,ImageRatingTask_S2,2021.1.4,MacIntel,59.94125757,,,,,,,,,
,,,,,,,,,,,,,,,,,,14,27,F,R,IMT,2021-07-10_14h20.24.309,ImageRatingTask_S2,2021.1.4,MacIntel,59.94125757,0,33,33,110,1,DreamStudyImages_rs1000x750g/Mammals/Animals_016_h.jpg,,,
,,4,3.934,1,1.1476,4,2.5243,1,3.4412,8,2.613,0,0,0,0,1,main,14,27,F,R,IMT,2021-07-10_14h20.24.309,ImageRatingTask_S2,2021.1.4,MacIntel,59.94125757,,,,,,,,,
,,,,,,,,,,,,0,1,1,1,1,second,14,27,F,R,IMT,2021-07-10_14h20.24.309,ImageRatingTask_S2,2021.1.4,MacIntel,59.94125757,,,,,,,,,
,,,,,,,,,,,,0,2,2,2,1,third,14,27,F,R,IMT,2021-07-10_14h20.24.309,ImageRatingTask_S2,2021.1.4,MacIntel,59.94125757,,,,,,,,,
,,,,,,,,,,,,0,3,3,3,1,fourth,14,27,F,R,IMT,2021-07-10_14h20.24.309,ImageRatingTask_S2,2021.1.4,MacIntel,59.94125757,,,,,,,,,
,,,,,,,,,,,,0,4,4,4,1,fifth,14,27,F,R,IMT,2021-07-10_14h20.24.309,ImageRatingTask_S2,2021.1.4,MacIntel,59.94125757,,,,,,,,,
,,,,,,,,,,,,0,5,5,5,1,sixth,14,27,F,R,IMT,2021-07-10_14h20.24.309,ImageRatingTask_S2,2021.1.4,MacIntel,59.94125757,,,,,,,,,
,,,,,,,,,,,,0,6,6,6,1,seventh,14,27,F,R,IMT,2021-07-10_14h20.24.309,ImageRatingTask_S2,2021.1.4,MacIntel,59.94125757,,,,,,,,,
,,,,,,,,,,,,0,7,7,7,1,last,14,27,F,R,IMT,2021-07-10_14h20.24.309,ImageRatingTask_S2,2021.1.4,MacIntel,59.94125757,,,,,,,,,
,,,,,,,,,,,,,,,,,,14,27,F,R,IMT,2021-07-10_14h20.24.309,ImageRatingTask_S2,2021.1.4,MacIntel,59.94125757,0,34,34,116,1,DreamStudyImages_rs1000x750g/Water/Graveyard 3.jpg,,,
,,1,8.0298,4,2.9873,4,1.6112,1,4.0006,2,1.5924,0,0,0,0,1,main,14,27,F,R,IMT,2021-07-10_14h20.24.309,ImageRatingTask_S2,2021.1.4,MacIntel,59.94125757,,,,,,,,,
,,,,,,,,,,,,0,1,1,1,1,second,14,27,F,R,IMT,2021-07-10_14h20.24.309,ImageRatingTask_S2,2021.1.4,MacIntel,59.94125757,,,,,,,,,
,,,,,,,,,,,,0,2,2,2,1,third,14,27,F,R,IMT,2021-07-10_14h20.24.309,ImageRatingTask_S2,2021.1.4,MacIntel,59.94125757,,,,,,,,,
,,,,,,,,,,,,0,3,3,3,1,fourth,14,27,F,R,IMT,2021-07-10_14h20.24.309,ImageRatingTask_S2,2021.1.4,MacIntel,59.94125757,,,,,,,,,
,,,,,,,,,,,,0,4,4,4,1,fifth,14,27,F,R,IMT,2021-07-10_14h20.24.309,ImageRatingTask_S2,2021.1.4,MacIntel,59.94125757,,,,,,,,,
,,,,,,,,,,,,0,5,5,5,1,sixth,14,27,F,R,IMT,2021-07-10_14h20.24.309,ImageRatingTask_S2,2021.1.4,MacIntel,59.94125757,,,,,,,,,
,,,,,,,,,,,,0,6,6,6,1,seventh,14,27,F,R,IMT,2021-07-10_14h20.24.309,ImageRatingTask_S2,2021.1.4,MacIntel,59.94125757,,,,,,,,,
,,,,,,,,,,,,0,7,7,7,1,last,14,27,F,R,IMT,2021-07-10_14h20.24.309,ImageRatingTask_S2,2021.1.4,MacIntel,59.94125757,,,,,,,,,
,,,,,,,,,,,,,,,,,,14,27,F,R,IMT,2021-07-10_14h20.24.309,ImageRatingTask_S2,2021.1.4,MacIntel,59.94125757,0,35,35,38,1,DreamStudyImages_rs1000x750g/Children/IAPS9040_child8.jpg,,,
,,7,4.1124,1,1.6177,6,2.3463,1,2.1223,8,0.7778,0,0,0,0,1,main,14,27,F,R,IMT,2021-07-10_14h20.24.309,ImageRatingTask_S2,2021.1.4,MacIntel,59.94125757,,,,,,,,,
,,,,,,,,,,,,0,1,1,1,1,second,14,27,F,R,IMT,2021-07-10_14h20.24.309,ImageRatingTask_S2,2021.1.4,MacIntel,59.94125757,,,,,,,,,
,,,,,,,,,,,,0,2,2,2,1,third,14,27,F,R,IMT,2021-07-10_14h20.24.309,ImageRatingTask_S2,2021.1.4,MacIntel,59.94125757,,,,,,,,,
,,,,,,,,,,,,0,3,3,3,1,fourth,14,27,F,R,IMT,2021-07-10_14h20.24.309,ImageRatingTask_S2,2021.1.4,MacIntel,59.94125757,,,,,,,,,
,,,,,,,,,,,,0,4,4,4,1,fifth,14,27,F,R,IMT,2021-07-10_14h20.24.309,ImageRatingTask_S2,2021.1.4,MacIntel,59.94125757,,,,,,,,,
,,,,,,,,,,,,0,5,5,5,1,sixth,14,27,F,R,IMT,2021-07-10_14h20.24.309,ImageRatingTask_S2,2021.1.4,MacIntel,59.94125757,,,,,,,,,
,,,,,,,,,,,,0,6,6,6,1,seventh,14,27,F,R,IMT,2021-07-10_14h20.24.309,ImageRatingTask_S2,2021.1.4,MacIntel,59.94125757,,,,,,,,,
,,,,,,,,,,,,0,7,7,7,1,last,14,27,F,R,IMT,2021-07-10_14h20.24.309,ImageRatingTask_S2,2021.1.4,MacIntel,59.94125757,,,,,,,,,
,,,,,,,,,,,,,,,,,,14,27,F,R,IMT,2021-07-10_14h20.24.309,ImageRatingTask_S2,2021.1.4,MacIntel,59.94125757,0,36,36,159,1,DreamStudyImages_rs1000x750g/Water/5210.jpg,,,
,,5,143.6724,1,1.4349,3,4.6785,0,7.5946,,,0,0,0,0,1,main,14,27,F,R,IMT,2021-07-10_14h20.24.309,ImageRatingTask_S2,2021.1.4,MacIntel,59.94125757,,,,,,,,,
,,,,,,,,,,,,0,1,1,1,1,second,14,27,F,R,IMT,2021-07-10_14h20.24.309,ImageRatingTask_S2,2021.1.4,MacIntel,59.94125757,,,,,,,,,
,,,,,,,,,,,,0,2,2,2,1,third,14,27,F,R,IMT,2021-07-10_14h20.24.309,ImageRatingTask_S2,2021.1.4,MacIntel,59.94125757,,,,,,,,,
,,,,,,,,,,,,0,3,3,3,1,fourth,14,27,F,R,IMT,2021-07-10_14h20.24.309,ImageRatingTask_S2,2021.1.4,MacIntel,59.94125757,,,,,,,,,
,,,,,,,,,,,,0,4,4,4,1,fifth,14,27,F,R,IMT,2021-07-10_14h20.24.309,ImageRatingTask_S2,2021.1.4,MacIntel,59.94125757,,,,,,,,,
,,,,,,,,,,,,0,5,5,5,1,sixth,14,27,F,R,IMT,2021-07-10_14h20.24.309,ImageRatingTask_S2,2021.1.4,MacIntel,59.94125757,,,,,,,,,
,,,,,,,,,,,,0,6,6,6,1,seventh,14,27,F,R,IMT,2021-07-10_14h20.24.309,ImageRatingTask_S2,2021.1.4,MacIntel,59.94125757,,,,,,,,,
,,,,,,,,,,,,0,7,7,7,1,last,14,27,F,R,IMT,2021-07-10_14h20.24.309,ImageRatingTask_S2,2021.1.4,MacIntel,59.94125757,,,,,,,,,
,,,,,,,,,,,,,,,,,,14,27,F,R,IMT,2021-07-10_14h20.24.309,ImageRatingTask_S2,2021.1.4,MacIntel,59.94125757,0,37,37,5,1,DreamStudyImages_rs1000x750g/Houses/Objects_130_h.jpg,,,
,,6,3.5641,1,2.2597,4,2.0965,1,47.3126,2,0.9661,0,0,0,0,1,main,14,27,F,R,IMT,2021-07-10_14h20.24.309,ImageRatingTask_S2,2021.1.4,MacIntel,59.94125757,,,,,,,,,
,,,,,,,,,,,,0,1,1,1,1,second,14,27,F,R,IMT,2021-07-10_14h20.24.309,ImageRatingTask_S2,2021.1.4,MacIntel,59.94125757,,,,,,,,,
,,,,,,,,,,,,0,2,2,2,1,third,14,27,F,R,IMT,2021-07-10_14h20.24.309,ImageRatingTask_S2,2021.1.4,MacIntel,59.94125757,,,,,,,,,
,,,,,,,,,,,,0,3,3,3,1,fourth,14,27,F,R,IMT,2021-07-10_14h20.24.309,ImageRatingTask_S2,2021.1.4,MacIntel,59.94125757,,,,,,,,,
,,,,,,,,,,,,0,4,4,4,1,fifth,14,27,F,R,IMT,2021-07-10_14h20.24.309,ImageRatingTask_S2,2021.1.4,MacIntel,59.94125757,,,,,,,,,
,,,,,,,,,,,,0,5,5,5,1,sixth,14,27,F,R,IMT,2021-07-10_14h20.24.309,ImageRatingTask_S2,2021.1.4,MacIntel,59.94125757,,,,,,,,,
,,,,,,,,,,,,0,6,6,6,1,seventh,14,27,F,R,IMT,2021-07-10_14h20.24.309,ImageRatingTask_S2,2021.1.4,MacIntel,59.94125757,,,,,,,,,
,,,,,,,,,,,,0,7,7,7,1,last,14,27,F,R,IMT,2021-07-10_14h20.24.309,ImageRatingTask_S2,2021.1.4,MacIntel,59.94125757,,,,,,,,,
,,,,,,,,,,,,,,,,,,14,27,F,R,IMT,2021-07-10_14h20.24.309,ImageRatingTask_S2,2021.1.4,MacIntel,59.94125757,0,38,38,4,1,DreamStudyImages_rs1000x750g/Children/Excited face 6.jpg,,,
,,5,14.4328,1,32.9489,7,2.7888,1,7.9197,5,0.9344,0,0,0,0,1,main,14,27,F,R,IMT,2021-07-10_14h20.24.309,ImageRatingTask_S2,2021.1.4,MacIntel,59.94125757,,,,,,,,,
,,,,,,,,,,,,0,1,1,1,1,second,14,27,F,R,IMT,2021-07-10_14h20.24.309,ImageRatingTask_S2,2021.1.4,MacIntel,59.94125757,,,,,,,,,
,,,,,,,,,,,,0,2,2,2,1,third,14,27,F,R,IMT,2021-07-10_14h20.24.309,ImageRatingTask_S2,2021.1.4,MacIntel,59.94125757,,,,,,,,,
,,,,,,,,,,,,0,3,3,3,1,fourth,14,27,F,R,IMT,2021-07-10_14h20.24.309,ImageRatingTask_S2,2021.1.4,MacIntel,59.94125757,,,,,,,,,
,,,,,,,,,,,,0,4,4,4,1,fifth,14,27,F,R,IMT,2021-07-10_14h20.24.309,ImageRatingTask_S2,2021.1.4,MacIntel,59.94125757,,,,,,,,,
,,,,,,,,,,,,0,5,5,5,1,sixth,14,27,F,R,IMT,2021-07-10_14h20.24.309,ImageRatingTask_S2,2021.1.4,MacIntel,59.94125757,,,,,,,,,
,,,,,,,,,,,,0,6,6,6,1,seventh,14,27,F,R,IMT,2021-07-10_14h20.24.309,ImageRatingTask_S2,2021.1.4,MacIntel,59.94125757,,,,,,,,,
,,,,,,,,,,,,0,7,7,7,1,last,14,27,F,R,IMT,2021-07-10_14h20.24.309,ImageRatingTask_S2,2021.1.4,MacIntel,59.94125757,,,,,,,,,
,,,,,,,,,,,,,,,,,,14,27,F,R,IMT,2021-07-10_14h20.24.309,ImageRatingTask_S2,2021.1.4,MacIntel,59.94125757,0,39,39,66,1,DreamStudyImages_rs1000x750g/Food/IAPS7487_pastela.jpg,,,
,,5,8.3326,1,0.9529,3,1.6825,1,117.2784,7,2.6706,0,0,0,0,1,main,14,27,F,R,IMT,2021-07-10_14h20.24.309,ImageRatingTask_S2,2021.1.4,MacIntel,59.94125757,,,,,,,,,
,,,,,,,,,,,,0,1,1,1,1,second,14,27,F,R,IMT,2021-07-10_14h20.24.309,ImageRatingTask_S2,2021.1.4,MacIntel,59.94125757,,,,,,,,,
,,,,,,,,,,,,0,2,2,2,1,third,14,27,F,R,IMT,2021-07-10_14h20.24.309,ImageRatingTask_S2,2021.1.4,MacIntel,59.94125757,,,,,,,,,
,,,,,,,,,,,,0,3,3,3,1,fourth,14,27,F,R,IMT,2021-07-10_14h20.24.309,ImageRatingTask_S2,2021.1.4,MacIntel,59.94125757,,,,,,,,,
,,,,,,,,,,,,0,4,4,4,1,fifth,14,27,F,R,IMT,2021-07-10_14h20.24.309,ImageRatingTask_S2,2021.1.4,MacIntel,59.94125757,,,,,,,,,
,,,,,,,,,,,,0,5,5,5,1,sixth,14,27,F,R,IMT,2021-07-10_14h20.24.309,ImageRatingTask_S2,2021.1.4,MacIntel,59.94125757,,,,,,,,,
,,,,,,,,,,,,0,6,6,6,1,seventh,14,27,F,R,IMT,2021-07-10_14h20.24.309,ImageRatingTask_S2,2021.1.4,MacIntel,59.94125757,,,,,,,,,
,,,,,,,,,,,,0,7,7,7,1,last,14,27,F,R,IMT,2021-07-10_14h20.24.309,ImageRatingTask_S2,2021.1.4,MacIntel,59.94125757,,,,,,,,,
,,,,,,,,,,,,,,,,,,14,27,F,R,IMT,2021-07-10_14h20.24.309,ImageRatingTask_S2,2021.1.4,MacIntel,59.94125757,0,40,40,14,1,DreamStudyImages_rs1000x750g/Vehicles/IAPS7140_bus.jpg,,,
,,6,19.1006,1,1.1002,6,4.2775,2,4.1303,2,1.3801,0,0,0,0,1,main,14,27,F,R,IMT,2021-07-10_14h20.24.309,ImageRatingTask_S2,2021.1.4,MacIntel,59.94125757,,,,,,,,,
,,,,,,,,,,8,1.4766,0,1,1,1,1,second,14,27,F,R,IMT,2021-07-10_14h20.24.309,ImageRatingTask_S2,2021.1.4,MacIntel,59.94125757,,,,,,,,,
,,,,,,,,,,,,0,2,2,2,1,third,14,27,F,R,IMT,2021-07-10_14h20.24.309,ImageRatingTask_S2,2021.1.4,MacIntel,59.94125757,,,,,,,,,
,,,,,,,,,,,,0,3,3,3,1,fourth,14,27,F,R,IMT,2021-07-10_14h20.24.309,ImageRatingTask_S2,2021.1.4,MacIntel,59.94125757,,,,,,,,,
,,,,,,,,,,,,0,4,4,4,1,fifth,14,27,F,R,IMT,2021-07-10_14h20.24.309,ImageRatingTask_S2,2021.1.4,MacIntel,59.94125757,,,,,,,,,
,,,,,,,,,,,,0,5,5,5,1,sixth,14,27,F,R,IMT,2021-07-10_14h20.24.309,ImageRatingTask_S2,2021.1.4,MacIntel,59.94125757,,,,,,,,,
,,,,,,,,,,,,0,6,6,6,1,seventh,14,27,F,R,IMT,2021-07-10_14h20.24.309,ImageRatingTask_S2,2021.1.4,MacIntel,59.94125757,,,,,,,,,
,,,,,,,,,,,,0,7,7,7,1,last,14,27,F,R,IMT,2021-07-10_14h20.24.309,ImageRatingTask_S2,2021.1.4,MacIntel,59.94125757,,,,,,,,,
,,,,,,,,,,,,,,,,,,14,27,F,R,IMT,2021-07-10_14h20.24.309,ImageRatingTask_S2,2021.1.4,MacIntel,59.94125757,0,41,41,60,1,DreamStudyImages_rs1000x750g/Children/Faces_105_h.jpg,,,
,,5,28.1341,1,1.1757,6,1.7549,1,0.8991,5,0.8969,0,0,0,0,1,main,14,27,F,R,IMT,2021-07-10_14h20.24.309,ImageRatingTask_S2,2021.1.4,MacIntel,59.94125757,,,,,,,,,
,,,,,,,,,,,,0,1,1,1,1,second,14,27,F,R,IMT,2021-07-10_14h20.24.309,ImageRatingTask_S2,2021.1.4,MacIntel,59.94125757,,,,,,,,,
,,,,,,,,,,,,0,2,2,2,1,third,14,27,F,R,IMT,2021-07-10_14h20.24.309,ImageRatingTask_S2,2021.1.4,MacIntel,59.94125757,,,,,,,,,
,,,,,,,,,,,,0,3,3,3,1,fourth,14,27,F,R,IMT,2021-07-10_14h20.24.309,ImageRatingTask_S2,2021.1.4,MacIntel,59.94125757,,,,,,,,,
,,,,,,,,,,,,0,4,4,4,1,fifth,14,27,F,R,IMT,2021-07-10_14h20.24.309,ImageRatingTask_S2,2021.1.4,MacIntel,59.94125757,,,,,,,,,
,,,,,,,,,,,,0,5,5,5,1,sixth,14,27,F,R,IMT,2021-07-10_14h20.24.309,ImageRatingTask_S2,2021.1.4,MacIntel,59.94125757,,,,,,,,,
,,,,,,,,,,,,0,6,6,6,1,seventh,14,27,F,R,IMT,2021-07-10_14h20.24.309,ImageRatingTask_S2,2021.1.4,MacIntel,59.94125757,,,,,,,,,
,,,,,,,,,,,,0,7,7,7,1,last,14,27,F,R,IMT,2021-07-10_14h20.24.309,ImageRatingTask_S2,2021.1.4,MacIntel,59.94125757,,,,,,,,,
,,,,,,,,,,,,,,,,,,14,27,F,R,IMT,2021-07-10_14h20.24.309,ImageRatingTask_S2,2021.1.4,MacIntel,59.94125757,0,42,42,26,1,DreamStudyImages_rs1000x750g/Food/Objects_048_h.jpg,,,
,,4,3.1308,2,0.813,4,2.042,1,3.4735,8,1.1091,0,0,0,0,1,main,14,27,F,R,IMT,2021-07-10_14h20.24.309,ImageRatingTask_S2,2021.1.4,MacIntel,59.94125757,,,,,,,,,
,,,,,,,,,,,,0,1,1,1,1,second,14,27,F,R,IMT,2021-07-10_14h20.24.309,ImageRatingTask_S2,2021.1.4,MacIntel,59.94125757,,,,,,,,,
,,,,,,,,,,,,0,2,2,2,1,third,14,27,F,R,IMT,2021-07-10_14h20.24.309,ImageRatingTask_S2,2021.1.4,MacIntel,59.94125757,,,,,,,,,
,,,,,,,,,,,,0,3,3,3,1,fourth,14,27,F,R,IMT,2021-07-10_14h20.24.309,ImageRatingTask_S2,2021.1.4,MacIntel,59.94125757,,,,,,,,,
,,,,,,,,,,,,0,4,4,4,1,fifth,14,27,F,R,IMT,2021-07-10_14h20.24.309,ImageRatingTask_S2,2021.1.4,MacIntel,59.94125757,,,,,,,,,
,,,,,,,,,,,,0,5,5,5,1,sixth,14,27,F,R,IMT,2021-07-10_14h20.24.309,ImageRatingTask_S2,2021.1.4,MacIntel,59.94125757,,,,,,,,,
,,,,,,,,,,,,0,6,6,6,1,seventh,14,27,F,R,IMT,2021-07-10_14h20.24.309,ImageRatingTask_S2,2021.1.4,MacIntel,59.94125757,,,,,,,,,
,,,,,,,,,,,,0,7,7,7,1,last,14,27,F,R,IMT,2021-07-10_14h20.24.309,ImageRatingTask_S2,2021.1.4,MacIntel,59.94125757,,,,,,,,,
,,,,,,,,,,,,,,,,,,14,27,F,R,IMT,2021-07-10_14h20.24.309,ImageRatingTask_S2,2021.1.4,MacIntel,59.94125757,0,43,43,16,1,DreamStudyImages_rs1000x750g/Water/Flood 2.jpg,,,
,,5,102.1363,1,0.4736,6,3.5562,1,3.4317,6,1.8076,0,0,0,0,1,main,14,27,F,R,IMT,2021-07-10_14h20.24.309,ImageRatingTask_S2,2021.1.4,MacIntel,59.94125757,,,,,,,,,
,,,,,,,,,,,,0,1,1,1,1,second,14,27,F,R,IMT,2021-07-10_14h20.24.309,ImageRatingTask_S2,2021.1.4,MacIntel,59.94125757,,,,,,,,,
,,,,,,,,,,,,0,2,2,2,1,third,14,27,F,R,IMT,2021-07-10_14h20.24.309,ImageRatingTask_S2,2021.1.4,MacIntel,59.94125757,,,,,,,,,
,,,,,,,,,,,,0,3,3,3,1,fourth,14,27,F,R,IMT,2021-07-10_14h20.24.309,ImageRatingTask_S2,2021.1.4,MacIntel,59.94125757,,,,,,,,,
,,,,,,,,,,,,0,4,4,4,1,fifth,14,27,F,R,IMT,2021-07-10_14h20.24.309,ImageRatingTask_S2,2021.1.4,MacIntel,59.94125757,,,,,,,,,
,,,,,,,,,,,,0,5,5,5,1,sixth,14,27,F,R,IMT,2021-07-10_14h20.24.309,ImageRatingTask_S2,2021.1.4,MacIntel,59.94125757,,,,,,,,,
,,,,,,,,,,,,0,6,6,6,1,seventh,14,27,F,R,IMT,2021-07-10_14h20.24.309,ImageRatingTask_S2,2021.1.4,MacIntel,59.94125757,,,,,,,,,
,,,,,,,,,,,,0,7,7,7,1,last,14,27,F,R,IMT,2021-07-10_14h20.24.309,ImageRatingTask_S2,2021.1.4,MacIntel,59.94125757,,,,,,,,,
,,,,,,,,,,,,,,,,,,14,27,F,R,IMT,2021-07-10_14h20.24.309,ImageRatingTask_S2,2021.1.4,MacIntel,59.94125757,0,44,44,88,1,DreamStudyImages_rs1000x750g/Houses/Objects_214_h.jpg,,,
,,4,97.3779,2,3.724,6,2.4594,1,7.1783,8,1.1593,0,0,0,0,1,main,14,27,F,R,IMT,2021-07-10_14h20.24.309,ImageRatingTask_S2,2021.1.4,MacIntel,59.94125757,,,,,,,,,
,,,,,,,,,,,,0,1,1,1,1,second,14,27,F,R,IMT,2021-07-10_14h20.24.309,ImageRatingTask_S2,2021.1.4,MacIntel,59.94125757,,,,,,,,,
,,,,,,,,,,,,0,2,2,2,1,third,14,27,F,R,IMT,2021-07-10_14h20.24.309,ImageRatingTask_S2,2021.1.4,MacIntel,59.94125757,,,,,,,,,
,,,,,,,,,,,,0,3,3,3,1,fourth,14,27,F,R,IMT,2021-07-10_14h20.24.309,ImageRatingTask_S2,2021.1.4,MacIntel,59.94125757,,,,,,,,,
,,,,,,,,,,,,0,4,4,4,1,fifth,14,27,F,R,IMT,2021-07-10_14h20.24.309,ImageRatingTask_S2,2021.1.4,MacIntel,59.94125757,,,,,,,,,
,,,,,,,,,,,,0,5,5,5,1,sixth,14,27,F,R,IMT,2021-07-10_14h20.24.309,ImageRatingTask_S2,2021.1.4,MacIntel,59.94125757,,,,,,,,,
,,,,,,,,,,,,0,6,6,6,1,seventh,14,27,F,R,IMT,2021-07-10_14h20.24.309,ImageRatingTask_S2,2021.1.4,MacIntel,59.94125757,,,,,,,,,
,,,,,,,,,,,,0,7,7,7,1,last,14,27,F,R,IMT,2021-07-10_14h20.24.309,ImageRatingTask_S2,2021.1.4,MacIntel,59.94125757,,,,,,,,,
,,,,,,,,,,,,,,,,,,14,27,F,R,IMT,2021-07-10_14h20.24.309,ImageRatingTask_S2,2021.1.4,MacIntel,59.94125757,0,45,45,7,1,DreamStudyImages_rs1000x750g/Water/Thunderstorm 11.jpg,,,
,,7,5.8934,2,6.0334,6,2.6967,1,5.1462,5,1.1765,0,0,0,0,1,main,14,27,F,R,IMT,2021-07-10_14h20.24.309,ImageRatingTask_S2,2021.1.4,MacIntel,59.94125757,,,,,,,,,
,,,,,,,,,,,,0,1,1,1,1,second,14,27,F,R,IMT,2021-07-10_14h20.24.309,ImageRatingTask_S2,2021.1.4,MacIntel,59.94125757,,,,,,,,,
,,,,,,,,,,,,0,2,2,2,1,third,14,27,F,R,IMT,2021-07-10_14h20.24.309,ImageRatingTask_S2,2021.1.4,MacIntel,59.94125757,,,,,,,,,
,,,,,,,,,,,,0,3,3,3,1,fourth,14,27,F,R,IMT,2021-07-10_14h20.24.309,ImageRatingTask_S2,2021.1.4,MacIntel,59.94125757,,,,,,,,,
,,,,,,,,,,,,0,4,4,4,1,fifth,14,27,F,R,IMT,2021-07-10_14h20.24.309,ImageRatingTask_S2,2021.1.4,MacIntel,59.94125757,,,,,,,,,
,,,,,,,,,,,,0,5,5,5,1,sixth,14,27,F,R,IMT,2021-07-10_14h20.24.309,ImageRatingTask_S2,2021.1.4,MacIntel,59.94125757,,,,,,,,,
,,,,,,,,,,,,0,6,6,6,1,seventh,14,27,F,R,IMT,2021-07-10_14h20.24.309,ImageRatingTask_S2,2021.1.4,MacIntel,59.94125757,,,,,,,,,
,,,,,,,,,,,,0,7,7,7,1,last,14,27,F,R,IMT,2021-07-10_14h20.24.309,ImageRatingTask_S2,2021.1.4,MacIntel,59.94125757,,,,,,,,,
,,,,,,,,,,,,,,,,,,14,27,F,R,IMT,2021-07-10_14h20.24.309,ImageRatingTask_S2,2021.1.4,MacIntel,59.94125757,0,46,46,44,1,DreamStudyImages_rs1000x750g/Food/Birthday 1.jpg,,,
,,5,70.6637,1,1.0689,4,4.0672,1,2.2679,8,1.4057,0,0,0,0,1,main,14,27,F,R,IMT,2021-07-10_14h20.24.309,ImageRatingTask_S2,2021.1.4,MacIntel,59.94125757,,,,,,,,,
,,,,,,,,,,,,0,1,1,1,1,second,14,27,F,R,IMT,2021-07-10_14h20.24.309,ImageRatingTask_S2,2021.1.4,MacIntel,59.94125757,,,,,,,,,
,,,,,,,,,,,,0,2,2,2,1,third,14,27,F,R,IMT,2021-07-10_14h20.24.309,ImageRatingTask_S2,2021.1.4,MacIntel,59.94125757,,,,,,,,,
,,,,,,,,,,,,0,3,3,3,1,fourth,14,27,F,R,IMT,2021-07-10_14h20.24.309,ImageRatingTask_S2,2021.1.4,MacIntel,59.94125757,,,,,,,,,
,,,,,,,,,,,,0,4,4,4,1,fifth,14,27,F,R,IMT,2021-07-10_14h20.24.309,ImageRatingTask_S2,2021.1.4,MacIntel,59.94125757,,,,,,,,,
,,,,,,,,,,,,0,5,5,5,1,sixth,14,27,F,R,IMT,2021-07-10_14h20.24.309,ImageRatingTask_S2,2021.1.4,MacIntel,59.94125757,,,,,,,,,
,,,,,,,,,,,,0,6,6,6,1,seventh,14,27,F,R,IMT,2021-07-10_14h20.24.309,ImageRatingTask_S2,2021.1.4,MacIntel,59.94125757,,,,,,,,,
,,,,,,,,,,,,0,7,7,7,1,last,14,27,F,R,IMT,2021-07-10_14h20.24.309,ImageRatingTask_S2,2021.1.4,MacIntel,59.94125757,,,,,,,,,
,,,,,,,,,,,,,,,,,,14,27,F,R,IMT,2021-07-10_14h20.24.309,ImageRatingTask_S2,2021.1.4,MacIntel,59.94125757,0,47,47,46,1,DreamStudyImages_rs1000x750g/Water/Rainbow 1.jpg,,,
,,5,38.3796,1,35.292,7,2.7936,0,4.2802,,,0,0,0,0,1,main,14,27,F,R,IMT,2021-07-10_14h20.24.309,ImageRatingTask_S2,2021.1.4,MacIntel,59.94125757,,,,,,,,,
,,,,,,,,,,,,0,1,1,1,1,second,14,27,F,R,IMT,2021-07-10_14h20.24.309,ImageRatingTask_S2,2021.1.4,MacIntel,59.94125757,,,,,,,,,
,,,,,,,,,,,,0,2,2,2,1,third,14,27,F,R,IMT,2021-07-10_14h20.24.309,ImageRatingTask_S2,2021.1.4,MacIntel,59.94125757,,,,,,,,,
,,,,,,,,,,,,0,3,3,3,1,fourth,14,27,F,R,IMT,2021-07-10_14h20.24.309,ImageRatingTask_S2,2021.1.4,MacIntel,59.94125757,,,,,,,,,
,,,,,,,,,,,,0,4,4,4,1,fifth,14,27,F,R,IMT,2021-07-10_14h20.24.309,ImageRatingTask_S2,2021.1.4,MacIntel,59.94125757,,,,,,,,,
,,,,,,,,,,,,0,5,5,5,1,sixth,14,27,F,R,IMT,2021-07-10_14h20.24.309,ImageRatingTask_S2,2021.1.4,MacIntel,59.94125757,,,,,,,,,
,,,,,,,,,,,,0,6,6,6,1,seventh,14,27,F,R,IMT,2021-07-10_14h20.24.309,ImageRatingTask_S2,2021.1.4,MacIntel,59.94125757,,,,,,,,,
,,,,,,,,,,,,0,7,7,7,1,last,14,27,F,R,IMT,2021-07-10_14h20.24.309,ImageRatingTask_S2,2021.1.4,MacIntel,59.94125757,,,,,,,,,
,,,,,,,,,,,,,,,,,,14,27,F,R,IMT,2021-07-10_14h20.24.309,ImageRatingTask_S2,2021.1.4,MacIntel,59.94125757,0,48,48,84,1,DreamStudyImages_rs1000x750g/Food/Objects_164_h.jpg,,,
,,5,3.3655,1,1.2199,4,3.534,1,1.3554,8,1.0853,0,0,0,0,1,main,14,27,F,R,IMT,2021-07-10_14h20.24.309,ImageRatingTask_S2,2021.1.4,MacIntel,59.94125757,,,,,,,,,
,,,,,,,,,,,,0,1,1,1,1,second,14,27,F,R,IMT,2021-07-10_14h20.24.309,ImageRatingTask_S2,2021.1.4,MacIntel,59.94125757,,,,,,,,,
,,,,,,,,,,,,0,2,2,2,1,third,14,27,F,R,IMT,2021-07-10_14h20.24.309,ImageRatingTask_S2,2021.1.4,MacIntel,59.94125757,,,,,,,,,
,,,,,,,,,,,,0,3,3,3,1,fourth,14,27,F,R,IMT,2021-07-10_14h20.24.309,ImageRatingTask_S2,2021.1.4,MacIntel,59.94125757,,,,,,,,,
,,,,,,,,,,,,0,4,4,4,1,fifth,14,27,F,R,IMT,2021-07-10_14h20.24.309,ImageRatingTask_S2,2021.1.4,MacIntel,59.94125757,,,,,,,,,
,,,,,,,,,,,,0,5,5,5,1,sixth,14,27,F,R,IMT,2021-07-10_14h20.24.309,ImageRatingTask_S2,2021.1.4,MacIntel,59.94125757,,,,,,,,,
,,,,,,,,,,,,0,6,6,6,1,seventh,14,27,F,R,IMT,2021-07-10_14h20.24.309,ImageRatingTask_S2,2021.1.4,MacIntel,59.94125757,,,,,,,,,
,,,,,,,,,,,,0,7,7,7,1,last,14,27,F,R,IMT,2021-07-10_14h20.24.309,ImageRatingTask_S2,2021.1.4,MacIntel,59.94125757,,,,,,,,,
,,,,,,,,,,,,,,,,,,14,27,F,R,IMT,2021-07-10_14h20.24.309,ImageRatingTask_S2,2021.1.4,MacIntel,59.94125757,0,49,49,155,1,DreamStudyImages_rs1000x750g/Water/IAPS5781_mistylake.jpg,,,
,,6,3.1502,2,2.5977,7,1.7856,1,2.1783,8,1.2946,0,0,0,0,1,main,14,27,F,R,IMT,2021-07-10_14h20.24.309,ImageRatingTask_S2,2021.1.4,MacIntel,59.94125757,,,,,,,,,
,,,,,,,,,,,,0,1,1,1,1,second,14,27,F,R,IMT,2021-07-10_14h20.24.309,ImageRatingTask_S2,2021.1.4,MacIntel,59.94125757,,,,,,,,,
,,,,,,,,,,,,0,2,2,2,1,third,14,27,F,R,IMT,2021-07-10_14h20.24.309,ImageRatingTask_S2,2021.1.4,MacIntel,59.94125757,,,,,,,,,
,,,,,,,,,,,,0,3,3,3,1,fourth,14,27,F,R,IMT,2021-07-10_14h20.24.309,ImageRatingTask_S2,2021.1.4,MacIntel,59.94125757,,,,,,,,,
,,,,,,,,,,,,0,4,4,4,1,fifth,14,27,F,R,IMT,2021-07-10_14h20.24.309,ImageRatingTask_S2,2021.1.4,MacIntel,59.94125757,,,,,,,,,
,,,,,,,,,,,,0,5,5,5,1,sixth,14,27,F,R,IMT,2021-07-10_14h20.24.309,ImageRatingTask_S2,2021.1.4,MacIntel,59.94125757,,,,,,,,,
,,,,,,,,,,,,0,6,6,6,1,seventh,14,27,F,R,IMT,2021-07-10_14h20.24.309,ImageRatingTask_S2,2021.1.4,MacIntel,59.94125757,,,,,,,,,
,,,,,,,,,,,,0,7,7,7,1,last,14,27,F,R,IMT,2021-07-10_14h20.24.309,ImageRatingTask_S2,2021.1.4,MacIntel,59.94125757,,,,,,,,,
,,,,,,,,,,,,,,,,,,14,27,F,R,IMT,2021-07-10_14h20.24.309,ImageRatingTask_S2,2021.1.4,MacIntel,59.94125757,0,50,50,74,1,DreamStudyImages_rs1000x750g/Water/sunsetsea.jpg,,,
,,6,70.7081,1,0.8837,8,1.5984,1,0.9891,8,0.9263,0,0,0,0,1,main,14,27,F,R,IMT,2021-07-10_14h20.24.309,ImageRatingTask_S2,2021.1.4,MacIntel,59.94125757,,,,,,,,,
,,,,,,,,,,,,0,1,1,1,1,second,14,27,F,R,IMT,2021-07-10_14h20.24.309,ImageRatingTask_S2,2021.1.4,MacIntel,59.94125757,,,,,,,,,
,,,,,,,,,,,,0,2,2,2,1,third,14,27,F,R,IMT,2021-07-10_14h20.24.309,ImageRatingTask_S2,2021.1.4,MacIntel,59.94125757,,,,,,,,,
,,,,,,,,,,,,0,3,3,3,1,fourth,14,27,F,R,IMT,2021-07-10_14h20.24.309,ImageRatingTask_S2,2021.1.4,MacIntel,59.94125757,,,,,,,,,
,,,,,,,,,,,,0,4,4,4,1,fifth,14,27,F,R,IMT,2021-07-10_14h20.24.309,ImageRatingTask_S2,2021.1.4,MacIntel,59.94125757,,,,,,,,,
,,,,,,,,,,,,0,5,5,5,1,sixth,14,27,F,R,IMT,2021-07-10_14h20.24.309,ImageRatingTask_S2,2021.1.4,MacIntel,59.94125757,,,,,,,,,
,,,,,,,,,,,,0,6,6,6,1,seventh,14,27,F,R,IMT,2021-07-10_14h20.24.309,ImageRatingTask_S2,2021.1.4,MacIntel,59.94125757,,,,,,,,,
,,,,,,,,,,,,0,7,7,7,1,last,14,27,F,R,IMT,2021-07-10_14h20.24.309,ImageRatingTask_S2,2021.1.4,MacIntel,59.94125757,,,,,,,,,
,,,,,,,,,,,,,,,,,,14,27,F,R,IMT,2021-07-10_14h20.24.309,ImageRatingTask_S2,2021.1.4,MacIntel,59.94125757,0,51,51,136,1,DreamStudyImages_rs1000x750g/Water/lakepontoon_CROPPED.jpg,,,
,,6,3.3682,2,1.7145,5,2.0539,1,1.046,5,1.2427,0,0,0,0,1,main,14,27,F,R,IMT,2021-07-10_14h20.24.309,ImageRatingTask_S2,2021.1.4,MacIntel,59.94125757,,,,,,,,,
,,,,,,,,,,,,0,1,1,1,1,second,14,27,F,R,IMT,2021-07-10_14h20.24.309,ImageRatingTask_S2,2021.1.4,MacIntel,59.94125757,,,,,,,,,
,,,,,,,,,,,,0,2,2,2,1,third,14,27,F,R,IMT,2021-07-10_14h20.24.309,ImageRatingTask_S2,2021.1.4,MacIntel,59.94125757,,,,,,,,,
,,,,,,,,,,,,0,3,3,3,1,fourth,14,27,F,R,IMT,2021-07-10_14h20.24.309,ImageRatingTask_S2,2021.1.4,MacIntel,59.94125757,,,,,,,,,
,,,,,,,,,,,,0,4,4,4,1,fifth,14,27,F,R,IMT,2021-07-10_14h20.24.309,ImageRatingTask_S2,2021.1.4,MacIntel,59.94125757,,,,,,,,,
,,,,,,,,,,,,0,5,5,5,1,sixth,14,27,F,R,IMT,2021-07-10_14h20.24.309,ImageRatingTask_S2,2021.1.4,MacIntel,59.94125757,,,,,,,,,
,,,,,,,,,,,,0,6,6,6,1,seventh,14,27,F,R,IMT,2021-07-10_14h20.24.309,ImageRatingTask_S2,2021.1.4,MacIntel,59.94125757,,,,,,,,,
,,,,,,,,,,,,0,7,7,7,1,last,14,27,F,R,IMT,2021-07-10_14h20.24.309,ImageRatingTask_S2,2021.1.4,MacIntel,59.94125757,,,,,,,,,
,,,,,,,,,,,,,,,,,,14,27,F,R,IMT,2021-07-10_14h20.24.309,ImageRatingTask_S2,2021.1.4,MacIntel,59.94125757,0,52,52,33,1,DreamStudyImages_rs1000x750g/Food/Objects_082_h.jpg,,,
,,6,4.0427,1,0.5268,8,2.4065,1,1.1268,6,1.0563,0,0,0,0,1,main,14,27,F,R,IMT,2021-07-10_14h20.24.309,ImageRatingTask_S2,2021.1.4,MacIntel,59.94125757,,,,,,,,,
,,,,,,,,,,,,0,1,1,1,1,second,14,27,F,R,IMT,2021-07-10_14h20.24.309,ImageRatingTask_S2,2021.1.4,MacIntel,59.94125757,,,,,,,,,
,,,,,,,,,,,,0,2,2,2,1,third,14,27,F,R,IMT,2021-07-10_14h20.24.309,ImageRatingTask_S2,2021.1.4,MacIntel,59.94125757,,,,,,,,,
,,,,,,,,,,,,0,3,3,3,1,fourth,14,27,F,R,IMT,2021-07-10_14h20.24.309,ImageRatingTask_S2,2021.1.4,MacIntel,59.94125757,,,,,,,,,
,,,,,,,,,,,,0,4,4,4,1,fifth,14,27,F,R,IMT,2021-07-10_14h20.24.309,ImageRatingTask_S2,2021.1.4,MacIntel,59.94125757,,,,,,,,,
,,,,,,,,,,,,0,5,5,5,1,sixth,14,27,F,R,IMT,2021-07-10_14h20.24.309,ImageRatingTask_S2,2021.1.4,MacIntel,59.94125757,,,,,,,,,
,,,,,,,,,,,,0,6,6,6,1,seventh,14,27,F,R,IMT,2021-07-10_14h20.24.309,ImageRatingTask_S2,2021.1.4,MacIntel,59.94125757,,,,,,,,,
,,,,,,,,,,,,0,7,7,7,1,last,14,27,F,R,IMT,2021-07-10_14h20.24.309,ImageRatingTask_S2,2021.1.4,MacIntel,59.94125757,,,,,,,,,
,,,,,,,,,,,,,,,,,,14,27,F,R,IMT,2021-07-10_14h20.24.309,ImageRatingTask_S2,2021.1.4,MacIntel,59.94125757,0,53,53,86,1,DreamStudyImages_rs1000x750g/Houses/nicehouse.jpg,,,
,,4,4.8363,2,1.8315,6,1.8354,1,0.9724,6,0.9791,0,0,0,0,1,main,14,27,F,R,IMT,2021-07-10_14h20.24.309,ImageRatingTask_S2,2021.1.4,MacIntel,59.94125757,,,,,,,,,
,,,,,,,,,,,,0,1,1,1,1,second,14,27,F,R,IMT,2021-07-10_14h20.24.309,ImageRatingTask_S2,2021.1.4,MacIntel,59.94125757,,,,,,,,,
,,,,,,,,,,,,0,2,2,2,1,third,14,27,F,R,IMT,2021-07-10_14h20.24.309,ImageRatingTask_S2,2021.1.4,MacIntel,59.94125757,,,,,,,,,
,,,,,,,,,,,,0,3,3,3,1,fourth,14,27,F,R,IMT,2021-07-10_14h20.24.309,ImageRatingTask_S2,2021.1.4,MacIntel,59.94125757,,,,,,,,,
,,,,,,,,,,,,0,4,4,4,1,fifth,14,27,F,R,IMT,2021-07-10_14h20.24.309,ImageRatingTask_S2,2021.1.4,MacIntel,59.94125757,,,,,,,,,
,,,,,,,,,,,,0,5,5,5,1,sixth,14,27,F,R,IMT,2021-07-10_14h20.24.309,ImageRatingTask_S2,2021.1.4,MacIntel,59.94125757,,,,,,,,,
,,,,,,,,,,,,0,6,6,6,1,seventh,14,27,F,R,IMT,2021-07-10_14h20.24.309,ImageRatingTask_S2,2021.1.4,MacIntel,59.94125757,,,,,,,,,
,,,,,,,,,,,,0,7,7,7,1,last,14,27,F,R,IMT,2021-07-10_14h20.24.309,ImageRatingTask_S2,2021.1.4,MacIntel,59.94125757,,,,,,,,,
,,,,,,,,,,,,,,,,,,14,27,F,R,IMT,2021-07-10_14h20.24.309,ImageRatingTask_S2,2021.1.4,MacIntel,59.94125757,0,54,54,41,1,DreamStudyImages_rs1000x750g/Houses/Landscapes_067_h.jpg,,,
,,6,2.5444,1,0.3801,4,1.8368,1,0.8457,2,0.9239,0,0,0,0,1,main,14,27,F,R,IMT,2021-07-10_14h20.24.309,ImageRatingTask_S2,2021.1.4,MacIntel,59.94125757,,,,,,,,,
,,,,,,,,,,,,0,1,1,1,1,second,14,27,F,R,IMT,2021-07-10_14h20.24.309,ImageRatingTask_S2,2021.1.4,MacIntel,59.94125757,,,,,,,,,
,,,,,,,,,,,,0,2,2,2,1,third,14,27,F,R,IMT,2021-07-10_14h20.24.309,ImageRatingTask_S2,2021.1.4,MacIntel,59.94125757,,,,,,,,,
,,,,,,,,,,,,0,3,3,3,1,fourth,14,27,F,R,IMT,2021-07-10_14h20.24.309,ImageRatingTask_S2,2021.1.4,MacIntel,59.94125757,,,,,,,,,
,,,,,,,,,,,,0,4,4,4,1,fifth,14,27,F,R,IMT,2021-07-10_14h20.24.309,ImageRatingTask_S2,2021.1.4,MacIntel,59.94125757,,,,,,,,,
,,,,,,,,,,,,0,5,5,5,1,sixth,14,27,F,R,IMT,2021-07-10_14h20.24.309,ImageRatingTask_S2,2021.1.4,MacIntel,59.94125757,,,,,,,,,
,,,,,,,,,,,,0,6,6,6,1,seventh,14,27,F,R,IMT,2021-07-10_14h20.24.309,ImageRatingTask_S2,2021.1.4,MacIntel,59.94125757,,,,,,,,,
,,,,,,,,,,,,0,7,7,7,1,last,14,27,F,R,IMT,2021-07-10_14h20.24.309,ImageRatingTask_S2,2021.1.4,MacIntel,59.94125757,,,,,,,,,
,,,,,,,,,,,,,,,,,,14,27,F,R,IMT,2021-07-10_14h20.24.309,ImageRatingTask_S2,2021.1.4,MacIntel,59.94125757,0,55,55,29,1,DreamStudyImages_rs1000x750g/Children/2071.jpg,,,
,,5,2.3002,1,0.3879,5,3.1077,1,0.7631,2,0.7962,0,0,0,0,1,main,14,27,F,R,IMT,2021-07-10_14h20.24.309,ImageRatingTask_S2,2021.1.4,MacIntel,59.94125757,,,,,,,,,
,,,,,,,,,,,,0,1,1,1,1,second,14,27,F,R,IMT,2021-07-10_14h20.24.309,ImageRatingTask_S2,2021.1.4,MacIntel,59.94125757,,,,,,,,,
,,,,,,,,,,,,0,2,2,2,1,third,14,27,F,R,IMT,2021-07-10_14h20.24.309,ImageRatingTask_S2,2021.1.4,MacIntel,59.94125757,,,,,,,,,
,,,,,,,,,,,,0,3,3,3,1,fourth,14,27,F,R,IMT,2021-07-10_14h20.24.309,ImageRatingTask_S2,2021.1.4,MacIntel,59.94125757,,,,,,,,,
,,,,,,,,,,,,0,4,4,4,1,fifth,14,27,F,R,IMT,2021-07-10_14h20.24.309,ImageRatingTask_S2,2021.1.4,MacIntel,59.94125757,,,,,,,,,
,,,,,,,,,,,,0,5,5,5,1,sixth,14,27,F,R,IMT,2021-07-10_14h20.24.309,ImageRatingTask_S2,2021.1.4,MacIntel,59.94125757,,,,,,,,,
,,,,,,,,,,,,0,6,6,6,1,seventh,14,27,F,R,IMT,2021-07-10_14h20.24.309,ImageRatingTask_S2,2021.1.4,MacIntel,59.94125757,,,,,,,,,
,,,,,,,,,,,,0,7,7,7,1,last,14,27,F,R,IMT,2021-07-10_14h20.24.309,ImageRatingTask_S2,2021.1.4,MacIntel,59.94125757,,,,,,,,,
,,,,,,,,,,,,,,,,,,14,27,F,R,IMT,2021-07-10_14h20.24.309,ImageRatingTask_S2,2021.1.4,MacIntel,59.94125757,0,56,56,80,1,DreamStudyImages_rs1000x750g/Children/Faces_069_h.jpg,,,
,,6,2.2315,2,1.0879,4,1.7101,1,0.7377,6,2.0358,0,0,0,0,1,main,14,27,F,R,IMT,2021-07-10_14h20.24.309,ImageRatingTask_S2,2021.1.4,MacIntel,59.94125757,,,,,,,,,
,,,,,,,,,,,,0,1,1,1,1,second,14,27,F,R,IMT,2021-07-10_14h20.24.309,ImageRatingTask_S2,2021.1.4,MacIntel,59.94125757,,,,,,,,,
,,,,,,,,,,,,0,2,2,2,1,third,14,27,F,R,IMT,2021-07-10_14h20.24.309,ImageRatingTask_S2,2021.1.4,MacIntel,59.94125757,,,,,,,,,
,,,,,,,,,,,,0,3,3,3,1,fourth,14,27,F,R,IMT,2021-07-10_14h20.24.309,ImageRatingTask_S2,2021.1.4,MacIntel,59.94125757,,,,,,,,,
,,,,,,,,,,,,0,4,4,4,1,fifth,14,27,F,R,IMT,2021-07-10_14h20.24.309,ImageRatingTask_S2,2021.1.4,MacIntel,59.94125757,,,,,,,,,
,,,,,,,,,,,,0,5,5,5,1,sixth,14,27,F,R,IMT,2021-07-10_14h20.24.309,ImageRatingTask_S2,2021.1.4,MacIntel,59.94125757,,,,,,,,,
,,,,,,,,,,,,0,6,6,6,1,seventh,14,27,F,R,IMT,2021-07-10_14h20.24.309,ImageRatingTask_S2,2021.1.4,MacIntel,59.94125757,,,,,,,,,
,,,,,,,,,,,,0,7,7,7,1,last,14,27,F,R,IMT,2021-07-10_14h20.24.309,ImageRatingTask_S2,2021.1.4,MacIntel,59.94125757,,,,,,,,,
,,,,,,,,,,,,,,,,,,14,27,F,R,IMT,2021-07-10_14h20.24.309,ImageRatingTask_S2,2021.1.4,MacIntel,59.94125757,0,57,57,25,1,DreamStudyImages_rs1000x750g/Houses/IAPS5779_house3.jpg,,,
,,6,104.5482,1,1.66,6,2.1017,1,1.4236,8,1.2167,0,0,0,0,1,main,14,27,F,R,IMT,2021-07-10_14h20.24.309,ImageRatingTask_S2,2021.1.4,MacIntel,59.94125757,,,,,,,,,
,,,,,,,,,,,,0,1,1,1,1,second,14,27,F,R,IMT,2021-07-10_14h20.24.309,ImageRatingTask_S2,2021.1.4,MacIntel,59.94125757,,,,,,,,,
,,,,,,,,,,,,0,2,2,2,1,third,14,27,F,R,IMT,2021-07-10_14h20.24.309,ImageRatingTask_S2,2021.1.4,MacIntel,59.94125757,,,,,,,,,
,,,,,,,,,,,,0,3,3,3,1,fourth,14,27,F,R,IMT,2021-07-10_14h20.24.309,ImageRatingTask_S2,2021.1.4,MacIntel,59.94125757,,,,,,,,,
,,,,,,,,,,,,0,4,4,4,1,fifth,14,27,F,R,IMT,2021-07-10_14h20.24.309,ImageRatingTask_S2,2021.1.4,MacIntel,59.94125757,,,,,,,,,
,,,,,,,,,,,,0,5,5,5,1,sixth,14,27,F,R,IMT,2021-07-10_14h20.24.309,ImageRatingTask_S2,2021.1.4,MacIntel,59.94125757,,,,,,,,,
,,,,,,,,,,,,0,6,6,6,1,seventh,14,27,F,R,IMT,2021-07-10_14h20.24.309,ImageRatingTask_S2,2021.1.4,MacIntel,59.94125757,,,,,,,,,
,,,,,,,,,,,,0,7,7,7,1,last,14,27,F,R,IMT,2021-07-10_14h20.24.309,ImageRatingTask_S2,2021.1.4,MacIntel,59.94125757,,,,,,,,,
,,,,,,,,,,,,,,,,,,14,27,F,R,IMT,2021-07-10_14h20.24.309,ImageRatingTask_S2,2021.1.4,MacIntel,59.94125757,0,58,58,126,1,DreamStudyImages_rs1000x750g/Water/5833.jpg,,,
,,1,7.6667,6,2.2223,6,4.5594,0,2.8243,,,0,0,0,0,1,main,14,27,F,R,IMT,2021-07-10_14h20.24.309,ImageRatingTask_S2,2021.1.4,MacIntel,59.94125757,,,,,,,,,
,,,,,,,,,,,,0,1,1,1,1,second,14,27,F,R,IMT,2021-07-10_14h20.24.309,ImageRatingTask_S2,2021.1.4,MacIntel,59.94125757,,,,,,,,,
,,,,,,,,,,,,0,2,2,2,1,third,14,27,F,R,IMT,2021-07-10_14h20.24.309,ImageRatingTask_S2,2021.1.4,MacIntel,59.94125757,,,,,,,,,
,,,,,,,,,,,,0,3,3,3,1,fourth,14,27,F,R,IMT,2021-07-10_14h20.24.309,ImageRatingTask_S2,2021.1.4,MacIntel,59.94125757,,,,,,,,,
,,,,,,,,,,,,0,4,4,4,1,fifth,14,27,F,R,IMT,2021-07-10_14h20.24.309,ImageRatingTask_S2,2021.1.4,MacIntel,59.94125757,,,,,,,,,
,,,,,,,,,,,,0,5,5,5,1,sixth,14,27,F,R,IMT,2021-07-10_14h20.24.309,ImageRatingTask_S2,2021.1.4,MacIntel,59.94125757,,,,,,,,,
,,,,,,,,,,,,0,6,6,6,1,seventh,14,27,F,R,IMT,2021-07-10_14h20.24.309,ImageRatingTask_S2,2021.1.4,MacIntel,59.94125757,,,,,,,,,
,,,,,,,,,,,,0,7,7,7,1,last,14,27,F,R,IMT,2021-07-10_14h20.24.309,ImageRatingTask_S2,2021.1.4,MacIntel,59.94125757,,,,,,,,,
,,,,,,,,,,,,,,,,,,14,27,F,R,IMT,2021-07-10_14h20.24.309,ImageRatingTask_S2,2021.1.4,MacIntel,59.94125757,0,59,59,111,1,DreamStudyImages_rs1000x750g/Food/Objects_022_h.jpg,,,
,,5,5.3959,1,0.7987,6,1.3379,1,2.5611,7,1.1917,0,0,0,0,1,main,14,27,F,R,IMT,2021-07-10_14h20.24.309,ImageRatingTask_S2,2021.1.4,MacIntel,59.94125757,,,,,,,,,
,,,,,,,,,,,,0,1,1,1,1,second,14,27,F,R,IMT,2021-07-10_14h20.24.309,ImageRatingTask_S2,2021.1.4,MacIntel,59.94125757,,,,,,,,,
,,,,,,,,,,,,0,2,2,2,1,third,14,27,F,R,IMT,2021-07-10_14h20.24.309,ImageRatingTask_S2,2021.1.4,MacIntel,59.94125757,,,,,,,,,
,,,,,,,,,,,,0,3,3,3,1,fourth,14,27,F,R,IMT,2021-07-10_14h20.24.309,ImageRatingTask_S2,2021.1.4,MacIntel,59.94125757,,,,,,,,,
,,,,,,,,,,,,0,4,4,4,1,fifth,14,27,F,R,IMT,2021-07-10_14h20.24.309,ImageRatingTask_S2,2021.1.4,MacIntel,59.94125757,,,,,,,,,
,,,,,,,,,,,,0,5,5,5,1,sixth,14,27,F,R,IMT,2021-07-10_14h20.24.309,ImageRatingTask_S2,2021.1.4,MacIntel,59.94125757,,,,,,,,,
,,,,,,,,,,,,0,6,6,6,1,seventh,14,27,F,R,IMT,2021-07-10_14h20.24.309,ImageRatingTask_S2,2021.1.4,MacIntel,59.94125757,,,,,,,,,
,,,,,,,,,,,,0,7,7,7,1,last,14,27,F,R,IMT,2021-07-10_14h20.24.309,ImageRatingTask_S2,2021.1.4,MacIntel,59.94125757,,,,,,,,,
,,,,,,,,,,,,,,,,,,14,27,F,R,IMT,2021-07-10_14h20.24.309,ImageRatingTask_S2,2021.1.4,MacIntel,59.94125757,0,60,60,89,1,DreamStudyImages_rs1000x750g/Vehicles/Objects_314_h.jpg,,,
,,5,124.7678,1,6.8165,5,1.8546,1,1.4633,6,1.0313,0,0,0,0,1,main,14,27,F,R,IMT,2021-07-10_14h20.24.309,ImageRatingTask_S2,2021.1.4,MacIntel,59.94125757,,,,,,,,,
,,,,,,,,,,,,0,1,1,1,1,second,14,27,F,R,IMT,2021-07-10_14h20.24.309,ImageRatingTask_S2,2021.1.4,MacIntel,59.94125757,,,,,,,,,
,,,,,,,,,,,,0,2,2,2,1,third,14,27,F,R,IMT,2021-07-10_14h20.24.309,ImageRatingTask_S2,2021.1.4,MacIntel,59.94125757,,,,,,,,,
,,,,,,,,,,,,0,3,3,3,1,fourth,14,27,F,R,IMT,2021-07-10_14h20.24.309,ImageRatingTask_S2,2021.1.4,MacIntel,59.94125757,,,,,,,,,
,,,,,,,,,,,,0,4,4,4,1,fifth,14,27,F,R,IMT,2021-07-10_14h20.24.309,ImageRatingTask_S2,2021.1.4,MacIntel,59.94125757,,,,,,,,,
,,,,,,,,,,,,0,5,5,5,1,sixth,14,27,F,R,IMT,2021-07-10_14h20.24.309,ImageRatingTask_S2,2021.1.4,MacIntel,59.94125757,,,,,,,,,
,,,,,,,,,,,,0,6,6,6,1,seventh,14,27,F,R,IMT,2021-07-10_14h20.24.309,ImageRatingTask_S2,2021.1.4,MacIntel,59.94125757,,,,,,,,,
,,,,,,,,,,,,0,7,7,7,1,last,14,27,F,R,IMT,2021-07-10_14h20.24.309,ImageRatingTask_S2,2021.1.4,MacIntel,59.94125757,,,,,,,,,
,,,,,,,,,,,,,,,,,,14,27,F,R,IMT,2021-07-10_14h20.24.309,ImageRatingTask_S2,2021.1.4,MacIntel,59.94125757,0,61,61,137,1,DreamStudyImages_rs1000x750g/Houses/NDPS61_houses5.jpg,,,
,,5,23.4903,1,1.4165,5,4.4258,1,1.0806,6,1.3778,0,0,0,0,1,main,14,27,F,R,IMT,2021-07-10_14h20.24.309,ImageRatingTask_S2,2021.1.4,MacIntel,59.94125757,,,,,,,,,
,,,,,,,,,,,,0,1,1,1,1,second,14,27,F,R,IMT,2021-07-10_14h20.24.309,ImageRatingTask_S2,2021.1.4,MacIntel,59.94125757,,,,,,,,,
,,,,,,,,,,,,0,2,2,2,1,third,14,27,F,R,IMT,2021-07-10_14h20.24.309,ImageRatingTask_S2,2021.1.4,MacIntel,59.94125757,,,,,,,,,
,,,,,,,,,,,,0,3,3,3,1,fourth,14,27,F,R,IMT,2021-07-10_14h20.24.309,ImageRatingTask_S2,2021.1.4,MacIntel,59.94125757,,,,,,,,,
,,,,,,,,,,,,0,4,4,4,1,fifth,14,27,F,R,IMT,2021-07-10_14h20.24.309,ImageRatingTask_S2,2021.1.4,MacIntel,59.94125757,,,,,,,,,
,,,,,,,,,,,,0,5,5,5,1,sixth,14,27,F,R,IMT,2021-07-10_14h20.24.309,ImageRatingTask_S2,2021.1.4,MacIntel,59.94125757,,,,,,,,,
,,,,,,,,,,,,0,6,6,6,1,seventh,14,27,F,R,IMT,2021-07-10_14h20.24.309,ImageRatingTask_S2,2021.1.4,MacIntel,59.94125757,,,,,,,,,
,,,,,,,,,,,,0,7,7,7,1,last,14,27,F,R,IMT,2021-07-10_14h20.24.309,ImageRatingTask_S2,2021.1.4,MacIntel,59.94125757,,,,,,,,,
,,,,,,,,,,,,,,,,,,14,27,F,R,IMT,2021-07-10_14h20.24.309,ImageRatingTask_S2,2021.1.4,MacIntel,59.94125757,0,62,62,78,1,DreamStudyImages_rs1000x750g/Houses/Objects_210_h.jpg,,,
,,4,98.0128,1,2.9864,7,12.1954,1,150.6519,5,1.2026,0,0,0,0,1,main,14,27,F,R,IMT,2021-07-10_14h20.24.309,ImageRatingTask_S2,2021.1.4,MacIntel,59.94125757,,,,,,,,,
,,,,,,,,,,,,0,1,1,1,1,second,14,27,F,R,IMT,2021-07-10_14h20.24.309,ImageRatingTask_S2,2021.1.4,MacIntel,59.94125757,,,,,,,,,
,,,,,,,,,,,,0,2,2,2,1,third,14,27,F,R,IMT,2021-07-10_14h20.24.309,ImageRatingTask_S2,2021.1.4,MacIntel,59.94125757,,,,,,,,,
,,,,,,,,,,,,0,3,3,3,1,fourth,14,27,F,R,IMT,2021-07-10_14h20.24.309,ImageRatingTask_S2,2021.1.4,MacIntel,59.94125757,,,,,,,,,
,,,,,,,,,,,,0,4,4,4,1,fifth,14,27,F,R,IMT,2021-07-10_14h20.24.309,ImageRatingTask_S2,2021.1.4,MacIntel,59.94125757,,,,,,,,,
,,,,,,,,,,,,0,5,5,5,1,sixth,14,27,F,R,IMT,2021-07-10_14h20.24.309,ImageRatingTask_S2,2021.1.4,MacIntel,59.94125757,,,,,,,,,
,,,,,,,,,,,,0,6,6,6,1,seventh,14,27,F,R,IMT,2021-07-10_14h20.24.309,ImageRatingTask_S2,2021.1.4,MacIntel,59.94125757,,,,,,,,,
,,,,,,,,,,,,0,7,7,7,1,last,14,27,F,R,IMT,2021-07-10_14h20.24.309,ImageRatingTask_S2,2021.1.4,MacIntel,59.94125757,,,,,,,,,
,,,,,,,,,,,,,,,,,,14,27,F,R,IMT,2021-07-10_14h20.24.309,ImageRatingTask_S2,2021.1.4,MacIntel,59.94125757,0,63,63,131,1,DreamStudyImages_rs1000x750g/Food/Objects_031_h.jpg,,,
,,5,16.1388,1,6.9476,5,3.6779,1,1.9799,5,1.1606,0,0,0,0,1,main,14,27,F,R,IMT,2021-07-10_14h20.24.309,ImageRatingTask_S2,2021.1.4,MacIntel,59.94125757,,,,,,,,,
,,,,,,,,,,,,0,1,1,1,1,second,14,27,F,R,IMT,2021-07-10_14h20.24.309,ImageRatingTask_S2,2021.1.4,MacIntel,59.94125757,,,,,,,,,
,,,,,,,,,,,,0,2,2,2,1,third,14,27,F,R,IMT,2021-07-10_14h20.24.309,ImageRatingTask_S2,2021.1.4,MacIntel,59.94125757,,,,,,,,,
,,,,,,,,,,,,0,3,3,3,1,fourth,14,27,F,R,IMT,2021-07-10_14h20.24.309,ImageRatingTask_S2,2021.1.4,MacIntel,59.94125757,,,,,,,,,
,,,,,,,,,,,,0,4,4,4,1,fifth,14,27,F,R,IMT,2021-07-10_14h20.24.309,ImageRatingTask_S2,2021.1.4,MacIntel,59.94125757,,,,,,,,,
,,,,,,,,,,,,0,5,5,5,1,sixth,14,27,F,R,IMT,2021-07-10_14h20.24.309,ImageRatingTask_S2,2021.1.4,MacIntel,59.94125757,,,,,,,,,
,,,,,,,,,,,,0,6,6,6,1,seventh,14,27,F,R,IMT,2021-07-10_14h20.24.309,ImageRatingTask_S2,2021.1.4,MacIntel,59.94125757,,,,,,,,,
,,,,,,,,,,,,0,7,7,7,1,last,14,27,F,R,IMT,2021-07-10_14h20.24.309,ImageRatingTask_S2,2021.1.4,MacIntel,59.94125757,,,,,,,,,
,,,,,,,,,,,,,,,,,,14,27,F,R,IMT,2021-07-10_14h20.24.309,ImageRatingTask_S2,2021.1.4,MacIntel,59.94125757,0,64,64,117,1,DreamStudyImages_rs1000x750g/Food/Objects_038_v.jpg,,,
,,6,3.8285,3,59.9401,8,2.0395,1,17.0735,2,0.9899,0,0,0,0,1,main,14,27,F,R,IMT,2021-07-10_14h20.24.309,ImageRatingTask_S2,2021.1.4,MacIntel,59.94125757,,,,,,,,,
,,,,,,,,,,,,0,1,1,1,1,second,14,27,F,R,IMT,2021-07-10_14h20.24.309,ImageRatingTask_S2,2021.1.4,MacIntel,59.94125757,,,,,,,,,
,,,,,,,,,,,,0,2,2,2,1,third,14,27,F,R,IMT,2021-07-10_14h20.24.309,ImageRatingTask_S2,2021.1.4,MacIntel,59.94125757,,,,,,,,,
,,,,,,,,,,,,0,3,3,3,1,fourth,14,27,F,R,IMT,2021-07-10_14h20.24.309,ImageRatingTask_S2,2021.1.4,MacIntel,59.94125757,,,,,,,,,
,,,,,,,,,,,,0,4,4,4,1,fifth,14,27,F,R,IMT,2021-07-10_14h20.24.309,ImageRatingTask_S2,2021.1.4,MacIntel,59.94125757,,,,,,,,,
,,,,,,,,,,,,0,5,5,5,1,sixth,14,27,F,R,IMT,2021-07-10_14h20.24.309,ImageRatingTask_S2,2021.1.4,MacIntel,59.94125757,,,,,,,,,
,,,,,,,,,,,,0,6,6,6,1,seventh,14,27,F,R,IMT,2021-07-10_14h20.24.309,ImageRatingTask_S2,2021.1.4,MacIntel,59.94125757,,,,,,,,,
,,,,,,,,,,,,0,7,7,7,1,last,14,27,F,R,IMT,2021-07-10_14h20.24.309,ImageRatingTask_S2,2021.1.4,MacIntel,59.94125757,,,,,,,,,
,,,,,,,,,,,,,,,,,,14,27,F,R,IMT,2021-07-10_14h20.24.309,ImageRatingTask_S2,2021.1.4,MacIntel,59.94125757,0,65,65,109,1,DreamStudyImages_rs1000x750g/Children/Faces_062_v.jpg,,,
,,1,36.7472,5,3.1292,7,3.5022,1,4.1186,3,1.1607,0,0,0,0,1,main,14,27,F,R,IMT,2021-07-10_14h20.24.309,ImageRatingTask_S2,2021.1.4,MacIntel,59.94125757,,,,,,,,,
,,,,,,,,,,,,0,1,1,1,1,second,14,27,F,R,IMT,2021-07-10_14h20.24.309,ImageRatingTask_S2,2021.1.4,MacIntel,59.94125757,,,,,,,,,
,,,,,,,,,,,,0,2,2,2,1,third,14,27,F,R,IMT,2021-07-10_14h20.24.309,ImageRatingTask_S2,2021.1.4,MacIntel,59.94125757,,,,,,,,,
,,,,,,,,,,,,0,3,3,3,1,fourth,14,27,F,R,IMT,2021-07-10_14h20.24.309,ImageRatingTask_S2,2021.1.4,MacIntel,59.94125757,,,,,,,,,
,,,,,,,,,,,,0,4,4,4,1,fifth,14,27,F,R,IMT,2021-07-10_14h20.24.309,ImageRatingTask_S2,2021.1.4,MacIntel,59.94125757,,,,,,,,,
,,,,,,,,,,,,0,5,5,5,1,sixth,14,27,F,R,IMT,2021-07-10_14h20.24.309,ImageRatingTask_S2,2021.1.4,MacIntel,59.94125757,,,,,,,,,
,,,,,,,,,,,,0,6,6,6,1,seventh,14,27,F,R,IMT,2021-07-10_14h20.24.309,ImageRatingTask_S2,2021.1.4,MacIntel,59.94125757,,,,,,,,,
,,,,,,,,,,,,0,7,7,7,1,last,14,27,F,R,IMT,2021-07-10_14h20.24.309,ImageRatingTask_S2,2021.1.4,MacIntel,59.94125757,,,,,,,,,
,,,,,,,,,,,,,,,,,,14,27,F,R,IMT,2021-07-10_14h20.24.309,ImageRatingTask_S2,2021.1.4,MacIntel,59.94125757,0,66,66,125,1,DreamStudyImages_rs1000x750g/Mammals/Animals_110_h.jpg,,,
,,5,4.166,1,2.6877,8,6.1757,1,1.9352,7,1.0068,0,0,0,0,1,main,14,27,F,R,IMT,2021-07-10_14h20.24.309,ImageRatingTask_S2,2021.1.4,MacIntel,59.94125757,,,,,,,,,
,,,,,,,,,,,,0,1,1,1,1,second,14,27,F,R,IMT,2021-07-10_14h20.24.309,ImageRatingTask_S2,2021.1.4,MacIntel,59.94125757,,,,,,,,,
,,,,,,,,,,,,0,2,2,2,1,third,14,27,F,R,IMT,2021-07-10_14h20.24.309,ImageRatingTask_S2,2021.1.4,MacIntel,59.94125757,,,,,,,,,
,,,,,,,,,,,,0,3,3,3,1,fourth,14,27,F,R,IMT,2021-07-10_14h20.24.309,ImageRatingTask_S2,2021.1.4,MacIntel,59.94125757,,,,,,,,,
,,,,,,,,,,,,0,4,4,4,1,fifth,14,27,F,R,IMT,2021-07-10_14h20.24.309,ImageRatingTask_S2,2021.1.4,MacIntel,59.94125757,,,,,,,,,
,,,,,,,,,,,,0,5,5,5,1,sixth,14,27,F,R,IMT,2021-07-10_14h20.24.309,ImageRatingTask_S2,2021.1.4,MacIntel,59.94125757,,,,,,,,,
,,,,,,,,,,,,0,6,6,6,1,seventh,14,27,F,R,IMT,2021-07-10_14h20.24.309,ImageRatingTask_S2,2021.1.4,MacIntel,59.94125757,,,,,,,,,
,,,,,,,,,,,,0,7,7,7,1,last,14,27,F,R,IMT,2021-07-10_14h20.24.309,ImageRatingTask_S2,2021.1.4,MacIntel,59.94125757,,,,,,,,,
,,,,,,,,,,,,,,,,,,14,27,F,R,IMT,2021-07-10_14h20.24.309,ImageRatingTask_S2,2021.1.4,MacIntel,59.94125757,0,67,67,97,1,DreamStudyImages_rs1000x750g/Vehicles/redtricycle.jpg,,,
,,1,2.9905,5,10.6228,7,3.2052,1,7.4539,5,1.4223,0,0,0,0,1,main,14,27,F,R,IMT,2021-07-10_14h20.24.309,ImageRatingTask_S2,2021.1.4,MacIntel,59.94125757,,,,,,,,,
,,,,,,,,,,,,0,1,1,1,1,second,14,27,F,R,IMT,2021-07-10_14h20.24.309,ImageRatingTask_S2,2021.1.4,MacIntel,59.94125757,,,,,,,,,
,,,,,,,,,,,,0,2,2,2,1,third,14,27,F,R,IMT,2021-07-10_14h20.24.309,ImageRatingTask_S2,2021.1.4,MacIntel,59.94125757,,,,,,,,,
,,,,,,,,,,,,0,3,3,3,1,fourth,14,27,F,R,IMT,2021-07-10_14h20.24.309,ImageRatingTask_S2,2021.1.4,MacIntel,59.94125757,,,,,,,,,
,,,,,,,,,,,,0,4,4,4,1,fifth,14,27,F,R,IMT,2021-07-10_14h20.24.309,ImageRatingTask_S2,2021.1.4,MacIntel,59.94125757,,,,,,,,,
,,,,,,,,,,,,0,5,5,5,1,sixth,14,27,F,R,IMT,2021-07-10_14h20.24.309,ImageRatingTask_S2,2021.1.4,MacIntel,59.94125757,,,,,,,,,
,,,,,,,,,,,,0,6,6,6,1,seventh,14,27,F,R,IMT,2021-07-10_14h20.24.309,ImageRatingTask_S2,2021.1.4,MacIntel,59.94125757,,,,,,,,,
,,,,,,,,,,,,0,7,7,7,1,last,14,27,F,R,IMT,2021-07-10_14h20.24.309,ImageRatingTask_S2,2021.1.4,MacIntel,59.94125757,,,,,,,,,
,,,,,,,,,,,,,,,,,,14,27,F,R,IMT,2021-07-10_14h20.24.309,ImageRatingTask_S2,2021.1.4,MacIntel,59.94125757,0,68,68,143,1,DreamStudyImages_rs1000x750g/Food/food_neg.jpg,,,
,,6,29.4982,1,1.2215,3,5.1651,1,2.189,7,2.3269,0,0,0,0,1,main,14,27,F,R,IMT,2021-07-10_14h20.24.309,ImageRatingTask_S2,2021.1.4,MacIntel,59.94125757,,,,,,,,,
,,,,,,,,,,,,0,1,1,1,1,second,14,27,F,R,IMT,2021-07-10_14h20.24.309,ImageRatingTask_S2,2021.1.4,MacIntel,59.94125757,,,,,,,,,
,,,,,,,,,,,,0,2,2,2,1,third,14,27,F,R,IMT,2021-07-10_14h20.24.309,ImageRatingTask_S2,2021.1.4,MacIntel,59.94125757,,,,,,,,,
,,,,,,,,,,,,0,3,3,3,1,fourth,14,27,F,R,IMT,2021-07-10_14h20.24.309,ImageRatingTask_S2,2021.1.4,MacIntel,59.94125757,,,,,,,,,
,,,,,,,,,,,,0,4,4,4,1,fifth,14,27,F,R,IMT,2021-07-10_14h20.24.309,ImageRatingTask_S2,2021.1.4,MacIntel,59.94125757,,,,,,,,,
,,,,,,,,,,,,0,5,5,5,1,sixth,14,27,F,R,IMT,2021-07-10_14h20.24.309,ImageRatingTask_S2,2021.1.4,MacIntel,59.94125757,,,,,,,,,
,,,,,,,,,,,,0,6,6,6,1,seventh,14,27,F,R,IMT,2021-07-10_14h20.24.309,ImageRatingTask_S2,2021.1.4,MacIntel,59.94125757,,,,,,,,,
,,,,,,,,,,,,0,7,7,7,1,last,14,27,F,R,IMT,2021-07-10_14h20.24.309,ImageRatingTask_S2,2021.1.4,MacIntel,59.94125757,,,,,,,,,
,,,,,,,,,,,,,,,,,,14,27,F,R,IMT,2021-07-10_14h20.24.309,ImageRatingTask_S2,2021.1.4,MacIntel,59.94125757,0,69,69,0,1,DreamStudyImages_rs1000x750g/Vehicles/Road 1.jpg,,,
,,6,5.8808,2,5.0496,8,5.431,2,2.3319,2,1.5005,0,0,0,0,1,main,14,27,F,R,IMT,2021-07-10_14h20.24.309,ImageRatingTask_S2,2021.1.4,MacIntel,59.94125757,,,,,,,,,
,,,,,,,,,,1,0.9015,0,1,1,1,1,second,14,27,F,R,IMT,2021-07-10_14h20.24.309,ImageRatingTask_S2,2021.1.4,MacIntel,59.94125757,,,,,,,,,
,,,,,,,,,,,,0,2,2,2,1,third,14,27,F,R,IMT,2021-07-10_14h20.24.309,ImageRatingTask_S2,2021.1.4,MacIntel,59.94125757,,,,,,,,,
,,,,,,,,,,,,0,3,3,3,1,fourth,14,27,F,R,IMT,2021-07-10_14h20.24.309,ImageRatingTask_S2,2021.1.4,MacIntel,59.94125757,,,,,,,,,
,,,,,,,,,,,,0,4,4,4,1,fifth,14,27,F,R,IMT,2021-07-10_14h20.24.309,ImageRatingTask_S2,2021.1.4,MacIntel,59.94125757,,,,,,,,,
,,,,,,,,,,,,0,5,5,5,1,sixth,14,27,F,R,IMT,2021-07-10_14h20.24.309,ImageRatingTask_S2,2021.1.4,MacIntel,59.94125757,,,,,,,,,
,,,,,,,,,,,,0,6,6,6,1,seventh,14,27,F,R,IMT,2021-07-10_14h20.24.309,ImageRatingTask_S2,2021.1.4,MacIntel,59.94125757,,,,,,,,,
,,,,,,,,,,,,0,7,7,7,1,last,14,27,F,R,IMT,2021-07-10_14h20.24.309,ImageRatingTask_S2,2021.1.4,MacIntel,59.94125757,,,,,,,,,
,,,,,,,,,,,,,,,,,,14,27,F,R,IMT,2021-07-10_14h20.24.309,ImageRatingTask_S2,2021.1.4,MacIntel,59.94125757,0,70,70,31,1,DreamStudyImages_rs1000x750g/Children/IAPS2057_baby5.jpg,,,
,,7,2.8328,3,2.3359,7,17.2015,1,101.6188,5,1.1813,0,0,0,0,1,main,14,27,F,R,IMT,2021-07-10_14h20.24.309,ImageRatingTask_S2,2021.1.4,MacIntel,59.94125757,,,,,,,,,
,,,,,,,,,,,,0,1,1,1,1,second,14,27,F,R,IMT,2021-07-10_14h20.24.309,ImageRatingTask_S2,2021.1.4,MacIntel,59.94125757,,,,,,,,,
,,,,,,,,,,,,0,2,2,2,1,third,14,27,F,R,IMT,2021-07-10_14h20.24.309,ImageRatingTask_S2,2021.1.4,MacIntel,59.94125757,,,,,,,,,
,,,,,,,,,,,,0,3,3,3,1,fourth,14,27,F,R,IMT,2021-07-10_14h20.24.309,ImageRatingTask_S2,2021.1.4,MacIntel,59.94125757,,,,,,,,,
,,,,,,,,,,,,0,4,4,4,1,fifth,14,27,F,R,IMT,2021-07-10_14h20.24.309,ImageRatingTask_S2,2021.1.4,MacIntel,59.94125757,,,,,,,,,
,,,,,,,,,,,,0,5,5,5,1,sixth,14,27,F,R,IMT,2021-07-10_14h20.24.309,ImageRatingTask_S2,2021.1.4,MacIntel,59.94125757,,,,,,,,,
,,,,,,,,,,,,0,6,6,6,1,seventh,14,27,F,R,IMT,2021-07-10_14h20.24.309,ImageRatingTask_S2,2021.1.4,MacIntel,59.94125757,,,,,,,,,
,,,,,,,,,,,,0,7,7,7,1,last,14,27,F,R,IMT,2021-07-10_14h20.24.309,ImageRatingTask_S2,2021.1.4,MacIntel,59.94125757,,,,,,,,,
,,,,,,,,,,,,,,,,,,14,27,F,R,IMT,2021-07-10_14h20.24.309,ImageRatingTask_S2,2021.1.4,MacIntel,59.94125757,0,71,71,147,1,DreamStudyImages_rs1000x750g/Food/Food 5.jpg,,,
,,1,2.5844,5,3.4213,7,2.682,1,2.6316,7,1.3777,0,0,0,0,1,main,14,27,F,R,IMT,2021-07-10_14h20.24.309,ImageRatingTask_S2,2021.1.4,MacIntel,59.94125757,,,,,,,,,
,,,,,,,,,,,,0,1,1,1,1,second,14,27,F,R,IMT,2021-07-10_14h20.24.309,ImageRatingTask_S2,2021.1.4,MacIntel,59.94125757,,,,,,,,,
,,,,,,,,,,,,0,2,2,2,1,third,14,27,F,R,IMT,2021-07-10_14h20.24.309,ImageRatingTask_S2,2021.1.4,MacIntel,59.94125757,,,,,,,,,
,,,,,,,,,,,,0,3,3,3,1,fourth,14,27,F,R,IMT,2021-07-10_14h20.24.309,ImageRatingTask_S2,2021.1.4,MacIntel,59.94125757,,,,,,,,,
,,,,,,,,,,,,0,4,4,4,1,fifth,14,27,F,R,IMT,2021-07-10_14h20.24.309,ImageRatingTask_S2,2021.1.4,MacIntel,59.94125757,,,,,,,,,
,,,,,,,,,,,,0,5,5,5,1,sixth,14,27,F,R,IMT,2021-07-10_14h20.24.309,ImageRatingTask_S2,2021.1.4,MacIntel,59.94125757,,,,,,,,,
,,,,,,,,,,,,0,6,6,6,1,seventh,14,27,F,R,IMT,2021-07-10_14h20.24.309,ImageRatingTask_S2,2021.1.4,MacIntel,59.94125757,,,,,,,,,
,,,,,,,,,,,,0,7,7,7,1,last,14,27,F,R,IMT,2021-07-10_14h20.24.309,ImageRatingTask_S2,2021.1.4,MacIntel,59.94125757,,,,,,,,,
,,,,,,,,,,,,,,,,,,14,27,F,R,IMT,2021-07-10_14h20.24.309,ImageRatingTask_S2,2021.1.4,MacIntel,59.94125757,0,72,72,152,1,DreamStudyImages_rs1000x750g/Vehicles/Car crash 1.jpg,,,
,,5,109.8031,1,2.5456,4,2.0037,2,2.7563,2,1.9963,0,0,0,0,1,main,14,27,F,R,IMT,2021-07-10_14h20.24.309,ImageRatingTask_S2,2021.1.4,MacIntel,59.94125757,,,,,,,,,
,,,,,,,,,,1,0.8509,0,1,1,1,1,second,14,27,F,R,IMT,2021-07-10_14h20.24.309,ImageRatingTask_S2,2021.1.4,MacIntel,59.94125757,,,,,,,,,
,,,,,,,,,,,,0,2,2,2,1,third,14,27,F,R,IMT,2021-07-10_14h20.24.309,ImageRatingTask_S2,2021.1.4,MacIntel,59.94125757,,,,,,,,,
,,,,,,,,,,,,0,3,3,3,1,fourth,14,27,F,R,IMT,2021-07-10_14h20.24.309,ImageRatingTask_S2,2021.1.4,MacIntel,59.94125757,,,,,,,,,
,,,,,,,,,,,,0,4,4,4,1,fifth,14,27,F,R,IMT,2021-07-10_14h20.24.309,ImageRatingTask_S2,2021.1.4,MacIntel,59.94125757,,,,,,,,,
,,,,,,,,,,,,0,5,5,5,1,sixth,14,27,F,R,IMT,2021-07-10_14h20.24.309,ImageRatingTask_S2,2021.1.4,MacIntel,59.94125757,,,,,,,,,
,,,,,,,,,,,,0,6,6,6,1,seventh,14,27,F,R,IMT,2021-07-10_14h20.24.309,ImageRatingTask_S2,2021.1.4,MacIntel,59.94125757,,,,,,,,,
,,,,,,,,,,,,0,7,7,7,1,last,14,27,F,R,IMT,2021-07-10_14h20.24.309,ImageRatingTask_S2,2021.1.4,MacIntel,59.94125757,,,,,,,,,
,,,,,,,,,,,,,,,,,,14,27,F,R,IMT,2021-07-10_14h20.24.309,ImageRatingTask_S2,2021.1.4,MacIntel,59.94125757,0,73,73,106,1,DreamStudyImages_rs1000x750g/Children/IAPS2308_makeupgirl_humans.jpg,,,
,,7,3.9682,3,10.4765,5,3.6881,1,1.5456,5,0.9413,0,0,0,0,1,main,14,27,F,R,IMT,2021-07-10_14h20.24.309,ImageRatingTask_S2,2021.1.4,MacIntel,59.94125757,,,,,,,,,
,,,,,,,,,,,,0,1,1,1,1,second,14,27,F,R,IMT,2021-07-10_14h20.24.309,ImageRatingTask_S2,2021.1.4,MacIntel,59.94125757,,,,,,,,,
,,,,,,,,,,,,0,2,2,2,1,third,14,27,F,R,IMT,2021-07-10_14h20.24.309,ImageRatingTask_S2,2021.1.4,MacIntel,59.94125757,,,,,,,,,
,,,,,,,,,,,,0,3,3,3,1,fourth,14,27,F,R,IMT,2021-07-10_14h20.24.309,ImageRatingTask_S2,2021.1.4,MacIntel,59.94125757,,,,,,,,,
,,,,,,,,,,,,0,4,4,4,1,fifth,14,27,F,R,IMT,2021-07-10_14h20.24.309,ImageRatingTask_S2,2021.1.4,MacIntel,59.94125757,,,,,,,,,
,,,,,,,,,,,,0,5,5,5,1,sixth,14,27,F,R,IMT,2021-07-10_14h20.24.309,ImageRatingTask_S2,2021.1.4,MacIntel,59.94125757,,,,,,,,,
,,,,,,,,,,,,0,6,6,6,1,seventh,14,27,F,R,IMT,2021-07-10_14h20.24.309,ImageRatingTask_S2,2021.1.4,MacIntel,59.94125757,,,,,,,,,
,,,,,,,,,,,,0,7,7,7,1,last,14,27,F,R,IMT,2021-07-10_14h20.24.309,ImageRatingTask_S2,2021.1.4,MacIntel,59.94125757,,,,,,,,,
,,,,,,,,,,,,,,,,,,14,27,F,R,IMT,2021-07-10_14h20.24.309,ImageRatingTask_S2,2021.1.4,MacIntel,59.94125757,0,74,74,134,1,DreamStudyImages_rs1000x750g/Food/Dessert 3.jpg,,,
,,5,30.3451,1,0.8771,6,17.2407,1,17.0344,5,1.453,0,0,0,0,1,main,14,27,F,R,IMT,2021-07-10_14h20.24.309,ImageRatingTask_S2,2021.1.4,MacIntel,59.94125757,,,,,,,,,
,,,,,,,,,,,,0,1,1,1,1,second,14,27,F,R,IMT,2021-07-10_14h20.24.309,ImageRatingTask_S2,2021.1.4,MacIntel,59.94125757,,,,,,,,,
,,,,,,,,,,,,0,2,2,2,1,third,14,27,F,R,IMT,2021-07-10_14h20.24.309,ImageRatingTask_S2,2021.1.4,MacIntel,59.94125757,,,,,,,,,
,,,,,,,,,,,,0,3,3,3,1,fourth,14,27,F,R,IMT,2021-07-10_14h20.24.309,ImageRatingTask_S2,2021.1.4,MacIntel,59.94125757,,,,,,,,,
,,,,,,,,,,,,0,4,4,4,1,fifth,14,27,F,R,IMT,2021-07-10_14h20.24.309,ImageRatingTask_S2,2021.1.4,MacIntel,59.94125757,,,,,,,,,
,,,,,,,,,,,,0,5,5,5,1,sixth,14,27,F,R,IMT,2021-07-10_14h20.24.309,ImageRatingTask_S2,2021.1.4,MacIntel,59.94125757,,,,,,,,,
,,,,,,,,,,,,0,6,6,6,1,seventh,14,27,F,R,IMT,2021-07-10_14h20.24.309,ImageRatingTask_S2,2021.1.4,MacIntel,59.94125757,,,,,,,,,
,,,,,,,,,,,,0,7,7,7,1,last,14,27,F,R,IMT,2021-07-10_14h20.24.309,ImageRatingTask_S2,2021.1.4,MacIntel,59.94125757,,,,,,,,,
,,,,,,,,,,,,,,,,,,14,27,F,R,IMT,2021-07-10_14h20.24.309,ImageRatingTask_S2,2021.1.4,MacIntel,59.94125757,0,75,75,83,1,DreamStudyImages_rs1000x750g/Food/Food 6.jpg,,,
,,5,28.8701,1,2.4112,7,19.4077,1,3.9551,8,1.9023,0,0,0,0,1,main,14,27,F,R,IMT,2021-07-10_14h20.24.309,ImageRatingTask_S2,2021.1.4,MacIntel,59.94125757,,,,,,,,,
,,,,,,,,,,,,0,1,1,1,1,second,14,27,F,R,IMT,2021-07-10_14h20.24.309,ImageRatingTask_S2,2021.1.4,MacIntel,59.94125757,,,,,,,,,
,,,,,,,,,,,,0,2,2,2,1,third,14,27,F,R,IMT,2021-07-10_14h20.24.309,ImageRatingTask_S2,2021.1.4,MacIntel,59.94125757,,,,,,,,,
,,,,,,,,,,,,0,3,3,3,1,fourth,14,27,F,R,IMT,2021-07-10_14h20.24.309,ImageRatingTask_S2,2021.1.4,MacIntel,59.94125757,,,,,,,,,
,,,,,,,,,,,,0,4,4,4,1,fifth,14,27,F,R,IMT,2021-07-10_14h20.24.309,ImageRatingTask_S2,2021.1.4,MacIntel,59.94125757,,,,,,,,,
,,,,,,,,,,,,0,5,5,5,1,sixth,14,27,F,R,IMT,2021-07-10_14h20.24.309,ImageRatingTask_S2,2021.1.4,MacIntel,59.94125757,,,,,,,,,
,,,,,,,,,,,,0,6,6,6,1,seventh,14,27,F,R,IMT,2021-07-10_14h20.24.309,ImageRatingTask_S2,2021.1.4,MacIntel,59.94125757,,,,,,,,,
,,,,,,,,,,,,0,7,7,7,1,last,14,27,F,R,IMT,2021-07-10_14h20.24.309,ImageRatingTask_S2,2021.1.4,MacIntel,59.94125757,,,,,,,,,
,,,,,,,,,,,,,,,,,,14,27,F,R,IMT,2021-07-10_14h20.24.309,ImageRatingTask_S2,2021.1.4,MacIntel,59.94125757,0,76,76,48,1,DreamStudyImages_rs1000x750g/Water/muddywater.jpg,,,
,,8,4.8291,3,2.1148,8,2.8845,1,2.0774,5,1.0607,0,0,0,0,1,main,14,27,F,R,IMT,2021-07-10_14h20.24.309,ImageRatingTask_S2,2021.1.4,MacIntel,59.94125757,,,,,,,,,
,,,,,,,,,,,,0,1,1,1,1,second,14,27,F,R,IMT,2021-07-10_14h20.24.309,ImageRatingTask_S2,2021.1.4,MacIntel,59.94125757,,,,,,,,,
,,,,,,,,,,,,0,2,2,2,1,third,14,27,F,R,IMT,2021-07-10_14h20.24.309,ImageRatingTask_S2,2021.1.4,MacIntel,59.94125757,,,,,,,,,
,,,,,,,,,,,,0,3,3,3,1,fourth,14,27,F,R,IMT,2021-07-10_14h20.24.309,ImageRatingTask_S2,2021.1.4,MacIntel,59.94125757,,,,,,,,,
,,,,,,,,,,,,0,4,4,4,1,fifth,14,27,F,R,IMT,2021-07-10_14h20.24.309,ImageRatingTask_S2,2021.1.4,MacIntel,59.94125757,,,,,,,,,
,,,,,,,,,,,,0,5,5,5,1,sixth,14,27,F,R,IMT,2021-07-10_14h20.24.309,ImageRatingTask_S2,2021.1.4,MacIntel,59.94125757,,,,,,,,,
,,,,,,,,,,,,0,6,6,6,1,seventh,14,27,F,R,IMT,2021-07-10_14h20.24.309,ImageRatingTask_S2,2021.1.4,MacIntel,59.94125757,,,,,,,,,
,,,,,,,,,,,,0,7,7,7,1,last,14,27,F,R,IMT,2021-07-10_14h20.24.309,ImageRatingTask_S2,2021.1.4,MacIntel,59.94125757,,,,,,,,,
,,,,,,,,,,,,,,,,,,14,27,F,R,IMT,2021-07-10_14h20.24.309,ImageRatingTask_S2,2021.1.4,MacIntel,59.94125757,0,77,77,156,1,DreamStudyImages_rs1000x750g/Food/Objects_101_h.jpg,,,
,,5,4.1237,1,1.8972,6,2.083,1,1.5113,2,1.1359,0,0,0,0,1,main,14,27,F,R,IMT,2021-07-10_14h20.24.309,ImageRatingTask_S2,2021.1.4,MacIntel,59.94125757,,,,,,,,,
,,,,,,,,,,,,0,1,1,1,1,second,14,27,F,R,IMT,2021-07-10_14h20.24.309,ImageRatingTask_S2,2021.1.4,MacIntel,59.94125757,,,,,,,,,
,,,,,,,,,,,,0,2,2,2,1,third,14,27,F,R,IMT,2021-07-10_14h20.24.309,ImageRatingTask_S2,2021.1.4,MacIntel,59.94125757,,,,,,,,,
,,,,,,,,,,,,0,3,3,3,1,fourth,14,27,F,R,IMT,2021-07-10_14h20.24.309,ImageRatingTask_S2,2021.1.4,MacIntel,59.94125757,,,,,,,,,
,,,,,,,,,,,,0,4,4,4,1,fifth,14,27,F,R,IMT,2021-07-10_14h20.24.309,ImageRatingTask_S2,2021.1.4,MacIntel,59.94125757,,,,,,,,,
,,,,,,,,,,,,0,5,5,5,1,sixth,14,27,F,R,IMT,2021-07-10_14h20.24.309,ImageRatingTask_S2,2021.1.4,MacIntel,59.94125757,,,,,,,,,
,,,,,,,,,,,,0,6,6,6,1,seventh,14,27,F,R,IMT,2021-07-10_14h20.24.309,ImageRatingTask_S2,2021.1.4,MacIntel,59.94125757,,,,,,,,,
,,,,,,,,,,,,0,7,7,7,1,last,14,27,F,R,IMT,2021-07-10_14h20.24.309,ImageRatingTask_S2,2021.1.4,MacIntel,59.94125757,,,,,,,,,
,,,,,,,,,,,,,,,,,,14,27,F,R,IMT,2021-07-10_14h20.24.309,ImageRatingTask_S2,2021.1.4,MacIntel,59.94125757,0,78,78,94,1,DreamStudyImages_rs1000x750g/Children/Faces_056_h.jpg,,,
,,7,3.0453,3,3.3849,7,2.1798,1,1.826,5,1.0707,0,0,0,0,1,main,14,27,F,R,IMT,2021-07-10_14h20.24.309,ImageRatingTask_S2,2021.1.4,MacIntel,59.94125757,,,,,,,,,
,,,,,,,,,,,,0,1,1,1,1,second,14,27,F,R,IMT,2021-07-10_14h20.24.309,ImageRatingTask_S2,2021.1.4,MacIntel,59.94125757,,,,,,,,,
,,,,,,,,,,,,0,2,2,2,1,third,14,27,F,R,IMT,2021-07-10_14h20.24.309,ImageRatingTask_S2,2021.1.4,MacIntel,59.94125757,,,,,,,,,
,,,,,,,,,,,,0,3,3,3,1,fourth,14,27,F,R,IMT,2021-07-10_14h20.24.309,ImageRatingTask_S2,2021.1.4,MacIntel,59.94125757,,,,,,,,,
,,,,,,,,,,,,0,4,4,4,1,fifth,14,27,F,R,IMT,2021-07-10_14h20.24.309,ImageRatingTask_S2,2021.1.4,MacIntel,59.94125757,,,,,,,,,
,,,,,,,,,,,,0,5,5,5,1,sixth,14,27,F,R,IMT,2021-07-10_14h20.24.309,ImageRatingTask_S2,2021.1.4,MacIntel,59.94125757,,,,,,,,,
,,,,,,,,,,,,0,6,6,6,1,seventh,14,27,F,R,IMT,2021-07-10_14h20.24.309,ImageRatingTask_S2,2021.1.4,MacIntel,59.94125757,,,,,,,,,
,,,,,,,,,,,,0,7,7,7,1,last,14,27,F,R,IMT,2021-07-10_14h20.24.309,ImageRatingTask_S2,2021.1.4,MacIntel,59.94125757,,,,,,,,,
,,,,,,,,,,,,,,,,,,14,27,F,R,IMT,2021-07-10_14h20.24.309,ImageRatingTask_S2,2021.1.4,MacIntel,59.94125757,0,79,79,141,1,DreamStudyImages_rs1000x750g/Food/Objects_104_v.jpg,,,
,,6,105.8608,3,10.1484,4,32.7545,1,13.3212,4,2.7669,0,0,0,0,1,main,14,27,F,R,IMT,2021-07-10_14h20.24.309,ImageRatingTask_S2,2021.1.4,MacIntel,59.94125757,,,,,,,,,
,,,,,,,,,,,,0,1,1,1,1,second,14,27,F,R,IMT,2021-07-10_14h20.24.309,ImageRatingTask_S2,2021.1.4,MacIntel,59.94125757,,,,,,,,,
,,,,,,,,,,,,0,2,2,2,1,third,14,27,F,R,IMT,2021-07-10_14h20.24.309,ImageRatingTask_S2,2021.1.4,MacIntel,59.94125757,,,,,,,,,
,,,,,,,,,,,,0,3,3,3,1,fourth,14,27,F,R,IMT,2021-07-10_14h20.24.309,ImageRatingTask_S2,2021.1.4,MacIntel,59.94125757,,,,,,,,,
,,,,,,,,,,,,0,4,4,4,1,fifth,14,27,F,R,IMT,2021-07-10_14h20.24.309,ImageRatingTask_S2,2021.1.4,MacIntel,59.94125757,,,,,,,,,
,,,,,,,,,,,,0,5,5,5,1,sixth,14,27,F,R,IMT,2021-07-10_14h20.24.309,ImageRatingTask_S2,2021.1.4,MacIntel,59.94125757,,,,,,,,,
,,,,,,,,,,,,0,6,6,6,1,seventh,14,27,F,R,IMT,2021-07-10_14h20.24.309,ImageRatingTask_S2,2021.1.4,MacIntel,59.94125757,,,,,,,,,
,,,,,,,,,,,,0,7,7,7,1,last,14,27,F,R,IMT,2021-07-10_14h20.24.309,ImageRatingTask_S2,2021.1.4,MacIntel,59.94125757,,,,,,,,,
,,,,,,,,,,,,,,,,,,14,27,F,R,IMT,2021-07-10_14h20.24.309,ImageRatingTask_S2,2021.1.4,MacIntel,59.94125757,0,80,80,76,1,DreamStudyImages_rs1000x750g/Mammals/Animals_096_h.jpg,,,
,,6,52.5483,2,6.0852,7,2.2938,1,4.2915,8,1.414,0,0,0,0,1,main,14,27,F,R,IMT,2021-07-10_14h20.24.309,ImageRatingTask_S2,2021.1.4,MacIntel,59.94125757,,,,,,,,,
,,,,,,,,,,,,0,1,1,1,1,second,14,27,F,R,IMT,2021-07-10_14h20.24.309,ImageRatingTask_S2,2021.1.4,MacIntel,59.94125757,,,,,,,,,
,,,,,,,,,,,,0,2,2,2,1,third,14,27,F,R,IMT,2021-07-10_14h20.24.309,ImageRatingTask_S2,2021.1.4,MacIntel,59.94125757,,,,,,,,,
,,,,,,,,,,,,0,3,3,3,1,fourth,14,27,F,R,IMT,2021-07-10_14h20.24.309,ImageRatingTask_S2,2021.1.4,MacIntel,59.94125757,,,,,,,,,
,,,,,,,,,,,,0,4,4,4,1,fifth,14,27,F,R,IMT,2021-07-10_14h20.24.309,ImageRatingTask_S2,2021.1.4,MacIntel,59.94125757,,,,,,,,,
,,,,,,,,,,,,0,5,5,5,1,sixth,14,27,F,R,IMT,2021-07-10_14h20.24.309,ImageRatingTask_S2,2021.1.4,MacIntel,59.94125757,,,,,,,,,
,,,,,,,,,,,,0,6,6,6,1,seventh,14,27,F,R,IMT,2021-07-10_14h20.24.309,ImageRatingTask_S2,2021.1.4,MacIntel,59.94125757,,,,,,,,,
,,,,,,,,,,,,0,7,7,7,1,last,14,27,F,R,IMT,2021-07-10_14h20.24.309,ImageRatingTask_S2,2021.1.4,MacIntel,59.94125757,,,,,,,,,
,,,,,,,,,,,,,,,,,,14,27,F,R,IMT,2021-07-10_14h20.24.309,ImageRatingTask_S2,2021.1.4,MacIntel,59.94125757,0,81,81,40,1,DreamStudyImages_rs1000x750g/Water/Landscapes_121_h.jpg,,,
,,4,3.6619,4,2.031,5,2.083,1,0.9474,3,1.1862,0,0,0,0,1,main,14,27,F,R,IMT,2021-07-10_14h20.24.309,ImageRatingTask_S2,2021.1.4,MacIntel,59.94125757,,,,,,,,,
,,,,,,,,,,,,0,1,1,1,1,second,14,27,F,R,IMT,2021-07-10_14h20.24.309,ImageRatingTask_S2,2021.1.4,MacIntel,59.94125757,,,,,,,,,
,,,,,,,,,,,,0,2,2,2,1,third,14,27,F,R,IMT,2021-07-10_14h20.24.309,ImageRatingTask_S2,2021.1.4,MacIntel,59.94125757,,,,,,,,,
,,,,,,,,,,,,0,3,3,3,1,fourth,14,27,F,R,IMT,2021-07-10_14h20.24.309,ImageRatingTask_S2,2021.1.4,MacIntel,59.94125757,,,,,,,,,
,,,,,,,,,,,,0,4,4,4,1,fifth,14,27,F,R,IMT,2021-07-10_14h20.24.309,ImageRatingTask_S2,2021.1.4,MacIntel,59.94125757,,,,,,,,,
