test_key_val.keys,test_key_val.rt,test_key_aro.keys,test_key_aro.rt,test_key_qual.keys,test_key_qual.rt,test_key_ncat.keys,test_key_ncat.rt,test_key_cats.keys,test_key_cats.rt,test_ncat_order.thisRepN,test_ncat_order.thisTrialN,test_ncat_order.thisN,test_ncat_order.thisIndex,test_ncat_order.ran,cond_cat,participant,age,gender,handedness (L/R),site (IMT/Donders),date,expName,psychopyVersion,OS,frameRate,test_trials.thisRepN,test_trials.thisTrialN,test_trials.thisN,test_trials.thisIndex,test_trials.ran,test_filename,link,copyright,slider_pre.response,slider_pre.rt,key_val.keys,key_val.rt,key_aro.keys,key_aro.rt,key_qual.keys,key_qual.rt,key_ncat.keys,key_ncat.rt,key_cats.keys,key_cats.rt,ncat_order.thisRepN,ncat_order.thisTrialN,ncat_order.thisN,ncat_order.thisIndex,ncat_order.ran,img_trials.thisRepN,img_trials.thisTrialN,img_trials.thisN,img_trials.thisIndex,img_trials.ran,filename,slider_post.response,slider_post.rt,textbox_openfb.text
5,11.4407,1,4.1878,3,3.9531,2,30.532,2,90.1058,0,0,0,0,1,main,14,27,F,R,IMT,2021-07-09_14h08.23.940,ImageRatingTask_S1,2021.1.4,MacIntel,59.94125757,,,,,,,,,,,,,,,,,,,,,,,,,,,,,,,,,,
,,,,,,,,5,8.5685,0,1,1,1,1,second,14,27,F,R,IMT,2021-07-09_14h08.23.940,ImageRatingTask_S1,2021.1.4,MacIntel,59.94125757,,,,,,,,,,,,,,,,,,,,,,,,,,,,,,,,,,
,,,,,,,,,,0,2,2,2,1,third,14,27,F,R,IMT,2021-07-09_14h08.23.940,ImageRatingTask_S1,2021.1.4,MacIntel,59.94125757,,,,,,,,,,,,,,,,,,,,,,,,,,,,,,,,,,
,,,,,,,,,,0,3,3,3,1,fourth,14,27,F,R,IMT,2021-07-09_14h08.23.940,ImageRatingTask_S1,2021.1.4,MacIntel,59.94125757,,,,,,,,,,,,,,,,,,,,,,,,,,,,,,,,,,
,,,,,,,,,,0,4,4,4,1,fifth,14,27,F,R,IMT,2021-07-09_14h08.23.940,ImageRatingTask_S1,2021.1.4,MacIntel,59.94125757,,,,,,,,,,,,,,,,,,,,,,,,,,,,,,,,,,
,,,,,,,,,,0,5,5,5,1,sixth,14,27,F,R,IMT,2021-07-09_14h08.23.940,ImageRatingTask_S1,2021.1.4,MacIntel,59.94125757,,,,,,,,,,,,,,,,,,,,,,,,,,,,,,,,,,
,,,,,,,,,,0,6,6,6,1,seventh,14,27,F,R,IMT,2021-07-09_14h08.23.940,ImageRatingTask_S1,2021.1.4,MacIntel,59.94125757,,,,,,,,,,,,,,,,,,,,,,,,,,,,,,,,,,
,,,,,,,,,,0,7,7,7,1,last,14,27,F,R,IMT,2021-07-09_14h08.23.940,ImageRatingTask_S1,2021.1.4,MacIntel,59.94125757,,,,,,,,,,,,,,,,,,,,,,,,,,,,,,,,,,
,,,,,,,,,,,,,,,,14,27,F,R,IMT,2021-07-09_14h08.23.940,ImageRatingTask_S1,2021.1.4,MacIntel,59.94125757,0,0,0,1,1,test2.jpg,https://www.flickr.com/photos/cavalier92/16036265548/,CC BY-NC-ND 2.0,,,,,,,,,,,,,,,,,,,,,,,,,,
8,5.4054,8,7.0836,5,3.6822,3,11.2627,1,3.0152,0,0,0,0,1,main,14,27,F,R,IMT,2021-07-09_14h08.23.940,ImageRatingTask_S1,2021.1.4,MacIntel,59.94125757,,,,,,,,,,,,,,,,,,,,,,,,,,,,,,,,,,
,,,,,,,,4,2.7391,0,1,1,1,1,second,14,27,F,R,IMT,2021-07-09_14h08.23.940,ImageRatingTask_S1,2021.1.4,MacIntel,59.94125757,,,,,,,,,,,,,,,,,,,,,,,,,,,,,,,,,,
,,,,,,,,6,5.1131,0,2,2,2,1,third,14,27,F,R,IMT,2021-07-09_14h08.23.940,ImageRatingTask_S1,2021.1.4,MacIntel,59.94125757,,,,,,,,,,,,,,,,,,,,,,,,,,,,,,,,,,
,,,,,,,,,,0,3,3,3,1,fourth,14,27,F,R,IMT,2021-07-09_14h08.23.940,ImageRatingTask_S1,2021.1.4,MacIntel,59.94125757,,,,,,,,,,,,,,,,,,,,,,,,,,,,,,,,,,
,,,,,,,,,,0,4,4,4,1,fifth,14,27,F,R,IMT,2021-07-09_14h08.23.940,ImageRatingTask_S1,2021.1.4,MacIntel,59.94125757,,,,,,,,,,,,,,,,,,,,,,,,,,,,,,,,,,
,,,,,,,,,,0,5,5,5,1,sixth,14,27,F,R,IMT,2021-07-09_14h08.23.940,ImageRatingTask_S1,2021.1.4,MacIntel,59.94125757,,,,,,,,,,,,,,,,,,,,,,,,,,,,,,,,,,
,,,,,,,,,,0,6,6,6,1,seventh,14,27,F,R,IMT,2021-07-09_14h08.23.940,ImageRatingTask_S1,2021.1.4,MacIntel,59.94125757,,,,,,,,,,,,,,,,,,,,,,,,,,,,,,,,,,
,,,,,,,,,,0,7,7,7,1,last,14,27,F,R,IMT,2021-07-09_14h08.23.940,ImageRatingTask_S1,2021.1.4,MacIntel,59.94125757,,,,,,,,,,,,,,,,,,,,,,,,,,,,,,,,,,
,,,,,,,,,,,,,,,,14,27,F,R,IMT,2021-07-09_14h08.23.940,ImageRatingTask_S1,2021.1.4,MacIntel,59.94125757,0,1,1,2,1,test3.jpg,https://www.flickr.com/photos/7487886@N04/35810127921/in/photolist-WyqgqD-DQSoP-6SrFCE-39ywib-39Bezs-9gt8aT-9gt83Z-eEgA9B-KnLx9-9gt8dK-HXwdie-2b6FA2g-4ekt5k-9ECfRg-2Zr5GQ-2Zr5mC-2Zr6kW-2Zr5Xu-2Zmyac-98TgbK-7U5XRj-am4oXb-98ThEB-2Bw3gh-vXo6D-Wt9U8o-DGiErb-DGiEqE-2m3CpV6-6E2aGG-6DXgqc-4PC3pQ-6HwMbx-dHYvkg-a2ycs-JLvMv-7k6DhM-bA81AL-8zwPFe-5nMrZu-3Ep2da-nhhd2L-DvDkr-81RkjZ-E1HXA-GzGH8Z-83vZYf-9krgXK-5nMxuU-DGiEqu,CC BY-NC 2.0,,,,,,,,,,,,,,,,,,,,,,,,,,
6,4.4038,2,3.5834,6,3.1238,3,9.1321,8,3.4025,0,0,0,0,1,main,14,27,F,R,IMT,2021-07-09_14h08.23.940,ImageRatingTask_S1,2021.1.4,MacIntel,59.94125757,,,,,,,,,,,,,,,,,,,,,,,,,,,,,,,,,,
,,,,,,,,1,1.4775,0,1,1,1,1,second,14,27,F,R,IMT,2021-07-09_14h08.23.940,ImageRatingTask_S1,2021.1.4,MacIntel,59.94125757,,,,,,,,,,,,,,,,,,,,,,,,,,,,,,,,,,
,,,,,,,,7,1.1847,0,2,2,2,1,third,14,27,F,R,IMT,2021-07-09_14h08.23.940,ImageRatingTask_S1,2021.1.4,MacIntel,59.94125757,,,,,,,,,,,,,,,,,,,,,,,,,,,,,,,,,,
,,,,,,,,,,0,3,3,3,1,fourth,14,27,F,R,IMT,2021-07-09_14h08.23.940,ImageRatingTask_S1,2021.1.4,MacIntel,59.94125757,,,,,,,,,,,,,,,,,,,,,,,,,,,,,,,,,,
,,,,,,,,,,0,4,4,4,1,fifth,14,27,F,R,IMT,2021-07-09_14h08.23.940,ImageRatingTask_S1,2021.1.4,MacIntel,59.94125757,,,,,,,,,,,,,,,,,,,,,,,,,,,,,,,,,,
,,,,,,,,,,0,5,5,5,1,sixth,14,27,F,R,IMT,2021-07-09_14h08.23.940,ImageRatingTask_S1,2021.1.4,MacIntel,59.94125757,,,,,,,,,,,,,,,,,,,,,,,,,,,,,,,,,,
,,,,,,,,,,0,6,6,6,1,seventh,14,27,F,R,IMT,2021-07-09_14h08.23.940,ImageRatingTask_S1,2021.1.4,MacIntel,59.94125757,,,,,,,,,,,,,,,,,,,,,,,,,,,,,,,,,,
,,,,,,,,,,0,7,7,7,1,last,14,27,F,R,IMT,2021-07-09_14h08.23.940,ImageRatingTask_S1,2021.1.4,MacIntel,59.94125757,,,,,,,,,,,,,,,,,,,,,,,,,,,,,,,,,,
,,,,,,,,,,,,,,,,14,27,F,R,IMT,2021-07-09_14h08.23.940,ImageRatingTask_S1,2021.1.4,MacIntel,59.94125757,0,2,2,0,1,test1.jpg,https://www.flickr.com/photos/julzyax1/8713189147/in/photolist-egXnz6-Kg97g6-paYQjg-cDWcvy-e84vQU-fyRQKZ-dzuwVL-nzCPJw-dzp3r6-SXXSvw-aEgXGF-dzp1D8-aEgZ6F-prcoQG-aEgYd8-dt9EJ8-qTHZUL-dX8ut3-6eqh7x-aEkMyA-avjf71-6eqgKg-pNpDbJ-6euqa5-bo2EMC-q8hCLb-od8yyX-daaz4w-26cjVxB-CXaGmV-C7hSHf-aqmunq-9ek8a1-YcbBUe-apPWHB-HnB8rt-pHQLfh-8YgHaC-aqHteN-d5THbj-5dgTxP-afp2aV-8hNoSm-qhSjJS-d5TqoA-98WoKM-cjnSxo-9b4u7a-d5Tnzf-f7AETL,CC BY-NC 2.0,,,,,,,,,,,,,,,,,,,,,,,,,,
5,5.3921,1,3.9087,4,3.1281,2,6.4877,7,2.3395,0,0,0,0,1,main,14,27,F,R,IMT,2021-07-09_14h08.23.940,ImageRatingTask_S1,2021.1.4,MacIntel,59.94125757,,,,,,,,,,,,,,,,,,,,,,,,,,,,,,,,,,
,,,,,,,,4,2.2184,0,1,1,1,1,second,14,27,F,R,IMT,2021-07-09_14h08.23.940,ImageRatingTask_S1,2021.1.4,MacIntel,59.94125757,,,,,,,,,,,,,,,,,,,,,,,,,,,,,,,,,,
,,,,,,,,,,0,2,2,2,1,third,14,27,F,R,IMT,2021-07-09_14h08.23.940,ImageRatingTask_S1,2021.1.4,MacIntel,59.94125757,,,,,,,,,,,,,,,,,,,,,,,,,,,,,,,,,,
,,,,,,,,,,0,3,3,3,1,fourth,14,27,F,R,IMT,2021-07-09_14h08.23.940,ImageRatingTask_S1,2021.1.4,MacIntel,59.94125757,,,,,,,,,,,,,,,,,,,,,,,,,,,,,,,,,,
,,,,,,,,,,0,4,4,4,1,fifth,14,27,F,R,IMT,2021-07-09_14h08.23.940,ImageRatingTask_S1,2021.1.4,MacIntel,59.94125757,,,,,,,,,,,,,,,,,,,,,,,,,,,,,,,,,,
,,,,,,,,,,0,5,5,5,1,sixth,14,27,F,R,IMT,2021-07-09_14h08.23.940,ImageRatingTask_S1,2021.1.4,MacIntel,59.94125757,,,,,,,,,,,,,,,,,,,,,,,,,,,,,,,,,,
,,,,,,,,,,0,6,6,6,1,seventh,14,27,F,R,IMT,2021-07-09_14h08.23.940,ImageRatingTask_S1,2021.1.4,MacIntel,59.94125757,,,,,,,,,,,,,,,,,,,,,,,,,,,,,,,,,,
,,,,,,,,,,0,7,7,7,1,last,14,27,F,R,IMT,2021-07-09_14h08.23.940,ImageRatingTask_S1,2021.1.4,MacIntel,59.94125757,,,,,,,,,,,,,,,,,,,,,,,,,,,,,,,,,,
,,,,,,,,,,,,,,,,14,27,F,R,IMT,2021-07-09_14h08.23.940,ImageRatingTask_S1,2021.1.4,MacIntel,59.94125757,0,3,3,3,1,test4.jpg,https://www.flickr.com/photos/8782469@N05/33550256294/in/photolist-T7HQjJ-6bL62X-gQ2ptt-eARbhf-dbgLvQ-uKUpgG-e6GNPD-e6iDuV-RwYJie-Ur28At-u6Dvwk-fwts3x-CgqS5E-dgJSNE-fwHPg9-bFQoWv-9qgCN-TQZT7E-475QF-v3ZBG9-v5TFQL-aQVeNV-49XCzE-e5Va7j-v3WosE-5jvzS-cBxjA5-fwJ2P3-TP86kq-eREpVC-rMTQZx-Um3k-ajziHj-CgqSzN-dgP2Ci-e6putY-652ZqG-eARzQm-6ikz1-vrGjvh-Chgvpm-pFFnYq-8bKoVw-eAsukg-daANXC-MwMMfW-5ArWsa-GMcDmn-bLo6CH-9KgagR,CC BY 2.0,,,,,,,,,,,,,,,,,,,,,,,,,,
7,5.5367,2,3.37,7,3.5353,0,9.8584,,,0,0,0,0,1,main,14,27,F,R,IMT,2021-07-09_14h08.23.940,ImageRatingTask_S1,2021.1.4,MacIntel,59.94125757,,,,,,,,,,,,,,,,,,,,,,,,,,,,,,,,,,
,,,,,,,,,,0,1,1,1,1,second,14,27,F,R,IMT,2021-07-09_14h08.23.940,ImageRatingTask_S1,2021.1.4,MacIntel,59.94125757,,,,,,,,,,,,,,,,,,,,,,,,,,,,,,,,,,
,,,,,,,,,,0,2,2,2,1,third,14,27,F,R,IMT,2021-07-09_14h08.23.940,ImageRatingTask_S1,2021.1.4,MacIntel,59.94125757,,,,,,,,,,,,,,,,,,,,,,,,,,,,,,,,,,
,,,,,,,,,,0,3,3,3,1,fourth,14,27,F,R,IMT,2021-07-09_14h08.23.940,ImageRatingTask_S1,2021.1.4,MacIntel,59.94125757,,,,,,,,,,,,,,,,,,,,,,,,,,,,,,,,,,
,,,,,,,,,,0,4,4,4,1,fifth,14,27,F,R,IMT,2021-07-09_14h08.23.940,ImageRatingTask_S1,2021.1.4,MacIntel,59.94125757,,,,,,,,,,,,,,,,,,,,,,,,,,,,,,,,,,
,,,,,,,,,,0,5,5,5,1,sixth,14,27,F,R,IMT,2021-07-09_14h08.23.940,ImageRatingTask_S1,2021.1.4,MacIntel,59.94125757,,,,,,,,,,,,,,,,,,,,,,,,,,,,,,,,,,
,,,,,,,,,,0,6,6,6,1,seventh,14,27,F,R,IMT,2021-07-09_14h08.23.940,ImageRatingTask_S1,2021.1.4,MacIntel,59.94125757,,,,,,,,,,,,,,,,,,,,,,,,,,,,,,,,,,
,,,,,,,,,,0,7,7,7,1,last,14,27,F,R,IMT,2021-07-09_14h08.23.940,ImageRatingTask_S1,2021.1.4,MacIntel,59.94125757,,,,,,,,,,,,,,,,,,,,,,,,,,,,,,,,,,
,,,,,,,,,,,,,,,,14,27,F,R,IMT,2021-07-09_14h08.23.940,ImageRatingTask_S1,2021.1.4,MacIntel,59.94125757,0,4,4,4,1,test5.jpg,https://www.flickr.com/photos/silkebaron/2778692021/in/photolist-5exwk8-CeHF3S-5gg796-95cM2x-LGUrp7-oFgB6-2k7B5QN-aufKzz-hn8Di-8A3htc-8EagiU-4Hvk3Y-2b7s1f8-KSEPr-KSseq-KSrU3-KSu4o-KSsS3-Tp6nDS-KSCUM-VpC5Br-4j8meK-bdrepT-7GRM78-e6Zw96-8cCPed-9ANgBi-oFg73-2GGRxm-5dcivP-7sa8oG-2GGRzW-7CFUnh-3giGx-5Bz4op-3gTuGh-5cSvq6-pUnXj-hwTpWT-48n3iY-e5zg7q-7u7zP8-49195x-3iQDe9-aL7cWX-5exvLk-48n2Yy-toytsg-rw5VR-78NSA2,CC BY 2.0,,,,,,,,,,,,,,,,,,,,,,,,,,
,,,,,,,,,,,,,,,main,14,27,F,R,IMT,2021-07-09_14h08.23.940,ImageRatingTask_S1,2021.1.4,MacIntel,59.94125757,,,,,,,,,5,11.7105,5,56.6201,1,3.3629,4,4.1559,2,39.4313,2,3.1671,0,0,0,0,1,,,,,,,,,
,,,,,,,,,,,,,,,second,14,27,F,R,IMT,2021-07-09_14h08.23.940,ImageRatingTask_S1,2021.1.4,MacIntel,59.94125757,,,,,,,,,,,,,,,,,,,1,0.3681,0,1,1,1,1,,,,,,,,,
,,,,,,,,,,,,,,,third,14,27,F,R,IMT,2021-07-09_14h08.23.940,ImageRatingTask_S1,2021.1.4,MacIntel,59.94125757,,,,,,,,,,,,,,,,,,,,,0,2,2,2,1,,,,,,,,,
,,,,,,,,,,,,,,,fourth,14,27,F,R,IMT,2021-07-09_14h08.23.940,ImageRatingTask_S1,2021.1.4,MacIntel,59.94125757,,,,,,,,,,,,,,,,,,,,,0,3,3,3,1,,,,,,,,,
,,,,,,,,,,,,,,,fifth,14,27,F,R,IMT,2021-07-09_14h08.23.940,ImageRatingTask_S1,2021.1.4,MacIntel,59.94125757,,,,,,,,,,,,,,,,,,,,,0,4,4,4,1,,,,,,,,,
,,,,,,,,,,,,,,,sixth,14,27,F,R,IMT,2021-07-09_14h08.23.940,ImageRatingTask_S1,2021.1.4,MacIntel,59.94125757,,,,,,,,,,,,,,,,,,,,,0,5,5,5,1,,,,,,,,,
,,,,,,,,,,,,,,,seventh,14,27,F,R,IMT,2021-07-09_14h08.23.940,ImageRatingTask_S1,2021.1.4,MacIntel,59.94125757,,,,,,,,,,,,,,,,,,,,,0,6,6,6,1,,,,,,,,,
,,,,,,,,,,,,,,,last,14,27,F,R,IMT,2021-07-09_14h08.23.940,ImageRatingTask_S1,2021.1.4,MacIntel,59.94125757,,,,,,,,,,,,,,,,,,,,,0,7,7,7,1,,,,,,,,,
,,,,,,,,,,,,,,,,14,27,F,R,IMT,2021-07-09_14h08.23.940,ImageRatingTask_S1,2021.1.4,MacIntel,59.94125757,,,,,,,,,,,,,,,,,,,,,,,,,,0,0,0,17,1,DreamStudyImages_rs1000x750g/Children/People_049_h.jpg,,,
,,,,,,,,,,,,,,,main,14,27,F,R,IMT,2021-07-09_14h08.23.940,ImageRatingTask_S1,2021.1.4,MacIntel,59.94125757,,,,,,,,,,,3,9.5426,5,4.593,6,27.6246,2,5.5219,8,2.4364,0,0,0,0,1,,,,,,,,,
,,,,,,,,,,,,,,,second,14,27,F,R,IMT,2021-07-09_14h08.23.940,ImageRatingTask_S1,2021.1.4,MacIntel,59.94125757,,,,,,,,,,,,,,,,,,,6,2.1026,0,1,1,1,1,,,,,,,,,
,,,,,,,,,,,,,,,third,14,27,F,R,IMT,2021-07-09_14h08.23.940,ImageRatingTask_S1,2021.1.4,MacIntel,59.94125757,,,,,,,,,,,,,,,,,,,,,0,2,2,2,1,,,,,,,,,
,,,,,,,,,,,,,,,fourth,14,27,F,R,IMT,2021-07-09_14h08.23.940,ImageRatingTask_S1,2021.1.4,MacIntel,59.94125757,,,,,,,,,,,,,,,,,,,,,0,3,3,3,1,,,,,,,,,
,,,,,,,,,,,,,,,fifth,14,27,F,R,IMT,2021-07-09_14h08.23.940,ImageRatingTask_S1,2021.1.4,MacIntel,59.94125757,,,,,,,,,,,,,,,,,,,,,0,4,4,4,1,,,,,,,,,
,,,,,,,,,,,,,,,sixth,14,27,F,R,IMT,2021-07-09_14h08.23.940,ImageRatingTask_S1,2021.1.4,MacIntel,59.94125757,,,,,,,,,,,,,,,,,,,,,0,5,5,5,1,,,,,,,,,
,,,,,,,,,,,,,,,seventh,14,27,F,R,IMT,2021-07-09_14h08.23.940,ImageRatingTask_S1,2021.1.4,MacIntel,59.94125757,,,,,,,,,,,,,,,,,,,,,0,6,6,6,1,,,,,,,,,
,,,,,,,,,,,,,,,last,14,27,F,R,IMT,2021-07-09_14h08.23.940,ImageRatingTask_S1,2021.1.4,MacIntel,59.94125757,,,,,,,,,,,,,,,,,,,,,0,7,7,7,1,,,,,,,,,
,,,,,,,,,,,,,,,,14,27,F,R,IMT,2021-07-09_14h08.23.940,ImageRatingTask_S1,2021.1.4,MacIntel,59.94125757,,,,,,,,,,,,,,,,,,,,,,,,,,0,1,1,106,1,DreamStudyImages_rs1000x750g/Water/15.jpg,,,
,,,,,,,,,,,,,,,main,14,27,F,R,IMT,2021-07-09_14h08.23.940,ImageRatingTask_S1,2021.1.4,MacIntel,59.94125757,,,,,,,,,,,5,5.3413,1,2.6647,2,2.3916,1,5.4206,8,2.0467,0,0,0,0,1,,,,,,,,,
,,,,,,,,,,,,,,,second,14,27,F,R,IMT,2021-07-09_14h08.23.940,ImageRatingTask_S1,2021.1.4,MacIntel,59.94125757,,,,,,,,,,,,,,,,,,,,,0,1,1,1,1,,,,,,,,,
,,,,,,,,,,,,,,,third,14,27,F,R,IMT,2021-07-09_14h08.23.940,ImageRatingTask_S1,2021.1.4,MacIntel,59.94125757,,,,,,,,,,,,,,,,,,,,,0,2,2,2,1,,,,,,,,,
,,,,,,,,,,,,,,,fourth,14,27,F,R,IMT,2021-07-09_14h08.23.940,ImageRatingTask_S1,2021.1.4,MacIntel,59.94125757,,,,,,,,,,,,,,,,,,,,,0,3,3,3,1,,,,,,,,,
,,,,,,,,,,,,,,,fifth,14,27,F,R,IMT,2021-07-09_14h08.23.940,ImageRatingTask_S1,2021.1.4,MacIntel,59.94125757,,,,,,,,,,,,,,,,,,,,,0,4,4,4,1,,,,,,,,,
,,,,,,,,,,,,,,,sixth,14,27,F,R,IMT,2021-07-09_14h08.23.940,ImageRatingTask_S1,2021.1.4,MacIntel,59.94125757,,,,,,,,,,,,,,,,,,,,,0,5,5,5,1,,,,,,,,,
,,,,,,,,,,,,,,,seventh,14,27,F,R,IMT,2021-07-09_14h08.23.940,ImageRatingTask_S1,2021.1.4,MacIntel,59.94125757,,,,,,,,,,,,,,,,,,,,,0,6,6,6,1,,,,,,,,,
,,,,,,,,,,,,,,,last,14,27,F,R,IMT,2021-07-09_14h08.23.940,ImageRatingTask_S1,2021.1.4,MacIntel,59.94125757,,,,,,,,,,,,,,,,,,,,,0,7,7,7,1,,,,,,,,,
,,,,,,,,,,,,,,,,14,27,F,R,IMT,2021-07-09_14h08.23.940,ImageRatingTask_S1,2021.1.4,MacIntel,59.94125757,,,,,,,,,,,,,,,,,,,,,,,,,,0,2,2,111,1,DreamStudyImages_rs1000x750g/Water/IAPS7492_mountainlake_CROPPED.jpg,,,
,,,,,,,,,,,,,,,main,14,27,F,R,IMT,2021-07-09_14h08.23.940,ImageRatingTask_S1,2021.1.4,MacIntel,59.94125757,,,,,,,,,,,7,7.1214,5,3.9693,6,3.2475,1,5.4683,5,1.3163,0,0,0,0,1,,,,,,,,,
,,,,,,,,,,,,,,,second,14,27,F,R,IMT,2021-07-09_14h08.23.940,ImageRatingTask_S1,2021.1.4,MacIntel,59.94125757,,,,,,,,,,,,,,,,,,,,,0,1,1,1,1,,,,,,,,,
,,,,,,,,,,,,,,,third,14,27,F,R,IMT,2021-07-09_14h08.23.940,ImageRatingTask_S1,2021.1.4,MacIntel,59.94125757,,,,,,,,,,,,,,,,,,,,,0,2,2,2,1,,,,,,,,,
,,,,,,,,,,,,,,,fourth,14,27,F,R,IMT,2021-07-09_14h08.23.940,ImageRatingTask_S1,2021.1.4,MacIntel,59.94125757,,,,,,,,,,,,,,,,,,,,,0,3,3,3,1,,,,,,,,,
,,,,,,,,,,,,,,,fifth,14,27,F,R,IMT,2021-07-09_14h08.23.940,ImageRatingTask_S1,2021.1.4,MacIntel,59.94125757,,,,,,,,,,,,,,,,,,,,,0,4,4,4,1,,,,,,,,,
,,,,,,,,,,,,,,,sixth,14,27,F,R,IMT,2021-07-09_14h08.23.940,ImageRatingTask_S1,2021.1.4,MacIntel,59.94125757,,,,,,,,,,,,,,,,,,,,,0,5,5,5,1,,,,,,,,,
,,,,,,,,,,,,,,,seventh,14,27,F,R,IMT,2021-07-09_14h08.23.940,ImageRatingTask_S1,2021.1.4,MacIntel,59.94125757,,,,,,,,,,,,,,,,,,,,,0,6,6,6,1,,,,,,,,,
,,,,,,,,,,,,,,,last,14,27,F,R,IMT,2021-07-09_14h08.23.940,ImageRatingTask_S1,2021.1.4,MacIntel,59.94125757,,,,,,,,,,,,,,,,,,,,,0,7,7,7,1,,,,,,,,,
,,,,,,,,,,,,,,,,14,27,F,R,IMT,2021-07-09_14h08.23.940,ImageRatingTask_S1,2021.1.4,MacIntel,59.94125757,,,,,,,,,,,,,,,,,,,,,,,,,,0,3,3,61,1,DreamStudyImages_rs1000x750g/Food/Dessert 7.jpg,,,
,,,,,,,,,,,,,,,main,14,27,F,R,IMT,2021-07-09_14h08.23.940,ImageRatingTask_S1,2021.1.4,MacIntel,59.94125757,,,,,,,,,,,7,6.1512,6,3.7265,5,2.1752,1,3.5282,4,1.3041,0,0,0,0,1,,,,,,,,,
,,,,,,,,,,,,,,,second,14,27,F,R,IMT,2021-07-09_14h08.23.940,ImageRatingTask_S1,2021.1.4,MacIntel,59.94125757,,,,,,,,,,,,,,,,,,,,,0,1,1,1,1,,,,,,,,,
,,,,,,,,,,,,,,,third,14,27,F,R,IMT,2021-07-09_14h08.23.940,ImageRatingTask_S1,2021.1.4,MacIntel,59.94125757,,,,,,,,,,,,,,,,,,,,,0,2,2,2,1,,,,,,,,,
,,,,,,,,,,,,,,,fourth,14,27,F,R,IMT,2021-07-09_14h08.23.940,ImageRatingTask_S1,2021.1.4,MacIntel,59.94125757,,,,,,,,,,,,,,,,,,,,,0,3,3,3,1,,,,,,,,,
,,,,,,,,,,,,,,,fifth,14,27,F,R,IMT,2021-07-09_14h08.23.940,ImageRatingTask_S1,2021.1.4,MacIntel,59.94125757,,,,,,,,,,,,,,,,,,,,,0,4,4,4,1,,,,,,,,,
,,,,,,,,,,,,,,,sixth,14,27,F,R,IMT,2021-07-09_14h08.23.940,ImageRatingTask_S1,2021.1.4,MacIntel,59.94125757,,,,,,,,,,,,,,,,,,,,,0,5,5,5,1,,,,,,,,,
,,,,,,,,,,,,,,,seventh,14,27,F,R,IMT,2021-07-09_14h08.23.940,ImageRatingTask_S1,2021.1.4,MacIntel,59.94125757,,,,,,,,,,,,,,,,,,,,,0,6,6,6,1,,,,,,,,,
,,,,,,,,,,,,,,,last,14,27,F,R,IMT,2021-07-09_14h08.23.940,ImageRatingTask_S1,2021.1.4,MacIntel,59.94125757,,,,,,,,,,,,,,,,,,,,,0,7,7,7,1,,,,,,,,,
,,,,,,,,,,,,,,,,14,27,F,R,IMT,2021-07-09_14h08.23.940,ImageRatingTask_S1,2021.1.4,MacIntel,59.94125757,,,,,,,,,,,,,,,,,,,,,,,,,,0,4,4,141,1,DreamStudyImages_rs1000x750g/Mammals/Bear 1.jpg,,,
,,,,,,,,,,,,,,,main,14,27,F,R,IMT,2021-07-09_14h08.23.940,ImageRatingTask_S1,2021.1.4,MacIntel,59.94125757,,,,,,,,,,,4,16.959,1,7.4421,4,3.1932,1,5.3177,2,1.1609,0,0,0,0,1,,,,,,,,,
,,,,,,,,,,,,,,,second,14,27,F,R,IMT,2021-07-09_14h08.23.940,ImageRatingTask_S1,2021.1.4,MacIntel,59.94125757,,,,,,,,,,,,,,,,,,,,,0,1,1,1,1,,,,,,,,,
,,,,,,,,,,,,,,,third,14,27,F,R,IMT,2021-07-09_14h08.23.940,ImageRatingTask_S1,2021.1.4,MacIntel,59.94125757,,,,,,,,,,,,,,,,,,,,,0,2,2,2,1,,,,,,,,,
,,,,,,,,,,,,,,,fourth,14,27,F,R,IMT,2021-07-09_14h08.23.940,ImageRatingTask_S1,2021.1.4,MacIntel,59.94125757,,,,,,,,,,,,,,,,,,,,,0,3,3,3,1,,,,,,,,,
,,,,,,,,,,,,,,,fifth,14,27,F,R,IMT,2021-07-09_14h08.23.940,ImageRatingTask_S1,2021.1.4,MacIntel,59.94125757,,,,,,,,,,,,,,,,,,,,,0,4,4,4,1,,,,,,,,,
,,,,,,,,,,,,,,,sixth,14,27,F,R,IMT,2021-07-09_14h08.23.940,ImageRatingTask_S1,2021.1.4,MacIntel,59.94125757,,,,,,,,,,,,,,,,,,,,,0,5,5,5,1,,,,,,,,,
,,,,,,,,,,,,,,,seventh,14,27,F,R,IMT,2021-07-09_14h08.23.940,ImageRatingTask_S1,2021.1.4,MacIntel,59.94125757,,,,,,,,,,,,,,,,,,,,,0,6,6,6,1,,,,,,,,,
,,,,,,,,,,,,,,,last,14,27,F,R,IMT,2021-07-09_14h08.23.940,ImageRatingTask_S1,2021.1.4,MacIntel,59.94125757,,,,,,,,,,,,,,,,,,,,,0,7,7,7,1,,,,,,,,,
,,,,,,,,,,,,,,,,14,27,F,R,IMT,2021-07-09_14h08.23.940,ImageRatingTask_S1,2021.1.4,MacIntel,59.94125757,,,,,,,,,,,,,,,,,,,,,,,,,,0,5,5,84,1,DreamStudyImages_rs1000x750g/Children/IAPS3350_baby28.jpg,,,
,,,,,,,,,,,,,,,main,14,27,F,R,IMT,2021-07-09_14h08.23.940,ImageRatingTask_S1,2021.1.4,MacIntel,59.94125757,,,,,,,,,,,5,4.231,1,9.2934,3,3.1363,1,3.7407,2,0.964,0,0,0,0,1,,,,,,,,,
,,,,,,,,,,,,,,,second,14,27,F,R,IMT,2021-07-09_14h08.23.940,ImageRatingTask_S1,2021.1.4,MacIntel,59.94125757,,,,,,,,,,,,,,,,,,,,,0,1,1,1,1,,,,,,,,,
,,,,,,,,,,,,,,,third,14,27,F,R,IMT,2021-07-09_14h08.23.940,ImageRatingTask_S1,2021.1.4,MacIntel,59.94125757,,,,,,,,,,,,,,,,,,,,,0,2,2,2,1,,,,,,,,,
,,,,,,,,,,,,,,,fourth,14,27,F,R,IMT,2021-07-09_14h08.23.940,ImageRatingTask_S1,2021.1.4,MacIntel,59.94125757,,,,,,,,,,,,,,,,,,,,,0,3,3,3,1,,,,,,,,,
,,,,,,,,,,,,,,,fifth,14,27,F,R,IMT,2021-07-09_14h08.23.940,ImageRatingTask_S1,2021.1.4,MacIntel,59.94125757,,,,,,,,,,,,,,,,,,,,,0,4,4,4,1,,,,,,,,,
,,,,,,,,,,,,,,,sixth,14,27,F,R,IMT,2021-07-09_14h08.23.940,ImageRatingTask_S1,2021.1.4,MacIntel,59.94125757,,,,,,,,,,,,,,,,,,,,,0,5,5,5,1,,,,,,,,,
,,,,,,,,,,,,,,,seventh,14,27,F,R,IMT,2021-07-09_14h08.23.940,ImageRatingTask_S1,2021.1.4,MacIntel,59.94125757,,,,,,,,,,,,,,,,,,,,,0,6,6,6,1,,,,,,,,,
,,,,,,,,,,,,,,,last,14,27,F,R,IMT,2021-07-09_14h08.23.940,ImageRatingTask_S1,2021.1.4,MacIntel,59.94125757,,,,,,,,,,,,,,,,,,,,,0,7,7,7,1,,,,,,,,,
,,,,,,,,,,,,,,,,14,27,F,R,IMT,2021-07-09_14h08.23.940,ImageRatingTask_S1,2021.1.4,MacIntel,59.94125757,,,,,,,,,,,,,,,,,,,,,,,,,,0,6,6,6,1,DreamStudyImages_rs1000x750g/Children/Faces_136_v.jpg,,,
,,,,,,,,,,,,,,,main,14,27,F,R,IMT,2021-07-09_14h08.23.940,ImageRatingTask_S1,2021.1.4,MacIntel,59.94125757,,,,,,,,,,,5,25.1319,1,4.3932,3,2.9404,1,7.8368,6,1.2392,0,0,0,0,1,,,,,,,,,
,,,,,,,,,,,,,,,second,14,27,F,R,IMT,2021-07-09_14h08.23.940,ImageRatingTask_S1,2021.1.4,MacIntel,59.94125757,,,,,,,,,,,,,,,,,,,,,0,1,1,1,1,,,,,,,,,
,,,,,,,,,,,,,,,third,14,27,F,R,IMT,2021-07-09_14h08.23.940,ImageRatingTask_S1,2021.1.4,MacIntel,59.94125757,,,,,,,,,,,,,,,,,,,,,0,2,2,2,1,,,,,,,,,
,,,,,,,,,,,,,,,fourth,14,27,F,R,IMT,2021-07-09_14h08.23.940,ImageRatingTask_S1,2021.1.4,MacIntel,59.94125757,,,,,,,,,,,,,,,,,,,,,0,3,3,3,1,,,,,,,,,
,,,,,,,,,,,,,,,fifth,14,27,F,R,IMT,2021-07-09_14h08.23.940,ImageRatingTask_S1,2021.1.4,MacIntel,59.94125757,,,,,,,,,,,,,,,,,,,,,0,4,4,4,1,,,,,,,,,
,,,,,,,,,,,,,,,sixth,14,27,F,R,IMT,2021-07-09_14h08.23.940,ImageRatingTask_S1,2021.1.4,MacIntel,59.94125757,,,,,,,,,,,,,,,,,,,,,0,5,5,5,1,,,,,,,,,
,,,,,,,,,,,,,,,seventh,14,27,F,R,IMT,2021-07-09_14h08.23.940,ImageRatingTask_S1,2021.1.4,MacIntel,59.94125757,,,,,,,,,,,,,,,,,,,,,0,6,6,6,1,,,,,,,,,
,,,,,,,,,,,,,,,last,14,27,F,R,IMT,2021-07-09_14h08.23.940,ImageRatingTask_S1,2021.1.4,MacIntel,59.94125757,,,,,,,,,,,,,,,,,,,,,0,7,7,7,1,,,,,,,,,
,,,,,,,,,,,,,,,,14,27,F,R,IMT,2021-07-09_14h08.23.940,ImageRatingTask_S1,2021.1.4,MacIntel,59.94125757,,,,,,,,,,,,,,,,,,,,,,,,,,0,7,7,152,1,DreamStudyImages_rs1000x750g/Houses/IAPS7504_staircases.jpg,,,
,,,,,,,,,,,,,,,main,14,27,F,R,IMT,2021-07-09_14h08.23.940,ImageRatingTask_S1,2021.1.4,MacIntel,59.94125757,,,,,,,,,,,5,3.2722,1,2.0715,2,5.3734,1,4.9505,7,1.1745,0,0,0,0,1,,,,,,,,,
,,,,,,,,,,,,,,,second,14,27,F,R,IMT,2021-07-09_14h08.23.940,ImageRatingTask_S1,2021.1.4,MacIntel,59.94125757,,,,,,,,,,,,,,,,,,,,,0,1,1,1,1,,,,,,,,,
,,,,,,,,,,,,,,,third,14,27,F,R,IMT,2021-07-09_14h08.23.940,ImageRatingTask_S1,2021.1.4,MacIntel,59.94125757,,,,,,,,,,,,,,,,,,,,,0,2,2,2,1,,,,,,,,,
,,,,,,,,,,,,,,,fourth,14,27,F,R,IMT,2021-07-09_14h08.23.940,ImageRatingTask_S1,2021.1.4,MacIntel,59.94125757,,,,,,,,,,,,,,,,,,,,,0,3,3,3,1,,,,,,,,,
,,,,,,,,,,,,,,,fifth,14,27,F,R,IMT,2021-07-09_14h08.23.940,ImageRatingTask_S1,2021.1.4,MacIntel,59.94125757,,,,,,,,,,,,,,,,,,,,,0,4,4,4,1,,,,,,,,,
,,,,,,,,,,,,,,,sixth,14,27,F,R,IMT,2021-07-09_14h08.23.940,ImageRatingTask_S1,2021.1.4,MacIntel,59.94125757,,,,,,,,,,,,,,,,,,,,,0,5,5,5,1,,,,,,,,,
,,,,,,,,,,,,,,,seventh,14,27,F,R,IMT,2021-07-09_14h08.23.940,ImageRatingTask_S1,2021.1.4,MacIntel,59.94125757,,,,,,,,,,,,,,,,,,,,,0,6,6,6,1,,,,,,,,,
,,,,,,,,,,,,,,,last,14,27,F,R,IMT,2021-07-09_14h08.23.940,ImageRatingTask_S1,2021.1.4,MacIntel,59.94125757,,,,,,,,,,,,,,,,,,,,,0,7,7,7,1,,,,,,,,,
,,,,,,,,,,,,,,,,14,27,F,R,IMT,2021-07-09_14h08.23.940,ImageRatingTask_S1,2021.1.4,MacIntel,59.94125757,,,,,,,,,,,,,,,,,,,,,,,,,,0,8,8,137,1,DreamStudyImages_rs1000x750g/Vehicles/Car 2.jpg,,,
,,,,,,,,,,,,,,,main,14,27,F,R,IMT,2021-07-09_14h08.23.940,ImageRatingTask_S1,2021.1.4,MacIntel,59.94125757,,,,,,,,,,,3,46.204,2,3.5684,4,2.8743,1,4.826,6,1.0417,0,0,0,0,1,,,,,,,,,
,,,,,,,,,,,,,,,second,14,27,F,R,IMT,2021-07-09_14h08.23.940,ImageRatingTask_S1,2021.1.4,MacIntel,59.94125757,,,,,,,,,,,,,,,,,,,,,0,1,1,1,1,,,,,,,,,
,,,,,,,,,,,,,,,third,14,27,F,R,IMT,2021-07-09_14h08.23.940,ImageRatingTask_S1,2021.1.4,MacIntel,59.94125757,,,,,,,,,,,,,,,,,,,,,0,2,2,2,1,,,,,,,,,
,,,,,,,,,,,,,,,fourth,14,27,F,R,IMT,2021-07-09_14h08.23.940,ImageRatingTask_S1,2021.1.4,MacIntel,59.94125757,,,,,,,,,,,,,,,,,,,,,0,3,3,3,1,,,,,,,,,
,,,,,,,,,,,,,,,fifth,14,27,F,R,IMT,2021-07-09_14h08.23.940,ImageRatingTask_S1,2021.1.4,MacIntel,59.94125757,,,,,,,,,,,,,,,,,,,,,0,4,4,4,1,,,,,,,,,
,,,,,,,,,,,,,,,sixth,14,27,F,R,IMT,2021-07-09_14h08.23.940,ImageRatingTask_S1,2021.1.4,MacIntel,59.94125757,,,,,,,,,,,,,,,,,,,,,0,5,5,5,1,,,,,,,,,
,,,,,,,,,,,,,,,seventh,14,27,F,R,IMT,2021-07-09_14h08.23.940,ImageRatingTask_S1,2021.1.4,MacIntel,59.94125757,,,,,,,,,,,,,,,,,,,,,0,6,6,6,1,,,,,,,,,
,,,,,,,,,,,,,,,last,14,27,F,R,IMT,2021-07-09_14h08.23.940,ImageRatingTask_S1,2021.1.4,MacIntel,59.94125757,,,,,,,,,,,,,,,,,,,,,0,7,7,7,1,,,,,,,,,
,,,,,,,,,,,,,,,,14,27,F,R,IMT,2021-07-09_14h08.23.940,ImageRatingTask_S1,2021.1.4,MacIntel,59.94125757,,,,,,,,,,,,,,,,,,,,,,,,,,0,9,9,154,1,DreamStudyImages_rs1000x750g/Houses/NDPS29_buildings7.jpg,,,
,,,,,,,,,,,,,,,main,14,27,F,R,IMT,2021-07-09_14h08.23.940,ImageRatingTask_S1,2021.1.4,MacIntel,59.94125757,,,,,,,,,,,2,4.5603,3,4.6058,5,1.9153,1,6.254,2,0.8978,0,0,0,0,1,,,,,,,,,
,,,,,,,,,,,,,,,second,14,27,F,R,IMT,2021-07-09_14h08.23.940,ImageRatingTask_S1,2021.1.4,MacIntel,59.94125757,,,,,,,,,,,,,,,,,,,,,0,1,1,1,1,,,,,,,,,
,,,,,,,,,,,,,,,third,14,27,F,R,IMT,2021-07-09_14h08.23.940,ImageRatingTask_S1,2021.1.4,MacIntel,59.94125757,,,,,,,,,,,,,,,,,,,,,0,2,2,2,1,,,,,,,,,
,,,,,,,,,,,,,,,fourth,14,27,F,R,IMT,2021-07-09_14h08.23.940,ImageRatingTask_S1,2021.1.4,MacIntel,59.94125757,,,,,,,,,,,,,,,,,,,,,0,3,3,3,1,,,,,,,,,
,,,,,,,,,,,,,,,fifth,14,27,F,R,IMT,2021-07-09_14h08.23.940,ImageRatingTask_S1,2021.1.4,MacIntel,59.94125757,,,,,,,,,,,,,,,,,,,,,0,4,4,4,1,,,,,,,,,
,,,,,,,,,,,,,,,sixth,14,27,F,R,IMT,2021-07-09_14h08.23.940,ImageRatingTask_S1,2021.1.4,MacIntel,59.94125757,,,,,,,,,,,,,,,,,,,,,0,5,5,5,1,,,,,,,,,
,,,,,,,,,,,,,,,seventh,14,27,F,R,IMT,2021-07-09_14h08.23.940,ImageRatingTask_S1,2021.1.4,MacIntel,59.94125757,,,,,,,,,,,,,,,,,,,,,0,6,6,6,1,,,,,,,,,
,,,,,,,,,,,,,,,last,14,27,F,R,IMT,2021-07-09_14h08.23.940,ImageRatingTask_S1,2021.1.4,MacIntel,59.94125757,,,,,,,,,,,,,,,,,,,,,0,7,7,7,1,,,,,,,,,
,,,,,,,,,,,,,,,,14,27,F,R,IMT,2021-07-09_14h08.23.940,ImageRatingTask_S1,2021.1.4,MacIntel,59.94125757,,,,,,,,,,,,,,,,,,,,,,,,,,0,10,10,12,1,DreamStudyImages_rs1000x750g/Children/Faces_011_h.jpg,,,
,,,,,,,,,,,,,,,main,14,27,F,R,IMT,2021-07-09_14h08.23.940,ImageRatingTask_S1,2021.1.4,MacIntel,59.94125757,,,,,,,,,,,6,6.6811,1,1.5157,6,2.5907,1,5.7734,8,2.0273,0,0,0,0,1,,,,,,,,,
,,,,,,,,,,,,,,,second,14,27,F,R,IMT,2021-07-09_14h08.23.940,ImageRatingTask_S1,2021.1.4,MacIntel,59.94125757,,,,,,,,,,,,,,,,,,,,,0,1,1,1,1,,,,,,,,,
,,,,,,,,,,,,,,,third,14,27,F,R,IMT,2021-07-09_14h08.23.940,ImageRatingTask_S1,2021.1.4,MacIntel,59.94125757,,,,,,,,,,,,,,,,,,,,,0,2,2,2,1,,,,,,,,,
,,,,,,,,,,,,,,,fourth,14,27,F,R,IMT,2021-07-09_14h08.23.940,ImageRatingTask_S1,2021.1.4,MacIntel,59.94125757,,,,,,,,,,,,,,,,,,,,,0,3,3,3,1,,,,,,,,,
,,,,,,,,,,,,,,,fifth,14,27,F,R,IMT,2021-07-09_14h08.23.940,ImageRatingTask_S1,2021.1.4,MacIntel,59.94125757,,,,,,,,,,,,,,,,,,,,,0,4,4,4,1,,,,,,,,,
,,,,,,,,,,,,,,,sixth,14,27,F,R,IMT,2021-07-09_14h08.23.940,ImageRatingTask_S1,2021.1.4,MacIntel,59.94125757,,,,,,,,,,,,,,,,,,,,,0,5,5,5,1,,,,,,,,,
,,,,,,,,,,,,,,,seventh,14,27,F,R,IMT,2021-07-09_14h08.23.940,ImageRatingTask_S1,2021.1.4,MacIntel,59.94125757,,,,,,,,,,,,,,,,,,,,,0,6,6,6,1,,,,,,,,,
,,,,,,,,,,,,,,,last,14,27,F,R,IMT,2021-07-09_14h08.23.940,ImageRatingTask_S1,2021.1.4,MacIntel,59.94125757,,,,,,,,,,,,,,,,,,,,,0,7,7,7,1,,,,,,,,,
,,,,,,,,,,,,,,,,14,27,F,R,IMT,2021-07-09_14h08.23.940,ImageRatingTask_S1,2021.1.4,MacIntel,59.94125757,,,,,,,,,,,,,,,,,,,,,,,,,,0,11,11,22,1,DreamStudyImages_rs1000x750g/Water/Landscapes_176_h.jpg,,,
,,,,,,,,,,,,,,,main,14,27,F,R,IMT,2021-07-09_14h08.23.940,ImageRatingTask_S1,2021.1.4,MacIntel,59.94125757,,,,,,,,,,,4,7.1423,4,3.2944,6,1.8042,1,4.0503,7,0.9483,0,0,0,0,1,,,,,,,,,
,,,,,,,,,,,,,,,second,14,27,F,R,IMT,2021-07-09_14h08.23.940,ImageRatingTask_S1,2021.1.4,MacIntel,59.94125757,,,,,,,,,,,,,,,,,,,,,0,1,1,1,1,,,,,,,,,
,,,,,,,,,,,,,,,third,14,27,F,R,IMT,2021-07-09_14h08.23.940,ImageRatingTask_S1,2021.1.4,MacIntel,59.94125757,,,,,,,,,,,,,,,,,,,,,0,2,2,2,1,,,,,,,,,
,,,,,,,,,,,,,,,fourth,14,27,F,R,IMT,2021-07-09_14h08.23.940,ImageRatingTask_S1,2021.1.4,MacIntel,59.94125757,,,,,,,,,,,,,,,,,,,,,0,3,3,3,1,,,,,,,,,
,,,,,,,,,,,,,,,fifth,14,27,F,R,IMT,2021-07-09_14h08.23.940,ImageRatingTask_S1,2021.1.4,MacIntel,59.94125757,,,,,,,,,,,,,,,,,,,,,0,4,4,4,1,,,,,,,,,
,,,,,,,,,,,,,,,sixth,14,27,F,R,IMT,2021-07-09_14h08.23.940,ImageRatingTask_S1,2021.1.4,MacIntel,59.94125757,,,,,,,,,,,,,,,,,,,,,0,5,5,5,1,,,,,,,,,
,,,,,,,,,,,,,,,seventh,14,27,F,R,IMT,2021-07-09_14h08.23.940,ImageRatingTask_S1,2021.1.4,MacIntel,59.94125757,,,,,,,,,,,,,,,,,,,,,0,6,6,6,1,,,,,,,,,
,,,,,,,,,,,,,,,last,14,27,F,R,IMT,2021-07-09_14h08.23.940,ImageRatingTask_S1,2021.1.4,MacIntel,59.94125757,,,,,,,,,,,,,,,,,,,,,0,7,7,7,1,,,,,,,,,
,,,,,,,,,,,,,,,,14,27,F,R,IMT,2021-07-09_14h08.23.940,ImageRatingTask_S1,2021.1.4,MacIntel,59.94125757,,,,,,,,,,,,,,,,,,,,,,,,,,0,12,12,55,1,DreamStudyImages_rs1000x750g/Vehicles/Objects_291_h.jpg,,,
,,,,,,,,,,,,,,,main,14,27,F,R,IMT,2021-07-09_14h08.23.940,ImageRatingTask_S1,2021.1.4,MacIntel,59.94125757,,,,,,,,,,,5,5.8035,1,0.7522,4,2.2556,1,16.7736,3,3.4169,0,0,0,0,1,,,,,,,,,
,,,,,,,,,,,,,,,second,14,27,F,R,IMT,2021-07-09_14h08.23.940,ImageRatingTask_S1,2021.1.4,MacIntel,59.94125757,,,,,,,,,,,,,,,,,,,,,0,1,1,1,1,,,,,,,,,
,,,,,,,,,,,,,,,third,14,27,F,R,IMT,2021-07-09_14h08.23.940,ImageRatingTask_S1,2021.1.4,MacIntel,59.94125757,,,,,,,,,,,,,,,,,,,,,0,2,2,2,1,,,,,,,,,
,,,,,,,,,,,,,,,fourth,14,27,F,R,IMT,2021-07-09_14h08.23.940,ImageRatingTask_S1,2021.1.4,MacIntel,59.94125757,,,,,,,,,,,,,,,,,,,,,0,3,3,3,1,,,,,,,,,
,,,,,,,,,,,,,,,fifth,14,27,F,R,IMT,2021-07-09_14h08.23.940,ImageRatingTask_S1,2021.1.4,MacIntel,59.94125757,,,,,,,,,,,,,,,,,,,,,0,4,4,4,1,,,,,,,,,
,,,,,,,,,,,,,,,sixth,14,27,F,R,IMT,2021-07-09_14h08.23.940,ImageRatingTask_S1,2021.1.4,MacIntel,59.94125757,,,,,,,,,,,,,,,,,,,,,0,5,5,5,1,,,,,,,,,
,,,,,,,,,,,,,,,seventh,14,27,F,R,IMT,2021-07-09_14h08.23.940,ImageRatingTask_S1,2021.1.4,MacIntel,59.94125757,,,,,,,,,,,,,,,,,,,,,0,6,6,6,1,,,,,,,,,
,,,,,,,,,,,,,,,last,14,27,F,R,IMT,2021-07-09_14h08.23.940,ImageRatingTask_S1,2021.1.4,MacIntel,59.94125757,,,,,,,,,,,,,,,,,,,,,0,7,7,7,1,,,,,,,,,
,,,,,,,,,,,,,,,,14,27,F,R,IMT,2021-07-09_14h08.23.940,ImageRatingTask_S1,2021.1.4,MacIntel,59.94125757,,,,,,,,,,,,,,,,,,,,,,,,,,0,13,13,43,1,DreamStudyImages_rs1000x750g/Mammals/Animals_124_v.jpg,,,
,,,,,,,,,,,,,,,main,14,27,F,R,IMT,2021-07-09_14h08.23.940,ImageRatingTask_S1,2021.1.4,MacIntel,59.94125757,,,,,,,,,,,6,5.2285,3,2.6122,2,2.8102,1,3.7202,8,2.0185,0,0,0,0,1,,,,,,,,,
,,,,,,,,,,,,,,,second,14,27,F,R,IMT,2021-07-09_14h08.23.940,ImageRatingTask_S1,2021.1.4,MacIntel,59.94125757,,,,,,,,,,,,,,,,,,,,,0,1,1,1,1,,,,,,,,,
,,,,,,,,,,,,,,,third,14,27,F,R,IMT,2021-07-09_14h08.23.940,ImageRatingTask_S1,2021.1.4,MacIntel,59.94125757,,,,,,,,,,,,,,,,,,,,,0,2,2,2,1,,,,,,,,,
,,,,,,,,,,,,,,,fourth,14,27,F,R,IMT,2021-07-09_14h08.23.940,ImageRatingTask_S1,2021.1.4,MacIntel,59.94125757,,,,,,,,,,,,,,,,,,,,,0,3,3,3,1,,,,,,,,,
,,,,,,,,,,,,,,,fifth,14,27,F,R,IMT,2021-07-09_14h08.23.940,ImageRatingTask_S1,2021.1.4,MacIntel,59.94125757,,,,,,,,,,,,,,,,,,,,,0,4,4,4,1,,,,,,,,,
,,,,,,,,,,,,,,,sixth,14,27,F,R,IMT,2021-07-09_14h08.23.940,ImageRatingTask_S1,2021.1.4,MacIntel,59.94125757,,,,,,,,,,,,,,,,,,,,,0,5,5,5,1,,,,,,,,,
,,,,,,,,,,,,,,,seventh,14,27,F,R,IMT,2021-07-09_14h08.23.940,ImageRatingTask_S1,2021.1.4,MacIntel,59.94125757,,,,,,,,,,,,,,,,,,,,,0,6,6,6,1,,,,,,,,,
,,,,,,,,,,,,,,,last,14,27,F,R,IMT,2021-07-09_14h08.23.940,ImageRatingTask_S1,2021.1.4,MacIntel,59.94125757,,,,,,,,,,,,,,,,,,,,,0,7,7,7,1,,,,,,,,,
,,,,,,,,,,,,,,,,14,27,F,R,IMT,2021-07-09_14h08.23.940,ImageRatingTask_S1,2021.1.4,MacIntel,59.94125757,,,,,,,,,,,,,,,,,,,,,,,,,,0,14,14,99,1,DreamStudyImages_rs1000x750g/Water/Lake 15.jpg,,,
,,,,,,,,,,,,,,,main,14,27,F,R,IMT,2021-07-09_14h08.23.940,ImageRatingTask_S1,2021.1.4,MacIntel,59.94125757,,,,,,,,,,,5,4.2504,1,1.0669,3,2.9619,1,6.0162,6,0.9832,0,0,0,0,1,,,,,,,,,
,,,,,,,,,,,,,,,second,14,27,F,R,IMT,2021-07-09_14h08.23.940,ImageRatingTask_S1,2021.1.4,MacIntel,59.94125757,,,,,,,,,,,,,,,,,,,,,0,1,1,1,1,,,,,,,,,
,,,,,,,,,,,,,,,third,14,27,F,R,IMT,2021-07-09_14h08.23.940,ImageRatingTask_S1,2021.1.4,MacIntel,59.94125757,,,,,,,,,,,,,,,,,,,,,0,2,2,2,1,,,,,,,,,
,,,,,,,,,,,,,,,fourth,14,27,F,R,IMT,2021-07-09_14h08.23.940,ImageRatingTask_S1,2021.1.4,MacIntel,59.94125757,,,,,,,,,,,,,,,,,,,,,0,3,3,3,1,,,,,,,,,
,,,,,,,,,,,,,,,fifth,14,27,F,R,IMT,2021-07-09_14h08.23.940,ImageRatingTask_S1,2021.1.4,MacIntel,59.94125757,,,,,,,,,,,,,,,,,,,,,0,4,4,4,1,,,,,,,,,
,,,,,,,,,,,,,,,sixth,14,27,F,R,IMT,2021-07-09_14h08.23.940,ImageRatingTask_S1,2021.1.4,MacIntel,59.94125757,,,,,,,,,,,,,,,,,,,,,0,5,5,5,1,,,,,,,,,
,,,,,,,,,,,,,,,seventh,14,27,F,R,IMT,2021-07-09_14h08.23.940,ImageRatingTask_S1,2021.1.4,MacIntel,59.94125757,,,,,,,,,,,,,,,,,,,,,0,6,6,6,1,,,,,,,,,
,,,,,,,,,,,,,,,last,14,27,F,R,IMT,2021-07-09_14h08.23.940,ImageRatingTask_S1,2021.1.4,MacIntel,59.94125757,,,,,,,,,,,,,,,,,,,,,0,7,7,7,1,,,,,,,,,
,,,,,,,,,,,,,,,,14,27,F,R,IMT,2021-07-09_14h08.23.940,ImageRatingTask_S1,2021.1.4,MacIntel,59.94125757,,,,,,,,,,,,,,,,,,,,,,,,,,0,15,15,143,1,DreamStudyImages_rs1000x750g/Houses/Landscapes_027_v.jpg,,,
,,,,,,,,,,,,,,,main,14,27,F,R,IMT,2021-07-09_14h08.23.940,ImageRatingTask_S1,2021.1.4,MacIntel,59.94125757,,,,,,,,,,,5,5.74,1,1.2463,4,3.8565,1,4.1004,7,1.4661,0,0,0,0,1,,,,,,,,,
,,,,,,,,,,,,,,,second,14,27,F,R,IMT,2021-07-09_14h08.23.940,ImageRatingTask_S1,2021.1.4,MacIntel,59.94125757,,,,,,,,,,,,,,,,,,,,,0,1,1,1,1,,,,,,,,,
,,,,,,,,,,,,,,,third,14,27,F,R,IMT,2021-07-09_14h08.23.940,ImageRatingTask_S1,2021.1.4,MacIntel,59.94125757,,,,,,,,,,,,,,,,,,,,,0,2,2,2,1,,,,,,,,,
,,,,,,,,,,,,,,,fourth,14,27,F,R,IMT,2021-07-09_14h08.23.940,ImageRatingTask_S1,2021.1.4,MacIntel,59.94125757,,,,,,,,,,,,,,,,,,,,,0,3,3,3,1,,,,,,,,,
,,,,,,,,,,,,,,,fifth,14,27,F,R,IMT,2021-07-09_14h08.23.940,ImageRatingTask_S1,2021.1.4,MacIntel,59.94125757,,,,,,,,,,,,,,,,,,,,,0,4,4,4,1,,,,,,,,,
,,,,,,,,,,,,,,,sixth,14,27,F,R,IMT,2021-07-09_14h08.23.940,ImageRatingTask_S1,2021.1.4,MacIntel,59.94125757,,,,,,,,,,,,,,,,,,,,,0,5,5,5,1,,,,,,,,,
,,,,,,,,,,,,,,,seventh,14,27,F,R,IMT,2021-07-09_14h08.23.940,ImageRatingTask_S1,2021.1.4,MacIntel,59.94125757,,,,,,,,,,,,,,,,,,,,,0,6,6,6,1,,,,,,,,,
,,,,,,,,,,,,,,,last,14,27,F,R,IMT,2021-07-09_14h08.23.940,ImageRatingTask_S1,2021.1.4,MacIntel,59.94125757,,,,,,,,,,,,,,,,,,,,,0,7,7,7,1,,,,,,,,,
,,,,,,,,,,,,,,,,14,27,F,R,IMT,2021-07-09_14h08.23.940,ImageRatingTask_S1,2021.1.4,MacIntel,59.94125757,,,,,,,,,,,,,,,,,,,,,,,,,,0,16,16,122,1,DreamStudyImages_rs1000x750g/Vehicles/Objects_309_h.jpg,,,
,,,,,,,,,,,,,,,main,14,27,F,R,IMT,2021-07-09_14h08.23.940,ImageRatingTask_S1,2021.1.4,MacIntel,59.94125757,,,,,,,,,,,1,11.1088,7,3.8174,6,23.8522,0,3.875,,,0,0,0,0,1,,,,,,,,,
,,,,,,,,,,,,,,,second,14,27,F,R,IMT,2021-07-09_14h08.23.940,ImageRatingTask_S1,2021.1.4,MacIntel,59.94125757,,,,,,,,,,,,,,,,,,,,,0,1,1,1,1,,,,,,,,,
,,,,,,,,,,,,,,,third,14,27,F,R,IMT,2021-07-09_14h08.23.940,ImageRatingTask_S1,2021.1.4,MacIntel,59.94125757,,,,,,,,,,,,,,,,,,,,,0,2,2,2,1,,,,,,,,,
,,,,,,,,,,,,,,,fourth,14,27,F,R,IMT,2021-07-09_14h08.23.940,ImageRatingTask_S1,2021.1.4,MacIntel,59.94125757,,,,,,,,,,,,,,,,,,,,,0,3,3,3,1,,,,,,,,,
,,,,,,,,,,,,,,,fifth,14,27,F,R,IMT,2021-07-09_14h08.23.940,ImageRatingTask_S1,2021.1.4,MacIntel,59.94125757,,,,,,,,,,,,,,,,,,,,,0,4,4,4,1,,,,,,,,,
,,,,,,,,,,,,,,,sixth,14,27,F,R,IMT,2021-07-09_14h08.23.940,ImageRatingTask_S1,2021.1.4,MacIntel,59.94125757,,,,,,,,,,,,,,,,,,,,,0,5,5,5,1,,,,,,,,,
,,,,,,,,,,,,,,,seventh,14,27,F,R,IMT,2021-07-09_14h08.23.940,ImageRatingTask_S1,2021.1.4,MacIntel,59.94125757,,,,,,,,,,,,,,,,,,,,,0,6,6,6,1,,,,,,,,,
,,,,,,,,,,,,,,,last,14,27,F,R,IMT,2021-07-09_14h08.23.940,ImageRatingTask_S1,2021.1.4,MacIntel,59.94125757,,,,,,,,,,,,,,,,,,,,,0,7,7,7,1,,,,,,,,,
,,,,,,,,,,,,,,,,14,27,F,R,IMT,2021-07-09_14h08.23.940,ImageRatingTask_S1,2021.1.4,MacIntel,59.94125757,,,,,,,,,,,,,,,,,,,,,,,,,,0,17,17,140,1,DreamStudyImages_rs1000x750g/Food/Objects_093_h.jpg,,,
,,,,,,,,,,,,,,,main,14,27,F,R,IMT,2021-07-09_14h08.23.940,ImageRatingTask_S1,2021.1.4,MacIntel,59.94125757,,,,,,,,,,,1,6.3571,7,2.2884,7,2.83,1,13.4766,4,1.6707,0,0,0,0,1,,,,,,,,,
,,,,,,,,,,,,,,,second,14,27,F,R,IMT,2021-07-09_14h08.23.940,ImageRatingTask_S1,2021.1.4,MacIntel,59.94125757,,,,,,,,,,,,,,,,,,,,,0,1,1,1,1,,,,,,,,,
,,,,,,,,,,,,,,,third,14,27,F,R,IMT,2021-07-09_14h08.23.940,ImageRatingTask_S1,2021.1.4,MacIntel,59.94125757,,,,,,,,,,,,,,,,,,,,,0,2,2,2,1,,,,,,,,,
,,,,,,,,,,,,,,,fourth,14,27,F,R,IMT,2021-07-09_14h08.23.940,ImageRatingTask_S1,2021.1.4,MacIntel,59.94125757,,,,,,,,,,,,,,,,,,,,,0,3,3,3,1,,,,,,,,,
,,,,,,,,,,,,,,,fifth,14,27,F,R,IMT,2021-07-09_14h08.23.940,ImageRatingTask_S1,2021.1.4,MacIntel,59.94125757,,,,,,,,,,,,,,,,,,,,,0,4,4,4,1,,,,,,,,,
,,,,,,,,,,,,,,,sixth,14,27,F,R,IMT,2021-07-09_14h08.23.940,ImageRatingTask_S1,2021.1.4,MacIntel,59.94125757,,,,,,,,,,,,,,,,,,,,,0,5,5,5,1,,,,,,,,,
,,,,,,,,,,,,,,,seventh,14,27,F,R,IMT,2021-07-09_14h08.23.940,ImageRatingTask_S1,2021.1.4,MacIntel,59.94125757,,,,,,,,,,,,,,,,,,,,,0,6,6,6,1,,,,,,,,,
,,,,,,,,,,,,,,,last,14,27,F,R,IMT,2021-07-09_14h08.23.940,ImageRatingTask_S1,2021.1.4,MacIntel,59.94125757,,,,,,,,,,,,,,,,,,,,,0,7,7,7,1,,,,,,,,,
,,,,,,,,,,,,,,,,14,27,F,R,IMT,2021-07-09_14h08.23.940,ImageRatingTask_S1,2021.1.4,MacIntel,59.94125757,,,,,,,,,,,,,,,,,,,,,,,,,,0,18,18,125,1,DreamStudyImages_rs1000x750g/Mammals/IAPS1617_mole.jpg,,,
,,,,,,,,,,,,,,,main,14,27,F,R,IMT,2021-07-09_14h08.23.940,ImageRatingTask_S1,2021.1.4,MacIntel,59.94125757,,,,,,,,,,,7,4.7068,3,2.5675,6,1.8974,1,3.866,2,0.8945,0,0,0,0,1,,,,,,,,,
,,,,,,,,,,,,,,,second,14,27,F,R,IMT,2021-07-09_14h08.23.940,ImageRatingTask_S1,2021.1.4,MacIntel,59.94125757,,,,,,,,,,,,,,,,,,,,,0,1,1,1,1,,,,,,,,,
,,,,,,,,,,,,,,,third,14,27,F,R,IMT,2021-07-09_14h08.23.940,ImageRatingTask_S1,2021.1.4,MacIntel,59.94125757,,,,,,,,,,,,,,,,,,,,,0,2,2,2,1,,,,,,,,,
,,,,,,,,,,,,,,,fourth,14,27,F,R,IMT,2021-07-09_14h08.23.940,ImageRatingTask_S1,2021.1.4,MacIntel,59.94125757,,,,,,,,,,,,,,,,,,,,,0,3,3,3,1,,,,,,,,,
,,,,,,,,,,,,,,,fifth,14,27,F,R,IMT,2021-07-09_14h08.23.940,ImageRatingTask_S1,2021.1.4,MacIntel,59.94125757,,,,,,,,,,,,,,,,,,,,,0,4,4,4,1,,,,,,,,,
,,,,,,,,,,,,,,,sixth,14,27,F,R,IMT,2021-07-09_14h08.23.940,ImageRatingTask_S1,2021.1.4,MacIntel,59.94125757,,,,,,,,,,,,,,,,,,,,,0,5,5,5,1,,,,,,,,,
,,,,,,,,,,,,,,,seventh,14,27,F,R,IMT,2021-07-09_14h08.23.940,ImageRatingTask_S1,2021.1.4,MacIntel,59.94125757,,,,,,,,,,,,,,,,,,,,,0,6,6,6,1,,,,,,,,,
,,,,,,,,,,,,,,,last,14,27,F,R,IMT,2021-07-09_14h08.23.940,ImageRatingTask_S1,2021.1.4,MacIntel,59.94125757,,,,,,,,,,,,,,,,,,,,,0,7,7,7,1,,,,,,,,,
,,,,,,,,,,,,,,,,14,27,F,R,IMT,2021-07-09_14h08.23.940,ImageRatingTask_S1,2021.1.4,MacIntel,59.94125757,,,,,,,,,,,,,,,,,,,,,,,,,,0,19,19,113,1,DreamStudyImages_rs1000x750g/Children/People_036_h.jpg,,,
,,,,,,,,,,,,,,,main,14,27,F,R,IMT,2021-07-09_14h08.23.940,ImageRatingTask_S1,2021.1.4,MacIntel,59.94125757,,,,,,,,,,,6,4.5142,3,2.6501,6,2.048,1,4.737,5,1.0317,0,0,0,0,1,,,,,,,,,
,,,,,,,,,,,,,,,second,14,27,F,R,IMT,2021-07-09_14h08.23.940,ImageRatingTask_S1,2021.1.4,MacIntel,59.94125757,,,,,,,,,,,,,,,,,,,,,0,1,1,1,1,,,,,,,,,
,,,,,,,,,,,,,,,third,14,27,F,R,IMT,2021-07-09_14h08.23.940,ImageRatingTask_S1,2021.1.4,MacIntel,59.94125757,,,,,,,,,,,,,,,,,,,,,0,2,2,2,1,,,,,,,,,
,,,,,,,,,,,,,,,fourth,14,27,F,R,IMT,2021-07-09_14h08.23.940,ImageRatingTask_S1,2021.1.4,MacIntel,59.94125757,,,,,,,,,,,,,,,,,,,,,0,3,3,3,1,,,,,,,,,
,,,,,,,,,,,,,,,fifth,14,27,F,R,IMT,2021-07-09_14h08.23.940,ImageRatingTask_S1,2021.1.4,MacIntel,59.94125757,,,,,,,,,,,,,,,,,,,,,0,4,4,4,1,,,,,,,,,
,,,,,,,,,,,,,,,sixth,14,27,F,R,IMT,2021-07-09_14h08.23.940,ImageRatingTask_S1,2021.1.4,MacIntel,59.94125757,,,,,,,,,,,,,,,,,,,,,0,5,5,5,1,,,,,,,,,
,,,,,,,,,,,,,,,seventh,14,27,F,R,IMT,2021-07-09_14h08.23.940,ImageRatingTask_S1,2021.1.4,MacIntel,59.94125757,,,,,,,,,,,,,,,,,,,,,0,6,6,6,1,,,,,,,,,
,,,,,,,,,,,,,,,last,14,27,F,R,IMT,2021-07-09_14h08.23.940,ImageRatingTask_S1,2021.1.4,MacIntel,59.94125757,,,,,,,,,,,,,,,,,,,,,0,7,7,7,1,,,,,,,,,
,,,,,,,,,,,,,,,,14,27,F,R,IMT,2021-07-09_14h08.23.940,ImageRatingTask_S1,2021.1.4,MacIntel,59.94125757,,,,,,,,,,,,,,,,,,,,,,,,,,0,20,20,144,1,DreamStudyImages_rs1000x750g/Food/IAPS7488_diner5.jpg,,,
,,,,,,,,,,,,,,,main,14,27,F,R,IMT,2021-07-09_14h08.23.940,ImageRatingTask_S1,2021.1.4,MacIntel,59.94125757,,,,,,,,,,,6,40.6374,1,14.8968,4,3.1196,1,4.2409,6,1.0175,0,0,0,0,1,,,,,,,,,
,,,,,,,,,,,,,,,second,14,27,F,R,IMT,2021-07-09_14h08.23.940,ImageRatingTask_S1,2021.1.4,MacIntel,59.94125757,,,,,,,,,,,,,,,,,,,,,0,1,1,1,1,,,,,,,,,
,,,,,,,,,,,,,,,third,14,27,F,R,IMT,2021-07-09_14h08.23.940,ImageRatingTask_S1,2021.1.4,MacIntel,59.94125757,,,,,,,,,,,,,,,,,,,,,0,2,2,2,1,,,,,,,,,
,,,,,,,,,,,,,,,fourth,14,27,F,R,IMT,2021-07-09_14h08.23.940,ImageRatingTask_S1,2021.1.4,MacIntel,59.94125757,,,,,,,,,,,,,,,,,,,,,0,3,3,3,1,,,,,,,,,
,,,,,,,,,,,,,,,fifth,14,27,F,R,IMT,2021-07-09_14h08.23.940,ImageRatingTask_S1,2021.1.4,MacIntel,59.94125757,,,,,,,,,,,,,,,,,,,,,0,4,4,4,1,,,,,,,,,
,,,,,,,,,,,,,,,sixth,14,27,F,R,IMT,2021-07-09_14h08.23.940,ImageRatingTask_S1,2021.1.4,MacIntel,59.94125757,,,,,,,,,,,,,,,,,,,,,0,5,5,5,1,,,,,,,,,
,,,,,,,,,,,,,,,seventh,14,27,F,R,IMT,2021-07-09_14h08.23.940,ImageRatingTask_S1,2021.1.4,MacIntel,59.94125757,,,,,,,,,,,,,,,,,,,,,0,6,6,6,1,,,,,,,,,
,,,,,,,,,,,,,,,last,14,27,F,R,IMT,2021-07-09_14h08.23.940,ImageRatingTask_S1,2021.1.4,MacIntel,59.94125757,,,,,,,,,,,,,,,,,,,,,0,7,7,7,1,,,,,,,,,
,,,,,,,,,,,,,,,,14,27,F,R,IMT,2021-07-09_14h08.23.940,ImageRatingTask_S1,2021.1.4,MacIntel,59.94125757,,,,,,,,,,,,,,,,,,,,,,,,,,0,21,21,20,1,DreamStudyImages_rs1000x750g/Houses/Landscapes_086_v.jpg,,,
,,,,,,,,,,,,,,,main,14,27,F,R,IMT,2021-07-09_14h08.23.940,ImageRatingTask_S1,2021.1.4,MacIntel,59.94125757,,,,,,,,,,,9,4.8966,8,3.6616,6,4.5309,1,6.9197,3,1.2733,0,0,0,0,1,,,,,,,,,
,,,,,,,,,,,,,,,second,14,27,F,R,IMT,2021-07-09_14h08.23.940,ImageRatingTask_S1,2021.1.4,MacIntel,59.94125757,,,,,,,,,,,,,,,,,,,,,0,1,1,1,1,,,,,,,,,
,,,,,,,,,,,,,,,third,14,27,F,R,IMT,2021-07-09_14h08.23.940,ImageRatingTask_S1,2021.1.4,MacIntel,59.94125757,,,,,,,,,,,,,,,,,,,,,0,2,2,2,1,,,,,,,,,
,,,,,,,,,,,,,,,fourth,14,27,F,R,IMT,2021-07-09_14h08.23.940,ImageRatingTask_S1,2021.1.4,MacIntel,59.94125757,,,,,,,,,,,,,,,,,,,,,0,3,3,3,1,,,,,,,,,
,,,,,,,,,,,,,,,fifth,14,27,F,R,IMT,2021-07-09_14h08.23.940,ImageRatingTask_S1,2021.1.4,MacIntel,59.94125757,,,,,,,,,,,,,,,,,,,,,0,4,4,4,1,,,,,,,,,
,,,,,,,,,,,,,,,sixth,14,27,F,R,IMT,2021-07-09_14h08.23.940,ImageRatingTask_S1,2021.1.4,MacIntel,59.94125757,,,,,,,,,,,,,,,,,,,,,0,5,5,5,1,,,,,,,,,
,,,,,,,,,,,,,,,seventh,14,27,F,R,IMT,2021-07-09_14h08.23.940,ImageRatingTask_S1,2021.1.4,MacIntel,59.94125757,,,,,,,,,,,,,,,,,,,,,0,6,6,6,1,,,,,,,,,
,,,,,,,,,,,,,,,last,14,27,F,R,IMT,2021-07-09_14h08.23.940,ImageRatingTask_S1,2021.1.4,MacIntel,59.94125757,,,,,,,,,,,,,,,,,,,,,0,7,7,7,1,,,,,,,,,
,,,,,,,,,,,,,,,,14,27,F,R,IMT,2021-07-09_14h08.23.940,ImageRatingTask_S1,2021.1.4,MacIntel,59.94125757,,,,,,,,,,,,,,,,,,,,,,,,,,0,22,22,103,1,DreamStudyImages_rs1000x750g/Mammals/Chipmunk 2.jpg,,,
,,,,,,,,,,,,,,,main,14,27,F,R,IMT,2021-07-09_14h08.23.940,ImageRatingTask_S1,2021.1.4,MacIntel,59.94125757,,,,,,,,,,,5,2.228,1,1.1102,6,1.2474,1,3.434,6,1.3733,0,0,0,0,1,,,,,,,,,
,,,,,,,,,,,,,,,second,14,27,F,R,IMT,2021-07-09_14h08.23.940,ImageRatingTask_S1,2021.1.4,MacIntel,59.94125757,,,,,,,,,,,,,,,,,,,,,0,1,1,1,1,,,,,,,,,
,,,,,,,,,,,,,,,third,14,27,F,R,IMT,2021-07-09_14h08.23.940,ImageRatingTask_S1,2021.1.4,MacIntel,59.94125757,,,,,,,,,,,,,,,,,,,,,0,2,2,2,1,,,,,,,,,
,,,,,,,,,,,,,,,fourth,14,27,F,R,IMT,2021-07-09_14h08.23.940,ImageRatingTask_S1,2021.1.4,MacIntel,59.94125757,,,,,,,,,,,,,,,,,,,,,0,3,3,3,1,,,,,,,,,
,,,,,,,,,,,,,,,fifth,14,27,F,R,IMT,2021-07-09_14h08.23.940,ImageRatingTask_S1,2021.1.4,MacIntel,59.94125757,,,,,,,,,,,,,,,,,,,,,0,4,4,4,1,,,,,,,,,
,,,,,,,,,,,,,,,sixth,14,27,F,R,IMT,2021-07-09_14h08.23.940,ImageRatingTask_S1,2021.1.4,MacIntel,59.94125757,,,,,,,,,,,,,,,,,,,,,0,5,5,5,1,,,,,,,,,
,,,,,,,,,,,,,,,seventh,14,27,F,R,IMT,2021-07-09_14h08.23.940,ImageRatingTask_S1,2021.1.4,MacIntel,59.94125757,,,,,,,,,,,,,,,,,,,,,0,6,6,6,1,,,,,,,,,
,,,,,,,,,,,,,,,last,14,27,F,R,IMT,2021-07-09_14h08.23.940,ImageRatingTask_S1,2021.1.4,MacIntel,59.94125757,,,,,,,,,,,,,,,,,,,,,0,7,7,7,1,,,,,,,,,
,,,,,,,,,,,,,,,,14,27,F,R,IMT,2021-07-09_14h08.23.940,ImageRatingTask_S1,2021.1.4,MacIntel,59.94125757,,,,,,,,,,,,,,,,,,,,,,,,,,0,23,23,4,1,DreamStudyImages_rs1000x750g/Houses/Landscapes_024_v.jpg,,,
,,,,,,,,,,,,,,,main,14,27,F,R,IMT,2021-07-09_14h08.23.940,ImageRatingTask_S1,2021.1.4,MacIntel,59.94125757,,,,,,,,,,,4,7.6554,3,3.465,6,1.8476,2,4.8537,2,1.9442,0,0,0,0,1,,,,,,,,,
,,,,,,,,,,,,,,,second,14,27,F,R,IMT,2021-07-09_14h08.23.940,ImageRatingTask_S1,2021.1.4,MacIntel,59.94125757,,,,,,,,,,,,,,,,,,,1,0.4159,0,1,1,1,1,,,,,,,,,
,,,,,,,,,,,,,,,third,14,27,F,R,IMT,2021-07-09_14h08.23.940,ImageRatingTask_S1,2021.1.4,MacIntel,59.94125757,,,,,,,,,,,,,,,,,,,,,0,2,2,2,1,,,,,,,,,
,,,,,,,,,,,,,,,fourth,14,27,F,R,IMT,2021-07-09_14h08.23.940,ImageRatingTask_S1,2021.1.4,MacIntel,59.94125757,,,,,,,,,,,,,,,,,,,,,0,3,3,3,1,,,,,,,,,
,,,,,,,,,,,,,,,fifth,14,27,F,R,IMT,2021-07-09_14h08.23.940,ImageRatingTask_S1,2021.1.4,MacIntel,59.94125757,,,,,,,,,,,,,,,,,,,,,0,4,4,4,1,,,,,,,,,
,,,,,,,,,,,,,,,sixth,14,27,F,R,IMT,2021-07-09_14h08.23.940,ImageRatingTask_S1,2021.1.4,MacIntel,59.94125757,,,,,,,,,,,,,,,,,,,,,0,5,5,5,1,,,,,,,,,
,,,,,,,,,,,,,,,seventh,14,27,F,R,IMT,2021-07-09_14h08.23.940,ImageRatingTask_S1,2021.1.4,MacIntel,59.94125757,,,,,,,,,,,,,,,,,,,,,0,6,6,6,1,,,,,,,,,
,,,,,,,,,,,,,,,last,14,27,F,R,IMT,2021-07-09_14h08.23.940,ImageRatingTask_S1,2021.1.4,MacIntel,59.94125757,,,,,,,,,,,,,,,,,,,,,0,7,7,7,1,,,,,,,,,
,,,,,,,,,,,,,,,,14,27,F,R,IMT,2021-07-09_14h08.23.940,ImageRatingTask_S1,2021.1.4,MacIntel,59.94125757,,,,,,,,,,,,,,,,,,,,,,,,,,0,24,24,47,1,DreamStudyImages_rs1000x750g/Children/Faces_039_h.jpg,,,
,,,,,,,,,,,,,,,main,14,27,F,R,IMT,2021-07-09_14h08.23.940,ImageRatingTask_S1,2021.1.4,MacIntel,59.94125757,,,,,,,,,,,6,4.0196,1,1.771,5,2.9281,1,6.5069,5,1.1413,0,0,0,0,1,,,,,,,,,
,,,,,,,,,,,,,,,second,14,27,F,R,IMT,2021-07-09_14h08.23.940,ImageRatingTask_S1,2021.1.4,MacIntel,59.94125757,,,,,,,,,,,,,,,,,,,,,0,1,1,1,1,,,,,,,,,
,,,,,,,,,,,,,,,third,14,27,F,R,IMT,2021-07-09_14h08.23.940,ImageRatingTask_S1,2021.1.4,MacIntel,59.94125757,,,,,,,,,,,,,,,,,,,,,0,2,2,2,1,,,,,,,,,
,,,,,,,,,,,,,,,fourth,14,27,F,R,IMT,2021-07-09_14h08.23.940,ImageRatingTask_S1,2021.1.4,MacIntel,59.94125757,,,,,,,,,,,,,,,,,,,,,0,3,3,3,1,,,,,,,,,
,,,,,,,,,,,,,,,fifth,14,27,F,R,IMT,2021-07-09_14h08.23.940,ImageRatingTask_S1,2021.1.4,MacIntel,59.94125757,,,,,,,,,,,,,,,,,,,,,0,4,4,4,1,,,,,,,,,
,,,,,,,,,,,,,,,sixth,14,27,F,R,IMT,2021-07-09_14h08.23.940,ImageRatingTask_S1,2021.1.4,MacIntel,59.94125757,,,,,,,,,,,,,,,,,,,,,0,5,5,5,1,,,,,,,,,
,,,,,,,,,,,,,,,seventh,14,27,F,R,IMT,2021-07-09_14h08.23.940,ImageRatingTask_S1,2021.1.4,MacIntel,59.94125757,,,,,,,,,,,,,,,,,,,,,0,6,6,6,1,,,,,,,,,
,,,,,,,,,,,,,,,last,14,27,F,R,IMT,2021-07-09_14h08.23.940,ImageRatingTask_S1,2021.1.4,MacIntel,59.94125757,,,,,,,,,,,,,,,,,,,,,0,7,7,7,1,,,,,,,,,
,,,,,,,,,,,,,,,,14,27,F,R,IMT,2021-07-09_14h08.23.940,ImageRatingTask_S1,2021.1.4,MacIntel,59.94125757,,,,,,,,,,,,,,,,,,,,,,,,,,0,25,25,104,1,DreamStudyImages_rs1000x750g/Food/IAPS7482_diner4.jpg,,,
,,,,,,,,,,,,,,,main,14,27,F,R,IMT,2021-07-09_14h08.23.940,ImageRatingTask_S1,2021.1.4,MacIntel,59.94125757,,,,,,,,,,,3,4.728,2,3.5111,2,3.044,1,3.187,3,2.0827,0,0,0,0,1,,,,,,,,,
,,,,,,,,,,,,,,,second,14,27,F,R,IMT,2021-07-09_14h08.23.940,ImageRatingTask_S1,2021.1.4,MacIntel,59.94125757,,,,,,,,,,,,,,,,,,,,,0,1,1,1,1,,,,,,,,,
,,,,,,,,,,,,,,,third,14,27,F,R,IMT,2021-07-09_14h08.23.940,ImageRatingTask_S1,2021.1.4,MacIntel,59.94125757,,,,,,,,,,,,,,,,,,,,,0,2,2,2,1,,,,,,,,,
,,,,,,,,,,,,,,,fourth,14,27,F,R,IMT,2021-07-09_14h08.23.940,ImageRatingTask_S1,2021.1.4,MacIntel,59.94125757,,,,,,,,,,,,,,,,,,,,,0,3,3,3,1,,,,,,,,,
,,,,,,,,,,,,,,,fifth,14,27,F,R,IMT,2021-07-09_14h08.23.940,ImageRatingTask_S1,2021.1.4,MacIntel,59.94125757,,,,,,,,,,,,,,,,,,,,,0,4,4,4,1,,,,,,,,,
,,,,,,,,,,,,,,,sixth,14,27,F,R,IMT,2021-07-09_14h08.23.940,ImageRatingTask_S1,2021.1.4,MacIntel,59.94125757,,,,,,,,,,,,,,,,,,,,,0,5,5,5,1,,,,,,,,,
,,,,,,,,,,,,,,,seventh,14,27,F,R,IMT,2021-07-09_14h08.23.940,ImageRatingTask_S1,2021.1.4,MacIntel,59.94125757,,,,,,,,,,,,,,,,,,,,,0,6,6,6,1,,,,,,,,,
,,,,,,,,,,,,,,,last,14,27,F,R,IMT,2021-07-09_14h08.23.940,ImageRatingTask_S1,2021.1.4,MacIntel,59.94125757,,,,,,,,,,,,,,,,,,,,,0,7,7,7,1,,,,,,,,,
,,,,,,,,,,,,,,,,14,27,F,R,IMT,2021-07-09_14h08.23.940,ImageRatingTask_S1,2021.1.4,MacIntel,59.94125757,,,,,,,,,,,,,,,,,,,,,,,,,,0,26,26,8,1,DreamStudyImages_rs1000x750g/Mammals/Tiger 2.jpg,,,
,,,,,,,,,,,,,,,main,14,27,F,R,IMT,2021-07-09_14h08.23.940,ImageRatingTask_S1,2021.1.4,MacIntel,59.94125757,,,,,,,,,,,5,7.8887,1,1.5071,7,1.8126,1,3.8513,5,0.9889,0,0,0,0,1,,,,,,,,,
,,,,,,,,,,,,,,,second,14,27,F,R,IMT,2021-07-09_14h08.23.940,ImageRatingTask_S1,2021.1.4,MacIntel,59.94125757,,,,,,,,,,,,,,,,,,,,,0,1,1,1,1,,,,,,,,,
,,,,,,,,,,,,,,,third,14,27,F,R,IMT,2021-07-09_14h08.23.940,ImageRatingTask_S1,2021.1.4,MacIntel,59.94125757,,,,,,,,,,,,,,,,,,,,,0,2,2,2,1,,,,,,,,,
,,,,,,,,,,,,,,,fourth,14,27,F,R,IMT,2021-07-09_14h08.23.940,ImageRatingTask_S1,2021.1.4,MacIntel,59.94125757,,,,,,,,,,,,,,,,,,,,,0,3,3,3,1,,,,,,,,,
,,,,,,,,,,,,,,,fifth,14,27,F,R,IMT,2021-07-09_14h08.23.940,ImageRatingTask_S1,2021.1.4,MacIntel,59.94125757,,,,,,,,,,,,,,,,,,,,,0,4,4,4,1,,,,,,,,,
,,,,,,,,,,,,,,,sixth,14,27,F,R,IMT,2021-07-09_14h08.23.940,ImageRatingTask_S1,2021.1.4,MacIntel,59.94125757,,,,,,,,,,,,,,,,,,,,,0,5,5,5,1,,,,,,,,,
,,,,,,,,,,,,,,,seventh,14,27,F,R,IMT,2021-07-09_14h08.23.940,ImageRatingTask_S1,2021.1.4,MacIntel,59.94125757,,,,,,,,,,,,,,,,,,,,,0,6,6,6,1,,,,,,,,,
,,,,,,,,,,,,,,,last,14,27,F,R,IMT,2021-07-09_14h08.23.940,ImageRatingTask_S1,2021.1.4,MacIntel,59.94125757,,,,,,,,,,,,,,,,,,,,,0,7,7,7,1,,,,,,,,,
,,,,,,,,,,,,,,,,14,27,F,R,IMT,2021-07-09_14h08.23.940,ImageRatingTask_S1,2021.1.4,MacIntel,59.94125757,,,,,,,,,,,,,,,,,,,,,,,,,,0,27,27,59,1,DreamStudyImages_rs1000x750g/Food/Objects_086_h.jpg,,,
,,,,,,,,,,,,,,,main,14,27,F,R,IMT,2021-07-09_14h08.23.940,ImageRatingTask_S1,2021.1.4,MacIntel,59.94125757,,,,,,,,,,,2,46.9165,5,2.9863,7,2.2831,1,2.8275,3,1.6911,0,0,0,0,1,,,,,,,,,
,,,,,,,,,,,,,,,second,14,27,F,R,IMT,2021-07-09_14h08.23.940,ImageRatingTask_S1,2021.1.4,MacIntel,59.94125757,,,,,,,,,,,,,,,,,,,,,0,1,1,1,1,,,,,,,,,
,,,,,,,,,,,,,,,third,14,27,F,R,IMT,2021-07-09_14h08.23.940,ImageRatingTask_S1,2021.1.4,MacIntel,59.94125757,,,,,,,,,,,,,,,,,,,,,0,2,2,2,1,,,,,,,,,
,,,,,,,,,,,,,,,fourth,14,27,F,R,IMT,2021-07-09_14h08.23.940,ImageRatingTask_S1,2021.1.4,MacIntel,59.94125757,,,,,,,,,,,,,,,,,,,,,0,3,3,3,1,,,,,,,,,
,,,,,,,,,,,,,,,fifth,14,27,F,R,IMT,2021-07-09_14h08.23.940,ImageRatingTask_S1,2021.1.4,MacIntel,59.94125757,,,,,,,,,,,,,,,,,,,,,0,4,4,4,1,,,,,,,,,
,,,,,,,,,,,,,,,sixth,14,27,F,R,IMT,2021-07-09_14h08.23.940,ImageRatingTask_S1,2021.1.4,MacIntel,59.94125757,,,,,,,,,,,,,,,,,,,,,0,5,5,5,1,,,,,,,,,
,,,,,,,,,,,,,,,seventh,14,27,F,R,IMT,2021-07-09_14h08.23.940,ImageRatingTask_S1,2021.1.4,MacIntel,59.94125757,,,,,,,,,,,,,,,,,,,,,0,6,6,6,1,,,,,,,,,
,,,,,,,,,,,,,,,last,14,27,F,R,IMT,2021-07-09_14h08.23.940,ImageRatingTask_S1,2021.1.4,MacIntel,59.94125757,,,,,,,,,,,,,,,,,,,,,0,7,7,7,1,,,,,,,,,
,,,,,,,,,,,,,,,,14,27,F,R,IMT,2021-07-09_14h08.23.940,ImageRatingTask_S1,2021.1.4,MacIntel,59.94125757,,,,,,,,,,,,,,,,,,,,,,,,,,0,28,28,0,1,DreamStudyImages_rs1000x750g/Mammals/Animals_053_h.jpg,,,
,,,,,,,,,,,,,,,main,14,27,F,R,IMT,2021-07-09_14h08.23.940,ImageRatingTask_S1,2021.1.4,MacIntel,59.94125757,,,,,,,,,,,5,2.8257,1,0.5864,7,1.5508,1,6.6547,6,1.0837,0,0,0,0,1,,,,,,,,,
,,,,,,,,,,,,,,,second,14,27,F,R,IMT,2021-07-09_14h08.23.940,ImageRatingTask_S1,2021.1.4,MacIntel,59.94125757,,,,,,,,,,,,,,,,,,,,,0,1,1,1,1,,,,,,,,,
,,,,,,,,,,,,,,,third,14,27,F,R,IMT,2021-07-09_14h08.23.940,ImageRatingTask_S1,2021.1.4,MacIntel,59.94125757,,,,,,,,,,,,,,,,,,,,,0,2,2,2,1,,,,,,,,,
,,,,,,,,,,,,,,,fourth,14,27,F,R,IMT,2021-07-09_14h08.23.940,ImageRatingTask_S1,2021.1.4,MacIntel,59.94125757,,,,,,,,,,,,,,,,,,,,,0,3,3,3,1,,,,,,,,,
,,,,,,,,,,,,,,,fifth,14,27,F,R,IMT,2021-07-09_14h08.23.940,ImageRatingTask_S1,2021.1.4,MacIntel,59.94125757,,,,,,,,,,,,,,,,,,,,,0,4,4,4,1,,,,,,,,,
,,,,,,,,,,,,,,,sixth,14,27,F,R,IMT,2021-07-09_14h08.23.940,ImageRatingTask_S1,2021.1.4,MacIntel,59.94125757,,,,,,,,,,,,,,,,,,,,,0,5,5,5,1,,,,,,,,,
,,,,,,,,,,,,,,,seventh,14,27,F,R,IMT,2021-07-09_14h08.23.940,ImageRatingTask_S1,2021.1.4,MacIntel,59.94125757,,,,,,,,,,,,,,,,,,,,,0,6,6,6,1,,,,,,,,,
,,,,,,,,,,,,,,,last,14,27,F,R,IMT,2021-07-09_14h08.23.940,ImageRatingTask_S1,2021.1.4,MacIntel,59.94125757,,,,,,,,,,,,,,,,,,,,,0,7,7,7,1,,,,,,,,,
,,,,,,,,,,,,,,,,14,27,F,R,IMT,2021-07-09_14h08.23.940,ImageRatingTask_S1,2021.1.4,MacIntel,59.94125757,,,,,,,,,,,,,,,,,,,,,,,,,,0,29,29,28,1,DreamStudyImages_rs1000x750g/Houses/7530.jpg,,,
,,,,,,,,,,,,,,,main,14,27,F,R,IMT,2021-07-09_14h08.23.940,ImageRatingTask_S1,2021.1.4,MacIntel,59.94125757,,,,,,,,,,,5,5.3535,1,0.7436,2,1.2453,1,5.5025,8,1.3444,0,0,0,0,1,,,,,,,,,
,,,,,,,,,,,,,,,second,14,27,F,R,IMT,2021-07-09_14h08.23.940,ImageRatingTask_S1,2021.1.4,MacIntel,59.94125757,,,,,,,,,,,,,,,,,,,,,0,1,1,1,1,,,,,,,,,
,,,,,,,,,,,,,,,third,14,27,F,R,IMT,2021-07-09_14h08.23.940,ImageRatingTask_S1,2021.1.4,MacIntel,59.94125757,,,,,,,,,,,,,,,,,,,,,0,2,2,2,1,,,,,,,,,
,,,,,,,,,,,,,,,fourth,14,27,F,R,IMT,2021-07-09_14h08.23.940,ImageRatingTask_S1,2021.1.4,MacIntel,59.94125757,,,,,,,,,,,,,,,,,,,,,0,3,3,3,1,,,,,,,,,
,,,,,,,,,,,,,,,fifth,14,27,F,R,IMT,2021-07-09_14h08.23.940,ImageRatingTask_S1,2021.1.4,MacIntel,59.94125757,,,,,,,,,,,,,,,,,,,,,0,4,4,4,1,,,,,,,,,
,,,,,,,,,,,,,,,sixth,14,27,F,R,IMT,2021-07-09_14h08.23.940,ImageRatingTask_S1,2021.1.4,MacIntel,59.94125757,,,,,,,,,,,,,,,,,,,,,0,5,5,5,1,,,,,,,,,
,,,,,,,,,,,,,,,seventh,14,27,F,R,IMT,2021-07-09_14h08.23.940,ImageRatingTask_S1,2021.1.4,MacIntel,59.94125757,,,,,,,,,,,,,,,,,,,,,0,6,6,6,1,,,,,,,,,
,,,,,,,,,,,,,,,last,14,27,F,R,IMT,2021-07-09_14h08.23.940,ImageRatingTask_S1,2021.1.4,MacIntel,59.94125757,,,,,,,,,,,,,,,,,,,,,0,7,7,7,1,,,,,,,,,
,,,,,,,,,,,,,,,,14,27,F,R,IMT,2021-07-09_14h08.23.940,ImageRatingTask_S1,2021.1.4,MacIntel,59.94125757,,,,,,,,,,,,,,,,,,,,,,,,,,0,30,30,117,1,DreamStudyImages_rs1000x750g/Water/Lake 1.jpg,,,
,,,,,,,,,,,,,,,main,14,27,F,R,IMT,2021-07-09_14h08.23.940,ImageRatingTask_S1,2021.1.4,MacIntel,59.94125757,,,,,,,,,,,6,3.8669,2,2.1597,8,2.766,2,2.7289,2,1.5876,0,0,0,0,1,,,,,,,,,
,,,,,,,,,,,,,,,second,14,27,F,R,IMT,2021-07-09_14h08.23.940,ImageRatingTask_S1,2021.1.4,MacIntel,59.94125757,,,,,,,,,,,,,,,,,,,1,0.4094,0,1,1,1,1,,,,,,,,,
,,,,,,,,,,,,,,,third,14,27,F,R,IMT,2021-07-09_14h08.23.940,ImageRatingTask_S1,2021.1.4,MacIntel,59.94125757,,,,,,,,,,,,,,,,,,,,,0,2,2,2,1,,,,,,,,,
,,,,,,,,,,,,,,,fourth,14,27,F,R,IMT,2021-07-09_14h08.23.940,ImageRatingTask_S1,2021.1.4,MacIntel,59.94125757,,,,,,,,,,,,,,,,,,,,,0,3,3,3,1,,,,,,,,,
,,,,,,,,,,,,,,,fifth,14,27,F,R,IMT,2021-07-09_14h08.23.940,ImageRatingTask_S1,2021.1.4,MacIntel,59.94125757,,,,,,,,,,,,,,,,,,,,,0,4,4,4,1,,,,,,,,,
,,,,,,,,,,,,,,,sixth,14,27,F,R,IMT,2021-07-09_14h08.23.940,ImageRatingTask_S1,2021.1.4,MacIntel,59.94125757,,,,,,,,,,,,,,,,,,,,,0,5,5,5,1,,,,,,,,,
,,,,,,,,,,,,,,,seventh,14,27,F,R,IMT,2021-07-09_14h08.23.940,ImageRatingTask_S1,2021.1.4,MacIntel,59.94125757,,,,,,,,,,,,,,,,,,,,,0,6,6,6,1,,,,,,,,,
,,,,,,,,,,,,,,,last,14,27,F,R,IMT,2021-07-09_14h08.23.940,ImageRatingTask_S1,2021.1.4,MacIntel,59.94125757,,,,,,,,,,,,,,,,,,,,,0,7,7,7,1,,,,,,,,,
,,,,,,,,,,,,,,,,14,27,F,R,IMT,2021-07-09_14h08.23.940,ImageRatingTask_S1,2021.1.4,MacIntel,59.94125757,,,,,,,,,,,,,,,,,,,,,,,,,,0,31,31,89,1,DreamStudyImages_rs1000x750g/Children/IAPS2075_baby10.jpg,,,
,,,,,,,,,,,,,,,main,14,27,F,R,IMT,2021-07-09_14h08.23.940,ImageRatingTask_S1,2021.1.4,MacIntel,59.94125757,,,,,,,,,,,2,4.4887,3,3.5883,5,7.1002,1,29.604,7,1.3894,0,0,0,0,1,,,,,,,,,
,,,,,,,,,,,,,,,second,14,27,F,R,IMT,2021-07-09_14h08.23.940,ImageRatingTask_S1,2021.1.4,MacIntel,59.94125757,,,,,,,,,,,,,,,,,,,,,0,1,1,1,1,,,,,,,,,
,,,,,,,,,,,,,,,third,14,27,F,R,IMT,2021-07-09_14h08.23.940,ImageRatingTask_S1,2021.1.4,MacIntel,59.94125757,,,,,,,,,,,,,,,,,,,,,0,2,2,2,1,,,,,,,,,
,,,,,,,,,,,,,,,fourth,14,27,F,R,IMT,2021-07-09_14h08.23.940,ImageRatingTask_S1,2021.1.4,MacIntel,59.94125757,,,,,,,,,,,,,,,,,,,,,0,3,3,3,1,,,,,,,,,
,,,,,,,,,,,,,,,fifth,14,27,F,R,IMT,2021-07-09_14h08.23.940,ImageRatingTask_S1,2021.1.4,MacIntel,59.94125757,,,,,,,,,,,,,,,,,,,,,0,4,4,4,1,,,,,,,,,
,,,,,,,,,,,,,,,sixth,14,27,F,R,IMT,2021-07-09_14h08.23.940,ImageRatingTask_S1,2021.1.4,MacIntel,59.94125757,,,,,,,,,,,,,,,,,,,,,0,5,5,5,1,,,,,,,,,
,,,,,,,,,,,,,,,seventh,14,27,F,R,IMT,2021-07-09_14h08.23.940,ImageRatingTask_S1,2021.1.4,MacIntel,59.94125757,,,,,,,,,,,,,,,,,,,,,0,6,6,6,1,,,,,,,,,
,,,,,,,,,,,,,,,last,14,27,F,R,IMT,2021-07-09_14h08.23.940,ImageRatingTask_S1,2021.1.4,MacIntel,59.94125757,,,,,,,,,,,,,,,,,,,,,0,7,7,7,1,,,,,,,,,
,,,,,,,,,,,,,,,,14,27,F,R,IMT,2021-07-09_14h08.23.940,ImageRatingTask_S1,2021.1.4,MacIntel,59.94125757,,,,,,,,,,,,,,,,,,,,,,,,,,0,32,32,51,1,DreamStudyImages_rs1000x750g/Vehicles/NDPS93_destroyedroad.jpg,,,
,,,,,,,,,,,,,,,main,14,27,F,R,IMT,2021-07-09_14h08.23.940,ImageRatingTask_S1,2021.1.4,MacIntel,59.94125757,,,,,,,,,,,5,7.1225,2,2.4292,6,2.6631,2,45.8843,5,7.0459,0,0,0,0,1,,,,,,,,,
,,,,,,,,,,,,,,,second,14,27,F,R,IMT,2021-07-09_14h08.23.940,ImageRatingTask_S1,2021.1.4,MacIntel,59.94125757,,,,,,,,,,,,,,,,,,,3,1.285,0,1,1,1,1,,,,,,,,,
,,,,,,,,,,,,,,,third,14,27,F,R,IMT,2021-07-09_14h08.23.940,ImageRatingTask_S1,2021.1.4,MacIntel,59.94125757,,,,,,,,,,,,,,,,,,,,,0,2,2,2,1,,,,,,,,,
,,,,,,,,,,,,,,,fourth,14,27,F,R,IMT,2021-07-09_14h08.23.940,ImageRatingTask_S1,2021.1.4,MacIntel,59.94125757,,,,,,,,,,,,,,,,,,,,,0,3,3,3,1,,,,,,,,,
,,,,,,,,,,,,,,,fifth,14,27,F,R,IMT,2021-07-09_14h08.23.940,ImageRatingTask_S1,2021.1.4,MacIntel,59.94125757,,,,,,,,,,,,,,,,,,,,,0,4,4,4,1,,,,,,,,,
,,,,,,,,,,,,,,,sixth,14,27,F,R,IMT,2021-07-09_14h08.23.940,ImageRatingTask_S1,2021.1.4,MacIntel,59.94125757,,,,,,,,,,,,,,,,,,,,,0,5,5,5,1,,,,,,,,,
,,,,,,,,,,,,,,,seventh,14,27,F,R,IMT,2021-07-09_14h08.23.940,ImageRatingTask_S1,2021.1.4,MacIntel,59.94125757,,,,,,,,,,,,,,,,,,,,,0,6,6,6,1,,,,,,,,,
,,,,,,,,,,,,,,,last,14,27,F,R,IMT,2021-07-09_14h08.23.940,ImageRatingTask_S1,2021.1.4,MacIntel,59.94125757,,,,,,,,,,,,,,,,,,,,,0,7,7,7,1,,,,,,,,,
,,,,,,,,,,,,,,,,14,27,F,R,IMT,2021-07-09_14h08.23.940,ImageRatingTask_S1,2021.1.4,MacIntel,59.94125757,,,,,,,,,,,,,,,,,,,,,,,,,,0,33,33,151,1,DreamStudyImages_rs1000x750g/Food/Objects_019_h.jpg,,,
,,,,,,,,,,,,,,,main,14,27,F,R,IMT,2021-07-09_14h08.23.940,ImageRatingTask_S1,2021.1.4,MacIntel,59.94125757,,,,,,,,,,,5,7.025,1,33.402,6,1.4389,1,3.3336,6,1.2507,0,0,0,0,1,,,,,,,,,
,,,,,,,,,,,,,,,second,14,27,F,R,IMT,2021-07-09_14h08.23.940,ImageRatingTask_S1,2021.1.4,MacIntel,59.94125757,,,,,,,,,,,,,,,,,,,,,0,1,1,1,1,,,,,,,,,
,,,,,,,,,,,,,,,third,14,27,F,R,IMT,2021-07-09_14h08.23.940,ImageRatingTask_S1,2021.1.4,MacIntel,59.94125757,,,,,,,,,,,,,,,,,,,,,0,2,2,2,1,,,,,,,,,
,,,,,,,,,,,,,,,fourth,14,27,F,R,IMT,2021-07-09_14h08.23.940,ImageRatingTask_S1,2021.1.4,MacIntel,59.94125757,,,,,,,,,,,,,,,,,,,,,0,3,3,3,1,,,,,,,,,
,,,,,,,,,,,,,,,fifth,14,27,F,R,IMT,2021-07-09_14h08.23.940,ImageRatingTask_S1,2021.1.4,MacIntel,59.94125757,,,,,,,,,,,,,,,,,,,,,0,4,4,4,1,,,,,,,,,
,,,,,,,,,,,,,,,sixth,14,27,F,R,IMT,2021-07-09_14h08.23.940,ImageRatingTask_S1,2021.1.4,MacIntel,59.94125757,,,,,,,,,,,,,,,,,,,,,0,5,5,5,1,,,,,,,,,
,,,,,,,,,,,,,,,seventh,14,27,F,R,IMT,2021-07-09_14h08.23.940,ImageRatingTask_S1,2021.1.4,MacIntel,59.94125757,,,,,,,,,,,,,,,,,,,,,0,6,6,6,1,,,,,,,,,
,,,,,,,,,,,,,,,last,14,27,F,R,IMT,2021-07-09_14h08.23.940,ImageRatingTask_S1,2021.1.4,MacIntel,59.94125757,,,,,,,,,,,,,,,,,,,,,0,7,7,7,1,,,,,,,,,
,,,,,,,,,,,,,,,,14,27,F,R,IMT,2021-07-09_14h08.23.940,ImageRatingTask_S1,2021.1.4,MacIntel,59.94125757,,,,,,,,,,,,,,,,,,,,,,,,,,0,34,34,74,1,DreamStudyImages_rs1000x750g/Houses/Landscapes_033_h_CROPPED.jpg,,,
,,,,,,,,,,,,,,,main,14,27,F,R,IMT,2021-07-09_14h08.23.940,ImageRatingTask_S1,2021.1.4,MacIntel,59.94125757,,,,,,,,,,,6,10.6346,1,2.8549,6,3.3147,1,4.4197,2,1.0317,0,0,0,0,1,,,,,,,,,
,,,,,,,,,,,,,,,second,14,27,F,R,IMT,2021-07-09_14h08.23.940,ImageRatingTask_S1,2021.1.4,MacIntel,59.94125757,,,,,,,,,,,,,,,,,,,,,0,1,1,1,1,,,,,,,,,
,,,,,,,,,,,,,,,third,14,27,F,R,IMT,2021-07-09_14h08.23.940,ImageRatingTask_S1,2021.1.4,MacIntel,59.94125757,,,,,,,,,,,,,,,,,,,,,0,2,2,2,1,,,,,,,,,
,,,,,,,,,,,,,,,fourth,14,27,F,R,IMT,2021-07-09_14h08.23.940,ImageRatingTask_S1,2021.1.4,MacIntel,59.94125757,,,,,,,,,,,,,,,,,,,,,0,3,3,3,1,,,,,,,,,
,,,,,,,,,,,,,,,fifth,14,27,F,R,IMT,2021-07-09_14h08.23.940,ImageRatingTask_S1,2021.1.4,MacIntel,59.94125757,,,,,,,,,,,,,,,,,,,,,0,4,4,4,1,,,,,,,,,
,,,,,,,,,,,,,,,sixth,14,27,F,R,IMT,2021-07-09_14h08.23.940,ImageRatingTask_S1,2021.1.4,MacIntel,59.94125757,,,,,,,,,,,,,,,,,,,,,0,5,5,5,1,,,,,,,,,
,,,,,,,,,,,,,,,seventh,14,27,F,R,IMT,2021-07-09_14h08.23.940,ImageRatingTask_S1,2021.1.4,MacIntel,59.94125757,,,,,,,,,,,,,,,,,,,,,0,6,6,6,1,,,,,,,,,
,,,,,,,,,,,,,,,last,14,27,F,R,IMT,2021-07-09_14h08.23.940,ImageRatingTask_S1,2021.1.4,MacIntel,59.94125757,,,,,,,,,,,,,,,,,,,,,0,7,7,7,1,,,,,,,,,
,,,,,,,,,,,,,,,,14,27,F,R,IMT,2021-07-09_14h08.23.940,ImageRatingTask_S1,2021.1.4,MacIntel,59.94125757,,,,,,,,,,,,,,,,,,,,,,,,,,0,35,35,114,1,DreamStudyImages_rs1000x750g/Children/Faces_096_h.jpg,,,
,,,,,,,,,,,,,,,main,14,27,F,R,IMT,2021-07-09_14h08.23.940,ImageRatingTask_S1,2021.1.4,MacIntel,59.94125757,,,,,,,,,,,6,4.3763,2,2.4252,7,1.4765,1,1.9597,5,1.1232,0,0,0,0,1,,,,,,,,,
,,,,,,,,,,,,,,,second,14,27,F,R,IMT,2021-07-09_14h08.23.940,ImageRatingTask_S1,2021.1.4,MacIntel,59.94125757,,,,,,,,,,,,,,,,,,,,,0,1,1,1,1,,,,,,,,,
,,,,,,,,,,,,,,,third,14,27,F,R,IMT,2021-07-09_14h08.23.940,ImageRatingTask_S1,2021.1.4,MacIntel,59.94125757,,,,,,,,,,,,,,,,,,,,,0,2,2,2,1,,,,,,,,,
,,,,,,,,,,,,,,,fourth,14,27,F,R,IMT,2021-07-09_14h08.23.940,ImageRatingTask_S1,2021.1.4,MacIntel,59.94125757,,,,,,,,,,,,,,,,,,,,,0,3,3,3,1,,,,,,,,,
,,,,,,,,,,,,,,,fifth,14,27,F,R,IMT,2021-07-09_14h08.23.940,ImageRatingTask_S1,2021.1.4,MacIntel,59.94125757,,,,,,,,,,,,,,,,,,,,,0,4,4,4,1,,,,,,,,,
,,,,,,,,,,,,,,,sixth,14,27,F,R,IMT,2021-07-09_14h08.23.940,ImageRatingTask_S1,2021.1.4,MacIntel,59.94125757,,,,,,,,,,,,,,,,,,,,,0,5,5,5,1,,,,,,,,,
,,,,,,,,,,,,,,,seventh,14,27,F,R,IMT,2021-07-09_14h08.23.940,ImageRatingTask_S1,2021.1.4,MacIntel,59.94125757,,,,,,,,,,,,,,,,,,,,,0,6,6,6,1,,,,,,,,,
,,,,,,,,,,,,,,,last,14,27,F,R,IMT,2021-07-09_14h08.23.940,ImageRatingTask_S1,2021.1.4,MacIntel,59.94125757,,,,,,,,,,,,,,,,,,,,,0,7,7,7,1,,,,,,,,,
,,,,,,,,,,,,,,,,14,27,F,R,IMT,2021-07-09_14h08.23.940,ImageRatingTask_S1,2021.1.4,MacIntel,59.94125757,,,,,,,,,,,,,,,,,,,,,,,,,,0,36,36,13,1,DreamStudyImages_rs1000x750g/Food/Objects_063_v.jpg,,,
,,,,,,,,,,,,,,,main,14,27,F,R,IMT,2021-07-09_14h08.23.940,ImageRatingTask_S1,2021.1.4,MacIntel,59.94125757,,,,,,,,,,,4,7.9885,1,1.2948,6,1.8165,1,4.1686,7,1.3242,0,0,0,0,1,,,,,,,,,
,,,,,,,,,,,,,,,second,14,27,F,R,IMT,2021-07-09_14h08.23.940,ImageRatingTask_S1,2021.1.4,MacIntel,59.94125757,,,,,,,,,,,,,,,,,,,,,0,1,1,1,1,,,,,,,,,
,,,,,,,,,,,,,,,third,14,27,F,R,IMT,2021-07-09_14h08.23.940,ImageRatingTask_S1,2021.1.4,MacIntel,59.94125757,,,,,,,,,,,,,,,,,,,,,0,2,2,2,1,,,,,,,,,
,,,,,,,,,,,,,,,fourth,14,27,F,R,IMT,2021-07-09_14h08.23.940,ImageRatingTask_S1,2021.1.4,MacIntel,59.94125757,,,,,,,,,,,,,,,,,,,,,0,3,3,3,1,,,,,,,,,
,,,,,,,,,,,,,,,fifth,14,27,F,R,IMT,2021-07-09_14h08.23.940,ImageRatingTask_S1,2021.1.4,MacIntel,59.94125757,,,,,,,,,,,,,,,,,,,,,0,4,4,4,1,,,,,,,,,
,,,,,,,,,,,,,,,sixth,14,27,F,R,IMT,2021-07-09_14h08.23.940,ImageRatingTask_S1,2021.1.4,MacIntel,59.94125757,,,,,,,,,,,,,,,,,,,,,0,5,5,5,1,,,,,,,,,
,,,,,,,,,,,,,,,seventh,14,27,F,R,IMT,2021-07-09_14h08.23.940,ImageRatingTask_S1,2021.1.4,MacIntel,59.94125757,,,,,,,,,,,,,,,,,,,,,0,6,6,6,1,,,,,,,,,
,,,,,,,,,,,,,,,last,14,27,F,R,IMT,2021-07-09_14h08.23.940,ImageRatingTask_S1,2021.1.4,MacIntel,59.94125757,,,,,,,,,,,,,,,,,,,,,0,7,7,7,1,,,,,,,,,
,,,,,,,,,,,,,,,,14,27,F,R,IMT,2021-07-09_14h08.23.940,ImageRatingTask_S1,2021.1.4,MacIntel,59.94125757,,,,,,,,,,,,,,,,,,,,,,,,,,0,37,37,68,1,DreamStudyImages_rs1000x750g/Vehicles/IAPS7136_stuckcar.jpg,,,
,,,,,,,,,,,,,,,main,14,27,F,R,IMT,2021-07-09_14h08.23.940,ImageRatingTask_S1,2021.1.4,MacIntel,59.94125757,,,,,,,,,,,6,3.4847,1,2.7606,8,1.7961,1,2.2731,2,0.6194,0,0,0,0,1,,,,,,,,,
,,,,,,,,,,,,,,,second,14,27,F,R,IMT,2021-07-09_14h08.23.940,ImageRatingTask_S1,2021.1.4,MacIntel,59.94125757,,,,,,,,,,,,,,,,,,,,,0,1,1,1,1,,,,,,,,,
,,,,,,,,,,,,,,,third,14,27,F,R,IMT,2021-07-09_14h08.23.940,ImageRatingTask_S1,2021.1.4,MacIntel,59.94125757,,,,,,,,,,,,,,,,,,,,,0,2,2,2,1,,,,,,,,,
,,,,,,,,,,,,,,,fourth,14,27,F,R,IMT,2021-07-09_14h08.23.940,ImageRatingTask_S1,2021.1.4,MacIntel,59.94125757,,,,,,,,,,,,,,,,,,,,,0,3,3,3,1,,,,,,,,,
,,,,,,,,,,,,,,,fifth,14,27,F,R,IMT,2021-07-09_14h08.23.940,ImageRatingTask_S1,2021.1.4,MacIntel,59.94125757,,,,,,,,,,,,,,,,,,,,,0,4,4,4,1,,,,,,,,,
,,,,,,,,,,,,,,,sixth,14,27,F,R,IMT,2021-07-09_14h08.23.940,ImageRatingTask_S1,2021.1.4,MacIntel,59.94125757,,,,,,,,,,,,,,,,,,,,,0,5,5,5,1,,,,,,,,,
,,,,,,,,,,,,,,,seventh,14,27,F,R,IMT,2021-07-09_14h08.23.940,ImageRatingTask_S1,2021.1.4,MacIntel,59.94125757,,,,,,,,,,,,,,,,,,,,,0,6,6,6,1,,,,,,,,,
,,,,,,,,,,,,,,,last,14,27,F,R,IMT,2021-07-09_14h08.23.940,ImageRatingTask_S1,2021.1.4,MacIntel,59.94125757,,,,,,,,,,,,,,,,,,,,,0,7,7,7,1,,,,,,,,,
,,,,,,,,,,,,,,,,14,27,F,R,IMT,2021-07-09_14h08.23.940,ImageRatingTask_S1,2021.1.4,MacIntel,59.94125757,,,,,,,,,,,,,,,,,,,,,,,,,,0,38,38,92,1,DreamStudyImages_rs1000x750g/Children/Gazing 3.jpg,,,
,,,,,,,,,,,,,,,main,14,27,F,R,IMT,2021-07-09_14h08.23.940,ImageRatingTask_S1,2021.1.4,MacIntel,59.94125757,,,,,,,,,,,4,7.5603,3,39.3141,5,2.5189,1,2.9106,7,1.6972,0,0,0,0,1,,,,,,,,,
,,,,,,,,,,,,,,,second,14,27,F,R,IMT,2021-07-09_14h08.23.940,ImageRatingTask_S1,2021.1.4,MacIntel,59.94125757,,,,,,,,,,,,,,,,,,,,,0,1,1,1,1,,,,,,,,,
,,,,,,,,,,,,,,,third,14,27,F,R,IMT,2021-07-09_14h08.23.940,ImageRatingTask_S1,2021.1.4,MacIntel,59.94125757,,,,,,,,,,,,,,,,,,,,,0,2,2,2,1,,,,,,,,,
,,,,,,,,,,,,,,,fourth,14,27,F,R,IMT,2021-07-09_14h08.23.940,ImageRatingTask_S1,2021.1.4,MacIntel,59.94125757,,,,,,,,,,,,,,,,,,,,,0,3,3,3,1,,,,,,,,,
,,,,,,,,,,,,,,,fifth,14,27,F,R,IMT,2021-07-09_14h08.23.940,ImageRatingTask_S1,2021.1.4,MacIntel,59.94125757,,,,,,,,,,,,,,,,,,,,,0,4,4,4,1,,,,,,,,,
,,,,,,,,,,,,,,,sixth,14,27,F,R,IMT,2021-07-09_14h08.23.940,ImageRatingTask_S1,2021.1.4,MacIntel,59.94125757,,,,,,,,,,,,,,,,,,,,,0,5,5,5,1,,,,,,,,,
,,,,,,,,,,,,,,,seventh,14,27,F,R,IMT,2021-07-09_14h08.23.940,ImageRatingTask_S1,2021.1.4,MacIntel,59.94125757,,,,,,,,,,,,,,,,,,,,,0,6,6,6,1,,,,,,,,,
,,,,,,,,,,,,,,,last,14,27,F,R,IMT,2021-07-09_14h08.23.940,ImageRatingTask_S1,2021.1.4,MacIntel,59.94125757,,,,,,,,,,,,,,,,,,,,,0,7,7,7,1,,,,,,,,,
,,,,,,,,,,,,,,,,14,27,F,R,IMT,2021-07-09_14h08.23.940,ImageRatingTask_S1,2021.1.4,MacIntel,59.94125757,,,,,,,,,,,,,,,,,,,,,,,,,,0,39,39,69,1,DreamStudyImages_rs1000x750g/Vehicles/Plane crash 4.jpg,,,
,,,,,,,,,,,,,,,main,14,27,F,R,IMT,2021-07-09_14h08.23.940,ImageRatingTask_S1,2021.1.4,MacIntel,59.94125757,,,,,,,,,,,7,9.3943,4,2.4307,6,2.6949,1,6.308,3,1.3275,0,0,0,0,1,,,,,,,,,
,,,,,,,,,,,,,,,second,14,27,F,R,IMT,2021-07-09_14h08.23.940,ImageRatingTask_S1,2021.1.4,MacIntel,59.94125757,,,,,,,,,,,,,,,,,,,,,0,1,1,1,1,,,,,,,,,
,,,,,,,,,,,,,,,third,14,27,F,R,IMT,2021-07-09_14h08.23.940,ImageRatingTask_S1,2021.1.4,MacIntel,59.94125757,,,,,,,,,,,,,,,,,,,,,0,2,2,2,1,,,,,,,,,
,,,,,,,,,,,,,,,fourth,14,27,F,R,IMT,2021-07-09_14h08.23.940,ImageRatingTask_S1,2021.1.4,MacIntel,59.94125757,,,,,,,,,,,,,,,,,,,,,0,3,3,3,1,,,,,,,,,
,,,,,,,,,,,,,,,fifth,14,27,F,R,IMT,2021-07-09_14h08.23.940,ImageRatingTask_S1,2021.1.4,MacIntel,59.94125757,,,,,,,,,,,,,,,,,,,,,0,4,4,4,1,,,,,,,,,
,,,,,,,,,,,,,,,sixth,14,27,F,R,IMT,2021-07-09_14h08.23.940,ImageRatingTask_S1,2021.1.4,MacIntel,59.94125757,,,,,,,,,,,,,,,,,,,,,0,5,5,5,1,,,,,,,,,
,,,,,,,,,,,,,,,seventh,14,27,F,R,IMT,2021-07-09_14h08.23.940,ImageRatingTask_S1,2021.1.4,MacIntel,59.94125757,,,,,,,,,,,,,,,,,,,,,0,6,6,6,1,,,,,,,,,
,,,,,,,,,,,,,,,last,14,27,F,R,IMT,2021-07-09_14h08.23.940,ImageRatingTask_S1,2021.1.4,MacIntel,59.94125757,,,,,,,,,,,,,,,,,,,,,0,7,7,7,1,,,,,,,,,
,,,,,,,,,,,,,,,,14,27,F,R,IMT,2021-07-09_14h08.23.940,ImageRatingTask_S1,2021.1.4,MacIntel,59.94125757,,,,,,,,,,,,,,,,,,,,,,,,,,0,40,40,159,1,DreamStudyImages_rs1000x750g/Mammals/Raccoon 1.jpg,,,
,,,,,,,,,,,,,,,main,14,27,F,R,IMT,2021-07-09_14h08.23.940,ImageRatingTask_S1,2021.1.4,MacIntel,59.94125757,,,,,,,,,,,6,4.3411,3,37.9671,7,4.352,1,7.3886,6,1.2012,0,0,0,0,1,,,,,,,,,
,,,,,,,,,,,,,,,second,14,27,F,R,IMT,2021-07-09_14h08.23.940,ImageRatingTask_S1,2021.1.4,MacIntel,59.94125757,,,,,,,,,,,,,,,,,,,,,0,1,1,1,1,,,,,,,,,
,,,,,,,,,,,,,,,third,14,27,F,R,IMT,2021-07-09_14h08.23.940,ImageRatingTask_S1,2021.1.4,MacIntel,59.94125757,,,,,,,,,,,,,,,,,,,,,0,2,2,2,1,,,,,,,,,
,,,,,,,,,,,,,,,fourth,14,27,F,R,IMT,2021-07-09_14h08.23.940,ImageRatingTask_S1,2021.1.4,MacIntel,59.94125757,,,,,,,,,,,,,,,,,,,,,0,3,3,3,1,,,,,,,,,
,,,,,,,,,,,,,,,fifth,14,27,F,R,IMT,2021-07-09_14h08.23.940,ImageRatingTask_S1,2021.1.4,MacIntel,59.94125757,,,,,,,,,,,,,,,,,,,,,0,4,4,4,1,,,,,,,,,
,,,,,,,,,,,,,,,sixth,14,27,F,R,IMT,2021-07-09_14h08.23.940,ImageRatingTask_S1,2021.1.4,MacIntel,59.94125757,,,,,,,,,,,,,,,,,,,,,0,5,5,5,1,,,,,,,,,
,,,,,,,,,,,,,,,seventh,14,27,F,R,IMT,2021-07-09_14h08.23.940,ImageRatingTask_S1,2021.1.4,MacIntel,59.94125757,,,,,,,,,,,,,,,,,,,,,0,6,6,6,1,,,,,,,,,
,,,,,,,,,,,,,,,last,14,27,F,R,IMT,2021-07-09_14h08.23.940,ImageRatingTask_S1,2021.1.4,MacIntel,59.94125757,,,,,,,,,,,,,,,,,,,,,0,7,7,7,1,,,,,,,,,
,,,,,,,,,,,,,,,,14,27,F,R,IMT,2021-07-09_14h08.23.940,ImageRatingTask_S1,2021.1.4,MacIntel,59.94125757,,,,,,,,,,,,,,,,,,,,,,,,,,0,41,41,9,1,DreamStudyImages_rs1000x750g/Houses/Landscapes_038_h.jpg,,,
,,,,,,,,,,,,,,,main,14,27,F,R,IMT,2021-07-09_14h08.23.940,ImageRatingTask_S1,2021.1.4,MacIntel,59.94125757,,,,,,,,,,,5,3.8138,1,0.8749,4,3.8486,1,2.903,5,1.0094,0,0,0,0,1,,,,,,,,,
,,,,,,,,,,,,,,,second,14,27,F,R,IMT,2021-07-09_14h08.23.940,ImageRatingTask_S1,2021.1.4,MacIntel,59.94125757,,,,,,,,,,,,,,,,,,,,,0,1,1,1,1,,,,,,,,,
,,,,,,,,,,,,,,,third,14,27,F,R,IMT,2021-07-09_14h08.23.940,ImageRatingTask_S1,2021.1.4,MacIntel,59.94125757,,,,,,,,,,,,,,,,,,,,,0,2,2,2,1,,,,,,,,,
,,,,,,,,,,,,,,,fourth,14,27,F,R,IMT,2021-07-09_14h08.23.940,ImageRatingTask_S1,2021.1.4,MacIntel,59.94125757,,,,,,,,,,,,,,,,,,,,,0,3,3,3,1,,,,,,,,,
,,,,,,,,,,,,,,,fifth,14,27,F,R,IMT,2021-07-09_14h08.23.940,ImageRatingTask_S1,2021.1.4,MacIntel,59.94125757,,,,,,,,,,,,,,,,,,,,,0,4,4,4,1,,,,,,,,,
,,,,,,,,,,,,,,,sixth,14,27,F,R,IMT,2021-07-09_14h08.23.940,ImageRatingTask_S1,2021.1.4,MacIntel,59.94125757,,,,,,,,,,,,,,,,,,,,,0,5,5,5,1,,,,,,,,,
,,,,,,,,,,,,,,,seventh,14,27,F,R,IMT,2021-07-09_14h08.23.940,ImageRatingTask_S1,2021.1.4,MacIntel,59.94125757,,,,,,,,,,,,,,,,,,,,,0,6,6,6,1,,,,,,,,,
,,,,,,,,,,,,,,,last,14,27,F,R,IMT,2021-07-09_14h08.23.940,ImageRatingTask_S1,2021.1.4,MacIntel,59.94125757,,,,,,,,,,,,,,,,,,,,,0,7,7,7,1,,,,,,,,,
,,,,,,,,,,,,,,,,14,27,F,R,IMT,2021-07-09_14h08.23.940,ImageRatingTask_S1,2021.1.4,MacIntel,59.94125757,,,,,,,,,,,,,,,,,,,,,,,,,,0,42,42,109,1,DreamStudyImages_rs1000x750g/Food/Objects_090_h.jpg,,,
,,,,,,,,,,,,,,,main,14,27,F,R,IMT,2021-07-09_14h08.23.940,ImageRatingTask_S1,2021.1.4,MacIntel,59.94125757,,,,,,,,,,,3,4.3526,3,1.5228,7,1.8361,1,2.8557,3,1.7348,0,0,0,0,1,,,,,,,,,
,,,,,,,,,,,,,,,second,14,27,F,R,IMT,2021-07-09_14h08.23.940,ImageRatingTask_S1,2021.1.4,MacIntel,59.94125757,,,,,,,,,,,,,,,,,,,,,0,1,1,1,1,,,,,,,,,
,,,,,,,,,,,,,,,third,14,27,F,R,IMT,2021-07-09_14h08.23.940,ImageRatingTask_S1,2021.1.4,MacIntel,59.94125757,,,,,,,,,,,,,,,,,,,,,0,2,2,2,1,,,,,,,,,
,,,,,,,,,,,,,,,fourth,14,27,F,R,IMT,2021-07-09_14h08.23.940,ImageRatingTask_S1,2021.1.4,MacIntel,59.94125757,,,,,,,,,,,,,,,,,,,,,0,3,3,3,1,,,,,,,,,
,,,,,,,,,,,,,,,fifth,14,27,F,R,IMT,2021-07-09_14h08.23.940,ImageRatingTask_S1,2021.1.4,MacIntel,59.94125757,,,,,,,,,,,,,,,,,,,,,0,4,4,4,1,,,,,,,,,
,,,,,,,,,,,,,,,sixth,14,27,F,R,IMT,2021-07-09_14h08.23.940,ImageRatingTask_S1,2021.1.4,MacIntel,59.94125757,,,,,,,,,,,,,,,,,,,,,0,5,5,5,1,,,,,,,,,
,,,,,,,,,,,,,,,seventh,14,27,F,R,IMT,2021-07-09_14h08.23.940,ImageRatingTask_S1,2021.1.4,MacIntel,59.94125757,,,,,,,,,,,,,,,,,,,,,0,6,6,6,1,,,,,,,,,
,,,,,,,,,,,,,,,last,14,27,F,R,IMT,2021-07-09_14h08.23.940,ImageRatingTask_S1,2021.1.4,MacIntel,59.94125757,,,,,,,,,,,,,,,,,,,,,0,7,7,7,1,,,,,,,,,
,,,,,,,,,,,,,,,,14,27,F,R,IMT,2021-07-09_14h08.23.940,ImageRatingTask_S1,2021.1.4,MacIntel,59.94125757,,,,,,,,,,,,,,,,,,,,,,,,,,0,43,43,153,1,DreamStudyImages_rs1000x750g/Mammals/Animals_034_h.jpg,,,
,,,,,,,,,,,,,,,main,14,27,F,R,IMT,2021-07-09_14h08.23.940,ImageRatingTask_S1,2021.1.4,MacIntel,59.94125757,,,,,,,,,,,6,8.8726,2,1.1843,6,2.227,1,3.2688,7,1.3602,0,0,0,0,1,,,,,,,,,
,,,,,,,,,,,,,,,second,14,27,F,R,IMT,2021-07-09_14h08.23.940,ImageRatingTask_S1,2021.1.4,MacIntel,59.94125757,,,,,,,,,,,,,,,,,,,,,0,1,1,1,1,,,,,,,,,
,,,,,,,,,,,,,,,third,14,27,F,R,IMT,2021-07-09_14h08.23.940,ImageRatingTask_S1,2021.1.4,MacIntel,59.94125757,,,,,,,,,,,,,,,,,,,,,0,2,2,2,1,,,,,,,,,
,,,,,,,,,,,,,,,fourth,14,27,F,R,IMT,2021-07-09_14h08.23.940,ImageRatingTask_S1,2021.1.4,MacIntel,59.94125757,,,,,,,,,,,,,,,,,,,,,0,3,3,3,1,,,,,,,,,
,,,,,,,,,,,,,,,fifth,14,27,F,R,IMT,2021-07-09_14h08.23.940,ImageRatingTask_S1,2021.1.4,MacIntel,59.94125757,,,,,,,,,,,,,,,,,,,,,0,4,4,4,1,,,,,,,,,
,,,,,,,,,,,,,,,sixth,14,27,F,R,IMT,2021-07-09_14h08.23.940,ImageRatingTask_S1,2021.1.4,MacIntel,59.94125757,,,,,,,,,,,,,,,,,,,,,0,5,5,5,1,,,,,,,,,
,,,,,,,,,,,,,,,seventh,14,27,F,R,IMT,2021-07-09_14h08.23.940,ImageRatingTask_S1,2021.1.4,MacIntel,59.94125757,,,,,,,,,,,,,,,,,,,,,0,6,6,6,1,,,,,,,,,
,,,,,,,,,,,,,,,last,14,27,F,R,IMT,2021-07-09_14h08.23.940,ImageRatingTask_S1,2021.1.4,MacIntel,59.94125757,,,,,,,,,,,,,,,,,,,,,0,7,7,7,1,,,,,,,,,
,,,,,,,,,,,,,,,,14,27,F,R,IMT,2021-07-09_14h08.23.940,ImageRatingTask_S1,2021.1.4,MacIntel,59.94125757,,,,,,,,,,,,,,,,,,,,,,,,,,0,44,44,132,1,DreamStudyImages_rs1000x750g/Vehicles/Objects_287_h.jpg,,,
,,,,,,,,,,,,,,,main,14,27,F,R,IMT,2021-07-09_14h08.23.940,ImageRatingTask_S1,2021.1.4,MacIntel,59.94125757,,,,,,,,,,,3,5.4154,3,3.8063,5,2.1486,0,6.8028,,,0,0,0,0,1,,,,,,,,,
,,,,,,,,,,,,,,,second,14,27,F,R,IMT,2021-07-09_14h08.23.940,ImageRatingTask_S1,2021.1.4,MacIntel,59.94125757,,,,,,,,,,,,,,,,,,,,,0,1,1,1,1,,,,,,,,,
,,,,,,,,,,,,,,,third,14,27,F,R,IMT,2021-07-09_14h08.23.940,ImageRatingTask_S1,2021.1.4,MacIntel,59.94125757,,,,,,,,,,,,,,,,,,,,,0,2,2,2,1,,,,,,,,,
,,,,,,,,,,,,,,,fourth,14,27,F,R,IMT,2021-07-09_14h08.23.940,ImageRatingTask_S1,2021.1.4,MacIntel,59.94125757,,,,,,,,,,,,,,,,,,,,,0,3,3,3,1,,,,,,,,,
,,,,,,,,,,,,,,,fifth,14,27,F,R,IMT,2021-07-09_14h08.23.940,ImageRatingTask_S1,2021.1.4,MacIntel,59.94125757,,,,,,,,,,,,,,,,,,,,,0,4,4,4,1,,,,,,,,,
,,,,,,,,,,,,,,,sixth,14,27,F,R,IMT,2021-07-09_14h08.23.940,ImageRatingTask_S1,2021.1.4,MacIntel,59.94125757,,,,,,,,,,,,,,,,,,,,,0,5,5,5,1,,,,,,,,,
,,,,,,,,,,,,,,,seventh,14,27,F,R,IMT,2021-07-09_14h08.23.940,ImageRatingTask_S1,2021.1.4,MacIntel,59.94125757,,,,,,,,,,,,,,,,,,,,,0,6,6,6,1,,,,,,,,,
,,,,,,,,,,,,,,,last,14,27,F,R,IMT,2021-07-09_14h08.23.940,ImageRatingTask_S1,2021.1.4,MacIntel,59.94125757,,,,,,,,,,,,,,,,,,,,,0,7,7,7,1,,,,,,,,,
,,,,,,,,,,,,,,,,14,27,F,R,IMT,2021-07-09_14h08.23.940,ImageRatingTask_S1,2021.1.4,MacIntel,59.94125757,,,,,,,,,,,,,,,,,,,,,,,,,,0,45,45,149,1,DreamStudyImages_rs1000x750g/Food/Objects_068_v.jpg,,,
,,,,,,,,,,,,,,,main,14,27,F,R,IMT,2021-07-09_14h08.23.940,ImageRatingTask_S1,2021.1.4,MacIntel,59.94125757,,,,,,,,,,,6,5.1538,2,1.4023,7,2.1773,1,1.6668,2,1.4084,0,0,0,0,1,,,,,,,,,
,,,,,,,,,,,,,,,second,14,27,F,R,IMT,2021-07-09_14h08.23.940,ImageRatingTask_S1,2021.1.4,MacIntel,59.94125757,,,,,,,,,,,,,,,,,,,,,0,1,1,1,1,,,,,,,,,
,,,,,,,,,,,,,,,third,14,27,F,R,IMT,2021-07-09_14h08.23.940,ImageRatingTask_S1,2021.1.4,MacIntel,59.94125757,,,,,,,,,,,,,,,,,,,,,0,2,2,2,1,,,,,,,,,
,,,,,,,,,,,,,,,fourth,14,27,F,R,IMT,2021-07-09_14h08.23.940,ImageRatingTask_S1,2021.1.4,MacIntel,59.94125757,,,,,,,,,,,,,,,,,,,,,0,3,3,3,1,,,,,,,,,
,,,,,,,,,,,,,,,fifth,14,27,F,R,IMT,2021-07-09_14h08.23.940,ImageRatingTask_S1,2021.1.4,MacIntel,59.94125757,,,,,,,,,,,,,,,,,,,,,0,4,4,4,1,,,,,,,,,
,,,,,,,,,,,,,,,sixth,14,27,F,R,IMT,2021-07-09_14h08.23.940,ImageRatingTask_S1,2021.1.4,MacIntel,59.94125757,,,,,,,,,,,,,,,,,,,,,0,5,5,5,1,,,,,,,,,
,,,,,,,,,,,,,,,seventh,14,27,F,R,IMT,2021-07-09_14h08.23.940,ImageRatingTask_S1,2021.1.4,MacIntel,59.94125757,,,,,,,,,,,,,,,,,,,,,0,6,6,6,1,,,,,,,,,
,,,,,,,,,,,,,,,last,14,27,F,R,IMT,2021-07-09_14h08.23.940,ImageRatingTask_S1,2021.1.4,MacIntel,59.94125757,,,,,,,,,,,,,,,,,,,,,0,7,7,7,1,,,,,,,,,
,,,,,,,,,,,,,,,,14,27,F,R,IMT,2021-07-09_14h08.23.940,ImageRatingTask_S1,2021.1.4,MacIntel,59.94125757,,,,,,,,,,,,,,,,,,,,,,,,,,0,46,46,64,1,DreamStudyImages_rs1000x750g/Children/Faces_008_h.jpg,,,
,,,,,,,,,,,,,,,main,14,27,F,R,IMT,2021-07-09_14h08.23.940,ImageRatingTask_S1,2021.1.4,MacIntel,59.94125757,,,,,,,,,,,5,6.0616,1,9.0334,7,1.6795,1,1.5708,2,0.5214,0,0,0,0,1,,,,,,,,,
,,,,,,,,,,,,,,,second,14,27,F,R,IMT,2021-07-09_14h08.23.940,ImageRatingTask_S1,2021.1.4,MacIntel,59.94125757,,,,,,,,,,,,,,,,,,,,,0,1,1,1,1,,,,,,,,,
,,,,,,,,,,,,,,,third,14,27,F,R,IMT,2021-07-09_14h08.23.940,ImageRatingTask_S1,2021.1.4,MacIntel,59.94125757,,,,,,,,,,,,,,,,,,,,,0,2,2,2,1,,,,,,,,,
,,,,,,,,,,,,,,,fourth,14,27,F,R,IMT,2021-07-09_14h08.23.940,ImageRatingTask_S1,2021.1.4,MacIntel,59.94125757,,,,,,,,,,,,,,,,,,,,,0,3,3,3,1,,,,,,,,,
,,,,,,,,,,,,,,,fifth,14,27,F,R,IMT,2021-07-09_14h08.23.940,ImageRatingTask_S1,2021.1.4,MacIntel,59.94125757,,,,,,,,,,,,,,,,,,,,,0,4,4,4,1,,,,,,,,,
,,,,,,,,,,,,,,,sixth,14,27,F,R,IMT,2021-07-09_14h08.23.940,ImageRatingTask_S1,2021.1.4,MacIntel,59.94125757,,,,,,,,,,,,,,,,,,,,,0,5,5,5,1,,,,,,,,,
,,,,,,,,,,,,,,,seventh,14,27,F,R,IMT,2021-07-09_14h08.23.940,ImageRatingTask_S1,2021.1.4,MacIntel,59.94125757,,,,,,,,,,,,,,,,,,,,,0,6,6,6,1,,,,,,,,,
,,,,,,,,,,,,,,,last,14,27,F,R,IMT,2021-07-09_14h08.23.940,ImageRatingTask_S1,2021.1.4,MacIntel,59.94125757,,,,,,,,,,,,,,,,,,,,,0,7,7,7,1,,,,,,,,,
,,,,,,,,,,,,,,,,14,27,F,R,IMT,2021-07-09_14h08.23.940,ImageRatingTask_S1,2021.1.4,MacIntel,59.94125757,,,,,,,,,,,,,,,,,,,,,,,,,,0,47,47,150,1,DreamStudyImages_rs1000x750g/Children/Sad face 9.jpg,,,
,,,,,,,,,,,,,,,main,14,27,F,R,IMT,2021-07-09_14h08.23.940,ImageRatingTask_S1,2021.1.4,MacIntel,59.94125757,,,,,,,,,,,6,4.2598,2,1.638,7,1.454,1,3.0365,2,0.8565,0,0,0,0,1,,,,,,,,,
,,,,,,,,,,,,,,,second,14,27,F,R,IMT,2021-07-09_14h08.23.940,ImageRatingTask_S1,2021.1.4,MacIntel,59.94125757,,,,,,,,,,,,,,,,,,,,,0,1,1,1,1,,,,,,,,,
,,,,,,,,,,,,,,,third,14,27,F,R,IMT,2021-07-09_14h08.23.940,ImageRatingTask_S1,2021.1.4,MacIntel,59.94125757,,,,,,,,,,,,,,,,,,,,,0,2,2,2,1,,,,,,,,,
,,,,,,,,,,,,,,,fourth,14,27,F,R,IMT,2021-07-09_14h08.23.940,ImageRatingTask_S1,2021.1.4,MacIntel,59.94125757,,,,,,,,,,,,,,,,,,,,,0,3,3,3,1,,,,,,,,,
,,,,,,,,,,,,,,,fifth,14,27,F,R,IMT,2021-07-09_14h08.23.940,ImageRatingTask_S1,2021.1.4,MacIntel,59.94125757,,,,,,,,,,,,,,,,,,,,,0,4,4,4,1,,,,,,,,,
,,,,,,,,,,,,,,,sixth,14,27,F,R,IMT,2021-07-09_14h08.23.940,ImageRatingTask_S1,2021.1.4,MacIntel,59.94125757,,,,,,,,,,,,,,,,,,,,,0,5,5,5,1,,,,,,,,,
,,,,,,,,,,,,,,,seventh,14,27,F,R,IMT,2021-07-09_14h08.23.940,ImageRatingTask_S1,2021.1.4,MacIntel,59.94125757,,,,,,,,,,,,,,,,,,,,,0,6,6,6,1,,,,,,,,,
,,,,,,,,,,,,,,,last,14,27,F,R,IMT,2021-07-09_14h08.23.940,ImageRatingTask_S1,2021.1.4,MacIntel,59.94125757,,,,,,,,,,,,,,,,,,,,,0,7,7,7,1,,,,,,,,,
,,,,,,,,,,,,,,,,14,27,F,R,IMT,2021-07-09_14h08.23.940,ImageRatingTask_S1,2021.1.4,MacIntel,59.94125757,,,,,,,,,,,,,,,,,,,,,,,,,,0,48,48,108,1,DreamStudyImages_rs1000x750g/Children/Faces_124_h.jpg,,,
,,,,,,,,,,,,,,,main,14,27,F,R,IMT,2021-07-09_14h08.23.940,ImageRatingTask_S1,2021.1.4,MacIntel,59.94125757,,,,,,,,,,,6,3.7103,2,2.0857,7,1.9052,1,2.4703,5,1.1464,0,0,0,0,1,,,,,,,,,
,,,,,,,,,,,,,,,second,14,27,F,R,IMT,2021-07-09_14h08.23.940,ImageRatingTask_S1,2021.1.4,MacIntel,59.94125757,,,,,,,,,,,,,,,,,,,,,0,1,1,1,1,,,,,,,,,
,,,,,,,,,,,,,,,third,14,27,F,R,IMT,2021-07-09_14h08.23.940,ImageRatingTask_S1,2021.1.4,MacIntel,59.94125757,,,,,,,,,,,,,,,,,,,,,0,2,2,2,1,,,,,,,,,
,,,,,,,,,,,,,,,fourth,14,27,F,R,IMT,2021-07-09_14h08.23.940,ImageRatingTask_S1,2021.1.4,MacIntel,59.94125757,,,,,,,,,,,,,,,,,,,,,0,3,3,3,1,,,,,,,,,
,,,,,,,,,,,,,,,fifth,14,27,F,R,IMT,2021-07-09_14h08.23.940,ImageRatingTask_S1,2021.1.4,MacIntel,59.94125757,,,,,,,,,,,,,,,,,,,,,0,4,4,4,1,,,,,,,,,
,,,,,,,,,,,,,,,sixth,14,27,F,R,IMT,2021-07-09_14h08.23.940,ImageRatingTask_S1,2021.1.4,MacIntel,59.94125757,,,,,,,,,,,,,,,,,,,,,0,5,5,5,1,,,,,,,,,
,,,,,,,,,,,,,,,seventh,14,27,F,R,IMT,2021-07-09_14h08.23.940,ImageRatingTask_S1,2021.1.4,MacIntel,59.94125757,,,,,,,,,,,,,,,,,,,,,0,6,6,6,1,,,,,,,,,
,,,,,,,,,,,,,,,last,14,27,F,R,IMT,2021-07-09_14h08.23.940,ImageRatingTask_S1,2021.1.4,MacIntel,59.94125757,,,,,,,,,,,,,,,,,,,,,0,7,7,7,1,,,,,,,,,
,,,,,,,,,,,,,,,,14,27,F,R,IMT,2021-07-09_14h08.23.940,ImageRatingTask_S1,2021.1.4,MacIntel,59.94125757,,,,,,,,,,,,,,,,,,,,,,,,,,0,49,49,133,1,DreamStudyImages_rs1000x750g/Food/Objects_066_v.jpg,,,
,,,,,,,,,,,,,,,main,14,27,F,R,IMT,2021-07-09_14h08.23.940,ImageRatingTask_S1,2021.1.4,MacIntel,59.94125757,,,,,,,,,,,4,48.1641,3,3.2175,8,2.3165,1,2.6896,8,2.005,0,0,0,0,1,,,,,,,,,
,,,,,,,,,,,,,,,second,14,27,F,R,IMT,2021-07-09_14h08.23.940,ImageRatingTask_S1,2021.1.4,MacIntel,59.94125757,,,,,,,,,,,,,,,,,,,,,0,1,1,1,1,,,,,,,,,
,,,,,,,,,,,,,,,third,14,27,F,R,IMT,2021-07-09_14h08.23.940,ImageRatingTask_S1,2021.1.4,MacIntel,59.94125757,,,,,,,,,,,,,,,,,,,,,0,2,2,2,1,,,,,,,,,
,,,,,,,,,,,,,,,fourth,14,27,F,R,IMT,2021-07-09_14h08.23.940,ImageRatingTask_S1,2021.1.4,MacIntel,59.94125757,,,,,,,,,,,,,,,,,,,,,0,3,3,3,1,,,,,,,,,
,,,,,,,,,,,,,,,fifth,14,27,F,R,IMT,2021-07-09_14h08.23.940,ImageRatingTask_S1,2021.1.4,MacIntel,59.94125757,,,,,,,,,,,,,,,,,,,,,0,4,4,4,1,,,,,,,,,
,,,,,,,,,,,,,,,sixth,14,27,F,R,IMT,2021-07-09_14h08.23.940,ImageRatingTask_S1,2021.1.4,MacIntel,59.94125757,,,,,,,,,,,,,,,,,,,,,0,5,5,5,1,,,,,,,,,
,,,,,,,,,,,,,,,seventh,14,27,F,R,IMT,2021-07-09_14h08.23.940,ImageRatingTask_S1,2021.1.4,MacIntel,59.94125757,,,,,,,,,,,,,,,,,,,,,0,6,6,6,1,,,,,,,,,
,,,,,,,,,,,,,,,last,14,27,F,R,IMT,2021-07-09_14h08.23.940,ImageRatingTask_S1,2021.1.4,MacIntel,59.94125757,,,,,,,,,,,,,,,,,,,,,0,7,7,7,1,,,,,,,,,
,,,,,,,,,,,,,,,,14,27,F,R,IMT,2021-07-09_14h08.23.940,ImageRatingTask_S1,2021.1.4,MacIntel,59.94125757,,,,,,,,,,,,,,,,,,,,,,,,,,0,50,50,31,1,DreamStudyImages_rs1000x750g/Water/water_neg_5.jpg,,,
,,,,,,,,,,,,,,,main,14,27,F,R,IMT,2021-07-09_14h08.23.940,ImageRatingTask_S1,2021.1.4,MacIntel,59.94125757,,,,,,,,,,,7,4.7886,3,1.4113,8,2.0579,1,2.1386,3,1.1942,0,0,0,0,1,,,,,,,,,
,,,,,,,,,,,,,,,second,14,27,F,R,IMT,2021-07-09_14h08.23.940,ImageRatingTask_S1,2021.1.4,MacIntel,59.94125757,,,,,,,,,,,,,,,,,,,,,0,1,1,1,1,,,,,,,,,
,,,,,,,,,,,,,,,third,14,27,F,R,IMT,2021-07-09_14h08.23.940,ImageRatingTask_S1,2021.1.4,MacIntel,59.94125757,,,,,,,,,,,,,,,,,,,,,0,2,2,2,1,,,,,,,,,
,,,,,,,,,,,,,,,fourth,14,27,F,R,IMT,2021-07-09_14h08.23.940,ImageRatingTask_S1,2021.1.4,MacIntel,59.94125757,,,,,,,,,,,,,,,,,,,,,0,3,3,3,1,,,,,,,,,
,,,,,,,,,,,,,,,fifth,14,27,F,R,IMT,2021-07-09_14h08.23.940,ImageRatingTask_S1,2021.1.4,MacIntel,59.94125757,,,,,,,,,,,,,,,,,,,,,0,4,4,4,1,,,,,,,,,
,,,,,,,,,,,,,,,sixth,14,27,F,R,IMT,2021-07-09_14h08.23.940,ImageRatingTask_S1,2021.1.4,MacIntel,59.94125757,,,,,,,,,,,,,,,,,,,,,0,5,5,5,1,,,,,,,,,
,,,,,,,,,,,,,,,seventh,14,27,F,R,IMT,2021-07-09_14h08.23.940,ImageRatingTask_S1,2021.1.4,MacIntel,59.94125757,,,,,,,,,,,,,,,,,,,,,0,6,6,6,1,,,,,,,,,
,,,,,,,,,,,,,,,last,14,27,F,R,IMT,2021-07-09_14h08.23.940,ImageRatingTask_S1,2021.1.4,MacIntel,59.94125757,,,,,,,,,,,,,,,,,,,,,0,7,7,7,1,,,,,,,,,
,,,,,,,,,,,,,,,,14,27,F,R,IMT,2021-07-09_14h08.23.940,ImageRatingTask_S1,2021.1.4,MacIntel,59.94125757,,,,,,,,,,,,,,,,,,,,,,,,,,0,51,51,139,1,DreamStudyImages_rs1000x750g/Mammals/Pig 2.jpg,,,
,,,,,,,,,,,,,,,main,14,27,F,R,IMT,2021-07-09_14h08.23.940,ImageRatingTask_S1,2021.1.4,MacIntel,59.94125757,,,,,,,,,,,5,7.0772,2,3.3161,6,1.8766,1,2.3144,5,0.898,0,0,0,0,1,,,,,,,,,
,,,,,,,,,,,,,,,second,14,27,F,R,IMT,2021-07-09_14h08.23.940,ImageRatingTask_S1,2021.1.4,MacIntel,59.94125757,,,,,,,,,,,,,,,,,,,,,0,1,1,1,1,,,,,,,,,
,,,,,,,,,,,,,,,third,14,27,F,R,IMT,2021-07-09_14h08.23.940,ImageRatingTask_S1,2021.1.4,MacIntel,59.94125757,,,,,,,,,,,,,,,,,,,,,0,2,2,2,1,,,,,,,,,
,,,,,,,,,,,,,,,fourth,14,27,F,R,IMT,2021-07-09_14h08.23.940,ImageRatingTask_S1,2021.1.4,MacIntel,59.94125757,,,,,,,,,,,,,,,,,,,,,0,3,3,3,1,,,,,,,,,
,,,,,,,,,,,,,,,fifth,14,27,F,R,IMT,2021-07-09_14h08.23.940,ImageRatingTask_S1,2021.1.4,MacIntel,59.94125757,,,,,,,,,,,,,,,,,,,,,0,4,4,4,1,,,,,,,,,
,,,,,,,,,,,,,,,sixth,14,27,F,R,IMT,2021-07-09_14h08.23.940,ImageRatingTask_S1,2021.1.4,MacIntel,59.94125757,,,,,,,,,,,,,,,,,,,,,0,5,5,5,1,,,,,,,,,
,,,,,,,,,,,,,,,seventh,14,27,F,R,IMT,2021-07-09_14h08.23.940,ImageRatingTask_S1,2021.1.4,MacIntel,59.94125757,,,,,,,,,,,,,,,,,,,,,0,6,6,6,1,,,,,,,,,
,,,,,,,,,,,,,,,last,14,27,F,R,IMT,2021-07-09_14h08.23.940,ImageRatingTask_S1,2021.1.4,MacIntel,59.94125757,,,,,,,,,,,,,,,,,,,,,0,7,7,7,1,,,,,,,,,
,,,,,,,,,,,,,,,,14,27,F,R,IMT,2021-07-09_14h08.23.940,ImageRatingTask_S1,2021.1.4,MacIntel,59.94125757,,,,,,,,,,,,,,,,,,,,,,,,,,0,52,52,42,1,DreamStudyImages_rs1000x750g/Food/7351.jpg,,,
,,,,,,,,,,,,,,,main,14,27,F,R,IMT,2021-07-09_14h08.23.940,ImageRatingTask_S1,2021.1.4,MacIntel,59.94125757,,,,,,,,,,,6,42.3162,3,1.3714,8,6.2426,1,2.1134,5,1.1469,0,0,0,0,1,,,,,,,,,
,,,,,,,,,,,,,,,second,14,27,F,R,IMT,2021-07-09_14h08.23.940,ImageRatingTask_S1,2021.1.4,MacIntel,59.94125757,,,,,,,,,,,,,,,,,,,,,0,1,1,1,1,,,,,,,,,
,,,,,,,,,,,,,,,third,14,27,F,R,IMT,2021-07-09_14h08.23.940,ImageRatingTask_S1,2021.1.4,MacIntel,59.94125757,,,,,,,,,,,,,,,,,,,,,0,2,2,2,1,,,,,,,,,
,,,,,,,,,,,,,,,fourth,14,27,F,R,IMT,2021-07-09_14h08.23.940,ImageRatingTask_S1,2021.1.4,MacIntel,59.94125757,,,,,,,,,,,,,,,,,,,,,0,3,3,3,1,,,,,,,,,
,,,,,,,,,,,,,,,fifth,14,27,F,R,IMT,2021-07-09_14h08.23.940,ImageRatingTask_S1,2021.1.4,MacIntel,59.94125757,,,,,,,,,,,,,,,,,,,,,0,4,4,4,1,,,,,,,,,
,,,,,,,,,,,,,,,sixth,14,27,F,R,IMT,2021-07-09_14h08.23.940,ImageRatingTask_S1,2021.1.4,MacIntel,59.94125757,,,,,,,,,,,,,,,,,,,,,0,5,5,5,1,,,,,,,,,
,,,,,,,,,,,,,,,seventh,14,27,F,R,IMT,2021-07-09_14h08.23.940,ImageRatingTask_S1,2021.1.4,MacIntel,59.94125757,,,,,,,,,,,,,,,,,,,,,0,6,6,6,1,,,,,,,,,
,,,,,,,,,,,,,,,last,14,27,F,R,IMT,2021-07-09_14h08.23.940,ImageRatingTask_S1,2021.1.4,MacIntel,59.94125757,,,,,,,,,,,,,,,,,,,,,0,7,7,7,1,,,,,,,,,
,,,,,,,,,,,,,,,,14,27,F,R,IMT,2021-07-09_14h08.23.940,ImageRatingTask_S1,2021.1.4,MacIntel,59.94125757,,,,,,,,,,,,,,,,,,,,,,,,,,0,53,53,30,1,DreamStudyImages_rs1000x750g/Food/Objects_102_v.jpg,,,
,,,,,,,,,,,,,,,main,14,27,F,R,IMT,2021-07-09_14h08.23.940,ImageRatingTask_S1,2021.1.4,MacIntel,59.94125757,,,,,,,,,,,5,37.7622,1,1.5036,8,2.2475,1,1.8475,7,1.0744,0,0,0,0,1,,,,,,,,,
,,,,,,,,,,,,,,,second,14,27,F,R,IMT,2021-07-09_14h08.23.940,ImageRatingTask_S1,2021.1.4,MacIntel,59.94125757,,,,,,,,,,,,,,,,,,,,,0,1,1,1,1,,,,,,,,,
,,,,,,,,,,,,,,,third,14,27,F,R,IMT,2021-07-09_14h08.23.940,ImageRatingTask_S1,2021.1.4,MacIntel,59.94125757,,,,,,,,,,,,,,,,,,,,,0,2,2,2,1,,,,,,,,,
,,,,,,,,,,,,,,,fourth,14,27,F,R,IMT,2021-07-09_14h08.23.940,ImageRatingTask_S1,2021.1.4,MacIntel,59.94125757,,,,,,,,,,,,,,,,,,,,,0,3,3,3,1,,,,,,,,,
,,,,,,,,,,,,,,,fifth,14,27,F,R,IMT,2021-07-09_14h08.23.940,ImageRatingTask_S1,2021.1.4,MacIntel,59.94125757,,,,,,,,,,,,,,,,,,,,,0,4,4,4,1,,,,,,,,,
,,,,,,,,,,,,,,,sixth,14,27,F,R,IMT,2021-07-09_14h08.23.940,ImageRatingTask_S1,2021.1.4,MacIntel,59.94125757,,,,,,,,,,,,,,,,,,,,,0,5,5,5,1,,,,,,,,,
,,,,,,,,,,,,,,,seventh,14,27,F,R,IMT,2021-07-09_14h08.23.940,ImageRatingTask_S1,2021.1.4,MacIntel,59.94125757,,,,,,,,,,,,,,,,,,,,,0,6,6,6,1,,,,,,,,,
,,,,,,,,,,,,,,,last,14,27,F,R,IMT,2021-07-09_14h08.23.940,ImageRatingTask_S1,2021.1.4,MacIntel,59.94125757,,,,,,,,,,,,,,,,,,,,,0,7,7,7,1,,,,,,,,,
,,,,,,,,,,,,,,,,14,27,F,R,IMT,2021-07-09_14h08.23.940,ImageRatingTask_S1,2021.1.4,MacIntel,59.94125757,,,,,,,,,,,,,,,,,,,,,,,,,,0,54,54,101,1,DreamStudyImages_rs1000x750g/Vehicles/Objects_323_h.jpg,,,
,,,,,,,,,,,,,,,main,14,27,F,R,IMT,2021-07-09_14h08.23.940,ImageRatingTask_S1,2021.1.4,MacIntel,59.94125757,,,,,,,,,,,5,2.4864,1,0.7892,6,3.3122,1,3.5494,6,1.1215,0,0,0,0,1,,,,,,,,,
,,,,,,,,,,,,,,,second,14,27,F,R,IMT,2021-07-09_14h08.23.940,ImageRatingTask_S1,2021.1.4,MacIntel,59.94125757,,,,,,,,,,,,,,,,,,,,,0,1,1,1,1,,,,,,,,,
,,,,,,,,,,,,,,,third,14,27,F,R,IMT,2021-07-09_14h08.23.940,ImageRatingTask_S1,2021.1.4,MacIntel,59.94125757,,,,,,,,,,,,,,,,,,,,,0,2,2,2,1,,,,,,,,,
,,,,,,,,,,,,,,,fourth,14,27,F,R,IMT,2021-07-09_14h08.23.940,ImageRatingTask_S1,2021.1.4,MacIntel,59.94125757,,,,,,,,,,,,,,,,,,,,,0,3,3,3,1,,,,,,,,,
,,,,,,,,,,,,,,,fifth,14,27,F,R,IMT,2021-07-09_14h08.23.940,ImageRatingTask_S1,2021.1.4,MacIntel,59.94125757,,,,,,,,,,,,,,,,,,,,,0,4,4,4,1,,,,,,,,,
,,,,,,,,,,,,,,,sixth,14,27,F,R,IMT,2021-07-09_14h08.23.940,ImageRatingTask_S1,2021.1.4,MacIntel,59.94125757,,,,,,,,,,,,,,,,,,,,,0,5,5,5,1,,,,,,,,,
,,,,,,,,,,,,,,,seventh,14,27,F,R,IMT,2021-07-09_14h08.23.940,ImageRatingTask_S1,2021.1.4,MacIntel,59.94125757,,,,,,,,,,,,,,,,,,,,,0,6,6,6,1,,,,,,,,,
,,,,,,,,,,,,,,,last,14,27,F,R,IMT,2021-07-09_14h08.23.940,ImageRatingTask_S1,2021.1.4,MacIntel,59.94125757,,,,,,,,,,,,,,,,,,,,,0,7,7,7,1,,,,,,,,,
,,,,,,,,,,,,,,,,14,27,F,R,IMT,2021-07-09_14h08.23.940,ImageRatingTask_S1,2021.1.4,MacIntel,59.94125757,,,,,,,,,,,,,,,,,,,,,,,,,,0,55,55,98,1,DreamStudyImages_rs1000x750g/Houses/Landscapes_072_h.jpg,,,
,,,,,,,,,,,,,,,main,14,27,F,R,IMT,2021-07-09_14h08.23.940,ImageRatingTask_S1,2021.1.4,MacIntel,59.94125757,,,,,,,,,,,5,2.6023,1,1.9182,7,2.9349,1,2.1804,7,1.023,0,0,0,0,1,,,,,,,,,
,,,,,,,,,,,,,,,second,14,27,F,R,IMT,2021-07-09_14h08.23.940,ImageRatingTask_S1,2021.1.4,MacIntel,59.94125757,,,,,,,,,,,,,,,,,,,,,0,1,1,1,1,,,,,,,,,
,,,,,,,,,,,,,,,third,14,27,F,R,IMT,2021-07-09_14h08.23.940,ImageRatingTask_S1,2021.1.4,MacIntel,59.94125757,,,,,,,,,,,,,,,,,,,,,0,2,2,2,1,,,,,,,,,
,,,,,,,,,,,,,,,fourth,14,27,F,R,IMT,2021-07-09_14h08.23.940,ImageRatingTask_S1,2021.1.4,MacIntel,59.94125757,,,,,,,,,,,,,,,,,,,,,0,3,3,3,1,,,,,,,,,
,,,,,,,,,,,,,,,fifth,14,27,F,R,IMT,2021-07-09_14h08.23.940,ImageRatingTask_S1,2021.1.4,MacIntel,59.94125757,,,,,,,,,,,,,,,,,,,,,0,4,4,4,1,,,,,,,,,
,,,,,,,,,,,,,,,sixth,14,27,F,R,IMT,2021-07-09_14h08.23.940,ImageRatingTask_S1,2021.1.4,MacIntel,59.94125757,,,,,,,,,,,,,,,,,,,,,0,5,5,5,1,,,,,,,,,
,,,,,,,,,,,,,,,seventh,14,27,F,R,IMT,2021-07-09_14h08.23.940,ImageRatingTask_S1,2021.1.4,MacIntel,59.94125757,,,,,,,,,,,,,,,,,,,,,0,6,6,6,1,,,,,,,,,
,,,,,,,,,,,,,,,last,14,27,F,R,IMT,2021-07-09_14h08.23.940,ImageRatingTask_S1,2021.1.4,MacIntel,59.94125757,,,,,,,,,,,,,,,,,,,,,0,7,7,7,1,,,,,,,,,
,,,,,,,,,,,,,,,,14,27,F,R,IMT,2021-07-09_14h08.23.940,ImageRatingTask_S1,2021.1.4,MacIntel,59.94125757,,,,,,,,,,,,,,,,,,,,,,,,,,0,56,56,82,1,DreamStudyImages_rs1000x750g/Vehicles/trainseats.jpg,,,
,,,,,,,,,,,,,,,main,14,27,F,R,IMT,2021-07-09_14h08.23.940,ImageRatingTask_S1,2021.1.4,MacIntel,59.94125757,,,,,,,,,,,5,4.0116,1,2.4717,3,2.5455,1,1.526,6,1.1041,0,0,0,0,1,,,,,,,,,
,,,,,,,,,,,,,,,second,14,27,F,R,IMT,2021-07-09_14h08.23.940,ImageRatingTask_S1,2021.1.4,MacIntel,59.94125757,,,,,,,,,,,,,,,,,,,,,0,1,1,1,1,,,,,,,,,
,,,,,,,,,,,,,,,third,14,27,F,R,IMT,2021-07-09_14h08.23.940,ImageRatingTask_S1,2021.1.4,MacIntel,59.94125757,,,,,,,,,,,,,,,,,,,,,0,2,2,2,1,,,,,,,,,
,,,,,,,,,,,,,,,fourth,14,27,F,R,IMT,2021-07-09_14h08.23.940,ImageRatingTask_S1,2021.1.4,MacIntel,59.94125757,,,,,,,,,,,,,,,,,,,,,0,3,3,3,1,,,,,,,,,
,,,,,,,,,,,,,,,fifth,14,27,F,R,IMT,2021-07-09_14h08.23.940,ImageRatingTask_S1,2021.1.4,MacIntel,59.94125757,,,,,,,,,,,,,,,,,,,,,0,4,4,4,1,,,,,,,,,
,,,,,,,,,,,,,,,sixth,14,27,F,R,IMT,2021-07-09_14h08.23.940,ImageRatingTask_S1,2021.1.4,MacIntel,59.94125757,,,,,,,,,,,,,,,,,,,,,0,5,5,5,1,,,,,,,,,
,,,,,,,,,,,,,,,seventh,14,27,F,R,IMT,2021-07-09_14h08.23.940,ImageRatingTask_S1,2021.1.4,MacIntel,59.94125757,,,,,,,,,,,,,,,,,,,,,0,6,6,6,1,,,,,,,,,
,,,,,,,,,,,,,,,last,14,27,F,R,IMT,2021-07-09_14h08.23.940,ImageRatingTask_S1,2021.1.4,MacIntel,59.94125757,,,,,,,,,,,,,,,,,,,,,0,7,7,7,1,,,,,,,,,
,,,,,,,,,,,,,,,,14,27,F,R,IMT,2021-07-09_14h08.23.940,ImageRatingTask_S1,2021.1.4,MacIntel,59.94125757,,,,,,,,,,,,,,,,,,,,,,,,,,0,57,57,66,1,DreamStudyImages_rs1000x750g/Houses/Landscapes_090_h_CROPPED.jpg,,,
,,,,,,,,,,,,,,,main,14,27,F,R,IMT,2021-07-09_14h08.23.940,ImageRatingTask_S1,2021.1.4,MacIntel,59.94125757,,,,,,,,,,,6,6.0744,2,1.8921,6,2.0499,1,1.9539,3,1.1138,0,0,0,0,1,,,,,,,,,
,,,,,,,,,,,,,,,second,14,27,F,R,IMT,2021-07-09_14h08.23.940,ImageRatingTask_S1,2021.1.4,MacIntel,59.94125757,,,,,,,,,,,,,,,,,,,,,0,1,1,1,1,,,,,,,,,
,,,,,,,,,,,,,,,third,14,27,F,R,IMT,2021-07-09_14h08.23.940,ImageRatingTask_S1,2021.1.4,MacIntel,59.94125757,,,,,,,,,,,,,,,,,,,,,0,2,2,2,1,,,,,,,,,
,,,,,,,,,,,,,,,fourth,14,27,F,R,IMT,2021-07-09_14h08.23.940,ImageRatingTask_S1,2021.1.4,MacIntel,59.94125757,,,,,,,,,,,,,,,,,,,,,0,3,3,3,1,,,,,,,,,
,,,,,,,,,,,,,,,fifth,14,27,F,R,IMT,2021-07-09_14h08.23.940,ImageRatingTask_S1,2021.1.4,MacIntel,59.94125757,,,,,,,,,,,,,,,,,,,,,0,4,4,4,1,,,,,,,,,
,,,,,,,,,,,,,,,sixth,14,27,F,R,IMT,2021-07-09_14h08.23.940,ImageRatingTask_S1,2021.1.4,MacIntel,59.94125757,,,,,,,,,,,,,,,,,,,,,0,5,5,5,1,,,,,,,,,
,,,,,,,,,,,,,,,seventh,14,27,F,R,IMT,2021-07-09_14h08.23.940,ImageRatingTask_S1,2021.1.4,MacIntel,59.94125757,,,,,,,,,,,,,,,,,,,,,0,6,6,6,1,,,,,,,,,
,,,,,,,,,,,,,,,last,14,27,F,R,IMT,2021-07-09_14h08.23.940,ImageRatingTask_S1,2021.1.4,MacIntel,59.94125757,,,,,,,,,,,,,,,,,,,,,0,7,7,7,1,,,,,,,,,
,,,,,,,,,,,,,,,,14,27,F,R,IMT,2021-07-09_14h08.23.940,ImageRatingTask_S1,2021.1.4,MacIntel,59.94125757,,,,,,,,,,,,,,,,,,,,,,,,,,0,58,58,78,1,DreamStudyImages_rs1000x750g/Mammals/Animals_199_h.jpg,,,
,,,,,,,,,,,,,,,main,14,27,F,R,IMT,2021-07-09_14h08.23.940,ImageRatingTask_S1,2021.1.4,MacIntel,59.94125757,,,,,,,,,,,5,6.8261,2,10.3409,3,2.0845,1,1.2968,2,0.9497,0,0,0,0,1,,,,,,,,,
,,,,,,,,,,,,,,,second,14,27,F,R,IMT,2021-07-09_14h08.23.940,ImageRatingTask_S1,2021.1.4,MacIntel,59.94125757,,,,,,,,,,,,,,,,,,,,,0,1,1,1,1,,,,,,,,,
,,,,,,,,,,,,,,,third,14,27,F,R,IMT,2021-07-09_14h08.23.940,ImageRatingTask_S1,2021.1.4,MacIntel,59.94125757,,,,,,,,,,,,,,,,,,,,,0,2,2,2,1,,,,,,,,,
,,,,,,,,,,,,,,,fourth,14,27,F,R,IMT,2021-07-09_14h08.23.940,ImageRatingTask_S1,2021.1.4,MacIntel,59.94125757,,,,,,,,,,,,,,,,,,,,,0,3,3,3,1,,,,,,,,,
,,,,,,,,,,,,,,,fifth,14,27,F,R,IMT,2021-07-09_14h08.23.940,ImageRatingTask_S1,2021.1.4,MacIntel,59.94125757,,,,,,,,,,,,,,,,,,,,,0,4,4,4,1,,,,,,,,,
,,,,,,,,,,,,,,,sixth,14,27,F,R,IMT,2021-07-09_14h08.23.940,ImageRatingTask_S1,2021.1.4,MacIntel,59.94125757,,,,,,,,,,,,,,,,,,,,,0,5,5,5,1,,,,,,,,,
,,,,,,,,,,,,,,,seventh,14,27,F,R,IMT,2021-07-09_14h08.23.940,ImageRatingTask_S1,2021.1.4,MacIntel,59.94125757,,,,,,,,,,,,,,,,,,,,,0,6,6,6,1,,,,,,,,,
,,,,,,,,,,,,,,,last,14,27,F,R,IMT,2021-07-09_14h08.23.940,ImageRatingTask_S1,2021.1.4,MacIntel,59.94125757,,,,,,,,,,,,,,,,,,,,,0,7,7,7,1,,,,,,,,,
,,,,,,,,,,,,,,,,14,27,F,R,IMT,2021-07-09_14h08.23.940,ImageRatingTask_S1,2021.1.4,MacIntel,59.94125757,,,,,,,,,,,,,,,,,,,,,,,,,,0,59,59,15,1,DreamStudyImages_rs1000x750g/Children/IAPS2345_children11.jpg,,,
,,,,,,,,,,,,,,,main,14,27,F,R,IMT,2021-07-09_14h08.23.940,ImageRatingTask_S1,2021.1.4,MacIntel,59.94125757,,,,,,,,,,,2,5.0169,4,1.5919,6,2.3156,1,6.5243,5,0.9464,0,0,0,0,1,,,,,,,,,
,,,,,,,,,,,,,,,second,14,27,F,R,IMT,2021-07-09_14h08.23.940,ImageRatingTask_S1,2021.1.4,MacIntel,59.94125757,,,,,,,,,,,,,,,,,,,,,0,1,1,1,1,,,,,,,,,
,,,,,,,,,,,,,,,third,14,27,F,R,IMT,2021-07-09_14h08.23.940,ImageRatingTask_S1,2021.1.4,MacIntel,59.94125757,,,,,,,,,,,,,,,,,,,,,0,2,2,2,1,,,,,,,,,
,,,,,,,,,,,,,,,fourth,14,27,F,R,IMT,2021-07-09_14h08.23.940,ImageRatingTask_S1,2021.1.4,MacIntel,59.94125757,,,,,,,,,,,,,,,,,,,,,0,3,3,3,1,,,,,,,,,
,,,,,,,,,,,,,,,fifth,14,27,F,R,IMT,2021-07-09_14h08.23.940,ImageRatingTask_S1,2021.1.4,MacIntel,59.94125757,,,,,,,,,,,,,,,,,,,,,0,4,4,4,1,,,,,,,,,
,,,,,,,,,,,,,,,sixth,14,27,F,R,IMT,2021-07-09_14h08.23.940,ImageRatingTask_S1,2021.1.4,MacIntel,59.94125757,,,,,,,,,,,,,,,,,,,,,0,5,5,5,1,,,,,,,,,
,,,,,,,,,,,,,,,seventh,14,27,F,R,IMT,2021-07-09_14h08.23.940,ImageRatingTask_S1,2021.1.4,MacIntel,59.94125757,,,,,,,,,,,,,,,,,,,,,0,6,6,6,1,,,,,,,,,
,,,,,,,,,,,,,,,last,14,27,F,R,IMT,2021-07-09_14h08.23.940,ImageRatingTask_S1,2021.1.4,MacIntel,59.94125757,,,,,,,,,,,,,,,,,,,,,0,7,7,7,1,,,,,,,,,
,,,,,,,,,,,,,,,,14,27,F,R,IMT,2021-07-09_14h08.23.940,ImageRatingTask_S1,2021.1.4,MacIntel,59.94125757,,,,,,,,,,,,,,,,,,,,,,,,,,0,60,60,48,1,DreamStudyImages_rs1000x750g/Food/Objects_011_h.jpg,,,
,,,,,,,,,,,,,,,main,14,27,F,R,IMT,2021-07-09_14h08.23.940,ImageRatingTask_S1,2021.1.4,MacIntel,59.94125757,,,,,,,,,,,4,7.3321,3,1.9405,4,2.1157,1,1.3884,5,0.9801,0,0,0,0,1,,,,,,,,,
,,,,,,,,,,,,,,,second,14,27,F,R,IMT,2021-07-09_14h08.23.940,ImageRatingTask_S1,2021.1.4,MacIntel,59.94125757,,,,,,,,,,,,,,,,,,,,,0,1,1,1,1,,,,,,,,,
,,,,,,,,,,,,,,,third,14,27,F,R,IMT,2021-07-09_14h08.23.940,ImageRatingTask_S1,2021.1.4,MacIntel,59.94125757,,,,,,,,,,,,,,,,,,,,,0,2,2,2,1,,,,,,,,,
,,,,,,,,,,,,,,,fourth,14,27,F,R,IMT,2021-07-09_14h08.23.940,ImageRatingTask_S1,2021.1.4,MacIntel,59.94125757,,,,,,,,,,,,,,,,,,,,,0,3,3,3,1,,,,,,,,,
,,,,,,,,,,,,,,,fifth,14,27,F,R,IMT,2021-07-09_14h08.23.940,ImageRatingTask_S1,2021.1.4,MacIntel,59.94125757,,,,,,,,,,,,,,,,,,,,,0,4,4,4,1,,,,,,,,,
,,,,,,,,,,,,,,,sixth,14,27,F,R,IMT,2021-07-09_14h08.23.940,ImageRatingTask_S1,2021.1.4,MacIntel,59.94125757,,,,,,,,,,,,,,,,,,,,,0,5,5,5,1,,,,,,,,,
,,,,,,,,,,,,,,,seventh,14,27,F,R,IMT,2021-07-09_14h08.23.940,ImageRatingTask_S1,2021.1.4,MacIntel,59.94125757,,,,,,,,,,,,,,,,,,,,,0,6,6,6,1,,,,,,,,,
,,,,,,,,,,,,,,,last,14,27,F,R,IMT,2021-07-09_14h08.23.940,ImageRatingTask_S1,2021.1.4,MacIntel,59.94125757,,,,,,,,,,,,,,,,,,,,,0,7,7,7,1,,,,,,,,,
,,,,,,,,,,,,,,,,14,27,F,R,IMT,2021-07-09_14h08.23.940,ImageRatingTask_S1,2021.1.4,MacIntel,59.94125757,,,,,,,,,,,,,,,,,,,,,,,,,,0,61,61,97,1,DreamStudyImages_rs1000x750g/Food/Objects_042_h.jpg,,,
,,,,,,,,,,,,,,,main,14,27,F,R,IMT,2021-07-09_14h08.23.940,ImageRatingTask_S1,2021.1.4,MacIntel,59.94125757,,,,,,,,,,,6,3.0019,2,1.6184,7,1.8774,1,2.5775,6,1.0085,0,0,0,0,1,,,,,,,,,
,,,,,,,,,,,,,,,second,14,27,F,R,IMT,2021-07-09_14h08.23.940,ImageRatingTask_S1,2021.1.4,MacIntel,59.94125757,,,,,,,,,,,,,,,,,,,,,0,1,1,1,1,,,,,,,,,
,,,,,,,,,,,,,,,third,14,27,F,R,IMT,2021-07-09_14h08.23.940,ImageRatingTask_S1,2021.1.4,MacIntel,59.94125757,,,,,,,,,,,,,,,,,,,,,0,2,2,2,1,,,,,,,,,
,,,,,,,,,,,,,,,fourth,14,27,F,R,IMT,2021-07-09_14h08.23.940,ImageRatingTask_S1,2021.1.4,MacIntel,59.94125757,,,,,,,,,,,,,,,,,,,,,0,3,3,3,1,,,,,,,,,
,,,,,,,,,,,,,,,fifth,14,27,F,R,IMT,2021-07-09_14h08.23.940,ImageRatingTask_S1,2021.1.4,MacIntel,59.94125757,,,,,,,,,,,,,,,,,,,,,0,4,4,4,1,,,,,,,,,
,,,,,,,,,,,,,,,sixth,14,27,F,R,IMT,2021-07-09_14h08.23.940,ImageRatingTask_S1,2021.1.4,MacIntel,59.94125757,,,,,,,,,,,,,,,,,,,,,0,5,5,5,1,,,,,,,,,
,,,,,,,,,,,,,,,seventh,14,27,F,R,IMT,2021-07-09_14h08.23.940,ImageRatingTask_S1,2021.1.4,MacIntel,59.94125757,,,,,,,,,,,,,,,,,,,,,0,6,6,6,1,,,,,,,,,
,,,,,,,,,,,,,,,last,14,27,F,R,IMT,2021-07-09_14h08.23.940,ImageRatingTask_S1,2021.1.4,MacIntel,59.94125757,,,,,,,,,,,,,,,,,,,,,0,7,7,7,1,,,,,,,,,
,,,,,,,,,,,,,,,,14,27,F,R,IMT,2021-07-09_14h08.23.940,ImageRatingTask_S1,2021.1.4,MacIntel,59.94125757,,,,,,,,,,,,,,,,,,,,,,,,,,0,62,62,130,1,DreamStudyImages_rs1000x750g/Houses/Landscapes_045_h.jpg,,,
,,,,,,,,,,,,,,,main,14,27,F,R,IMT,2021-07-09_14h08.23.940,ImageRatingTask_S1,2021.1.4,MacIntel,59.94125757,,,,,,,,,,,6,65.264,3,3.393,6,3.5475,1,3.9806,8,1.0533,0,0,0,0,1,,,,,,,,,
,,,,,,,,,,,,,,,second,14,27,F,R,IMT,2021-07-09_14h08.23.940,ImageRatingTask_S1,2021.1.4,MacIntel,59.94125757,,,,,,,,,,,,,,,,,,,,,0,1,1,1,1,,,,,,,,,
,,,,,,,,,,,,,,,third,14,27,F,R,IMT,2021-07-09_14h08.23.940,ImageRatingTask_S1,2021.1.4,MacIntel,59.94125757,,,,,,,,,,,,,,,,,,,,,0,2,2,2,1,,,,,,,,,
,,,,,,,,,,,,,,,fourth,14,27,F,R,IMT,2021-07-09_14h08.23.940,ImageRatingTask_S1,2021.1.4,MacIntel,59.94125757,,,,,,,,,,,,,,,,,,,,,0,3,3,3,1,,,,,,,,,
,,,,,,,,,,,,,,,fifth,14,27,F,R,IMT,2021-07-09_14h08.23.940,ImageRatingTask_S1,2021.1.4,MacIntel,59.94125757,,,,,,,,,,,,,,,,,,,,,0,4,4,4,1,,,,,,,,,
,,,,,,,,,,,,,,,sixth,14,27,F,R,IMT,2021-07-09_14h08.23.940,ImageRatingTask_S1,2021.1.4,MacIntel,59.94125757,,,,,,,,,,,,,,,,,,,,,0,5,5,5,1,,,,,,,,,
,,,,,,,,,,,,,,,seventh,14,27,F,R,IMT,2021-07-09_14h08.23.940,ImageRatingTask_S1,2021.1.4,MacIntel,59.94125757,,,,,,,,,,,,,,,,,,,,,0,6,6,6,1,,,,,,,,,
,,,,,,,,,,,,,,,last,14,27,F,R,IMT,2021-07-09_14h08.23.940,ImageRatingTask_S1,2021.1.4,MacIntel,59.94125757,,,,,,,,,,,,,,,,,,,,,0,7,7,7,1,,,,,,,,,
,,,,,,,,,,,,,,,,14,27,F,R,IMT,2021-07-09_14h08.23.940,ImageRatingTask_S1,2021.1.4,MacIntel,59.94125757,,,,,,,,,,,,,,,,,,,,,,,,,,0,63,63,44,1,DreamStudyImages_rs1000x750g/Water/Lake 12.jpg,,,
