slider_pre.response,slider_pre.rt,key_val.keys,key_val.rt,key_aro.keys,key_aro.rt,key_qual.keys,key_qual.rt,key_ncat.keys,key_ncat.rt,key_cats.keys,key_cats.rt,ncat_order.thisRepN,ncat_order.thisTrialN,ncat_order.thisN,ncat_order.thisIndex,ncat_order.ran,cond_cat,participant,age,gender,handedness (L/R),site (IMT/Donders),date,expName,psychopyVersion,OS,frameRate,img_trials.thisRepN,img_trials.thisTrialN,img_trials.thisN,img_trials.thisIndex,img_trials.ran,filename,slider_post.response,slider_post.rt,textbox_openfb.text
7,5.653,5,4.902,2,0.843,9,2.571,1,1.211,7,0.801,0,0,0,0,1,main,1,22,female,mixed,at home,2021-07-02_08h35.44.015,ImageRatingTask_S4,2021.1.4,MacIntel,58.82352941,,,,,,,,,
,,,,,,,,,,,,0,1,1,1,1,second,1,22,female,mixed,at home,2021-07-02_08h35.44.015,ImageRatingTask_S4,2021.1.4,MacIntel,58.82352941,,,,,,,,,
,,,,,,,,,,,,0,2,2,2,1,third,1,22,female,mixed,at home,2021-07-02_08h35.44.015,ImageRatingTask_S4,2021.1.4,MacIntel,58.82352941,,,,,,,,,
,,,,,,,,,,,,0,3,3,3,1,fourth,1,22,female,mixed,at home,2021-07-02_08h35.44.015,ImageRatingTask_S4,2021.1.4,MacIntel,58.82352941,,,,,,,,,
,,,,,,,,,,,,0,4,4,4,1,fifth,1,22,female,mixed,at home,2021-07-02_08h35.44.015,ImageRatingTask_S4,2021.1.4,MacIntel,58.82352941,,,,,,,,,
,,,,,,,,,,,,0,5,5,5,1,sixth,1,22,female,mixed,at home,2021-07-02_08h35.44.015,ImageRatingTask_S4,2021.1.4,MacIntel,58.82352941,,,,,,,,,
,,,,,,,,,,,,0,6,6,6,1,seventh,1,22,female,mixed,at home,2021-07-02_08h35.44.015,ImageRatingTask_S4,2021.1.4,MacIntel,58.82352941,,,,,,,,,
,,,,,,,,,,,,0,7,7,7,1,last,1,22,female,mixed,at home,2021-07-02_08h35.44.015,ImageRatingTask_S4,2021.1.4,MacIntel,58.82352941,,,,,,,,,
,,,,,,,,,,,,,,,,,,1,22,female,mixed,at home,2021-07-02_08h35.44.015,ImageRatingTask_S4,2021.1.4,MacIntel,58.82352941,0,0,0,12,1,DreamStudyImages_rs1000x750g/Vehicles/parkedhelicopter.jpg,,,
,,5,3.438,1,0.841,8,3.401,1,1.119,6,1.801,0,0,0,0,1,main,1,22,female,mixed,at home,2021-07-02_08h35.44.015,ImageRatingTask_S4,2021.1.4,MacIntel,58.82352941,,,,,,,,,
,,,,,,,,,,,,0,1,1,1,1,second,1,22,female,mixed,at home,2021-07-02_08h35.44.015,ImageRatingTask_S4,2021.1.4,MacIntel,58.82352941,,,,,,,,,
,,,,,,,,,,,,0,2,2,2,1,third,1,22,female,mixed,at home,2021-07-02_08h35.44.015,ImageRatingTask_S4,2021.1.4,MacIntel,58.82352941,,,,,,,,,
,,,,,,,,,,,,0,3,3,3,1,fourth,1,22,female,mixed,at home,2021-07-02_08h35.44.015,ImageRatingTask_S4,2021.1.4,MacIntel,58.82352941,,,,,,,,,
,,,,,,,,,,,,0,4,4,4,1,fifth,1,22,female,mixed,at home,2021-07-02_08h35.44.015,ImageRatingTask_S4,2021.1.4,MacIntel,58.82352941,,,,,,,,,
,,,,,,,,,,,,0,5,5,5,1,sixth,1,22,female,mixed,at home,2021-07-02_08h35.44.015,ImageRatingTask_S4,2021.1.4,MacIntel,58.82352941,,,,,,,,,
,,,,,,,,,,,,0,6,6,6,1,seventh,1,22,female,mixed,at home,2021-07-02_08h35.44.015,ImageRatingTask_S4,2021.1.4,MacIntel,58.82352941,,,,,,,,,
,,,,,,,,,,,,0,7,7,7,1,last,1,22,female,mixed,at home,2021-07-02_08h35.44.015,ImageRatingTask_S4,2021.1.4,MacIntel,58.82352941,,,,,,,,,
,,,,,,,,,,,,,,,,,,1,22,female,mixed,at home,2021-07-02_08h35.44.015,ImageRatingTask_S4,2021.1.4,MacIntel,58.82352941,0,1,1,96,1,DreamStudyImages_rs1000x750g/Houses/NDPS18_houses2_CROPPED.jpg,,,
,,5,2.353,1,1.166,7,2.687,1,1.012,8,1.297,0,0,0,0,1,main,1,22,female,mixed,at home,2021-07-02_08h35.44.015,ImageRatingTask_S4,2021.1.4,MacIntel,58.82352941,,,,,,,,,
,,,,,,,,,,,,0,1,1,1,1,second,1,22,female,mixed,at home,2021-07-02_08h35.44.015,ImageRatingTask_S4,2021.1.4,MacIntel,58.82352941,,,,,,,,,
,,,,,,,,,,,,0,2,2,2,1,third,1,22,female,mixed,at home,2021-07-02_08h35.44.015,ImageRatingTask_S4,2021.1.4,MacIntel,58.82352941,,,,,,,,,
,,,,,,,,,,,,0,3,3,3,1,fourth,1,22,female,mixed,at home,2021-07-02_08h35.44.015,ImageRatingTask_S4,2021.1.4,MacIntel,58.82352941,,,,,,,,,
,,,,,,,,,,,,0,4,4,4,1,fifth,1,22,female,mixed,at home,2021-07-02_08h35.44.015,ImageRatingTask_S4,2021.1.4,MacIntel,58.82352941,,,,,,,,,
,,,,,,,,,,,,0,5,5,5,1,sixth,1,22,female,mixed,at home,2021-07-02_08h35.44.015,ImageRatingTask_S4,2021.1.4,MacIntel,58.82352941,,,,,,,,,
,,,,,,,,,,,,0,6,6,6,1,seventh,1,22,female,mixed,at home,2021-07-02_08h35.44.015,ImageRatingTask_S4,2021.1.4,MacIntel,58.82352941,,,,,,,,,
,,,,,,,,,,,,0,7,7,7,1,last,1,22,female,mixed,at home,2021-07-02_08h35.44.015,ImageRatingTask_S4,2021.1.4,MacIntel,58.82352941,,,,,,,,,
,,,,,,,,,,,,,,,,,,1,22,female,mixed,at home,2021-07-02_08h35.44.015,ImageRatingTask_S4,2021.1.4,MacIntel,58.82352941,0,2,2,97,1,DreamStudyImages_rs1000x750g/Water/Landscapes_101_v.jpg,,,
,,4,2.686,1,2.08,8,1.929,1,0.851,5,1.008,0,0,0,0,1,main,1,22,female,mixed,at home,2021-07-02_08h35.44.015,ImageRatingTask_S4,2021.1.4,MacIntel,58.82352941,,,,,,,,,
,,,,,,,,,,,,0,1,1,1,1,second,1,22,female,mixed,at home,2021-07-02_08h35.44.015,ImageRatingTask_S4,2021.1.4,MacIntel,58.82352941,,,,,,,,,
,,,,,,,,,,,,0,2,2,2,1,third,1,22,female,mixed,at home,2021-07-02_08h35.44.015,ImageRatingTask_S4,2021.1.4,MacIntel,58.82352941,,,,,,,,,
,,,,,,,,,,,,0,3,3,3,1,fourth,1,22,female,mixed,at home,2021-07-02_08h35.44.015,ImageRatingTask_S4,2021.1.4,MacIntel,58.82352941,,,,,,,,,
,,,,,,,,,,,,0,4,4,4,1,fifth,1,22,female,mixed,at home,2021-07-02_08h35.44.015,ImageRatingTask_S4,2021.1.4,MacIntel,58.82352941,,,,,,,,,
,,,,,,,,,,,,0,5,5,5,1,sixth,1,22,female,mixed,at home,2021-07-02_08h35.44.015,ImageRatingTask_S4,2021.1.4,MacIntel,58.82352941,,,,,,,,,
,,,,,,,,,,,,0,6,6,6,1,seventh,1,22,female,mixed,at home,2021-07-02_08h35.44.015,ImageRatingTask_S4,2021.1.4,MacIntel,58.82352941,,,,,,,,,
,,,,,,,,,,,,0,7,7,7,1,last,1,22,female,mixed,at home,2021-07-02_08h35.44.015,ImageRatingTask_S4,2021.1.4,MacIntel,58.82352941,,,,,,,,,
,,,,,,,,,,,,,,,,,,1,22,female,mixed,at home,2021-07-02_08h35.44.015,ImageRatingTask_S4,2021.1.4,MacIntel,58.82352941,0,3,3,78,1,DreamStudyImages_rs1000x750g/Food/Objects_071_h.jpg,,,
,,3,3.512,6,5.479,7,2.038,1,1.308,7,0.843,0,0,0,0,1,main,1,22,female,mixed,at home,2021-07-02_08h35.44.015,ImageRatingTask_S4,2021.1.4,MacIntel,58.82352941,,,,,,,,,
,,,,,,,,,,,,0,1,1,1,1,second,1,22,female,mixed,at home,2021-07-02_08h35.44.015,ImageRatingTask_S4,2021.1.4,MacIntel,58.82352941,,,,,,,,,
,,,,,,,,,,,,0,2,2,2,1,third,1,22,female,mixed,at home,2021-07-02_08h35.44.015,ImageRatingTask_S4,2021.1.4,MacIntel,58.82352941,,,,,,,,,
,,,,,,,,,,,,0,3,3,3,1,fourth,1,22,female,mixed,at home,2021-07-02_08h35.44.015,ImageRatingTask_S4,2021.1.4,MacIntel,58.82352941,,,,,,,,,
,,,,,,,,,,,,0,4,4,4,1,fifth,1,22,female,mixed,at home,2021-07-02_08h35.44.015,ImageRatingTask_S4,2021.1.4,MacIntel,58.82352941,,,,,,,,,
,,,,,,,,,,,,0,5,5,5,1,sixth,1,22,female,mixed,at home,2021-07-02_08h35.44.015,ImageRatingTask_S4,2021.1.4,MacIntel,58.82352941,,,,,,,,,
,,,,,,,,,,,,0,6,6,6,1,seventh,1,22,female,mixed,at home,2021-07-02_08h35.44.015,ImageRatingTask_S4,2021.1.4,MacIntel,58.82352941,,,,,,,,,
,,,,,,,,,,,,0,7,7,7,1,last,1,22,female,mixed,at home,2021-07-02_08h35.44.015,ImageRatingTask_S4,2021.1.4,MacIntel,58.82352941,,,,,,,,,
,,,,,,,,,,,,,,,,,,1,22,female,mixed,at home,2021-07-02_08h35.44.015,ImageRatingTask_S4,2021.1.4,MacIntel,58.82352941,0,4,4,32,1,DreamStudyImages_rs1000x750g/Vehicles/Fire 7.jpg,,,
,,6,2.437,2,1.031,9,1.167,1,0.901,3,0.993,0,0,0,0,1,main,1,22,female,mixed,at home,2021-07-02_08h35.44.015,ImageRatingTask_S4,2021.1.4,MacIntel,58.82352941,,,,,,,,,
,,,,,,,,,,,,0,1,1,1,1,second,1,22,female,mixed,at home,2021-07-02_08h35.44.015,ImageRatingTask_S4,2021.1.4,MacIntel,58.82352941,,,,,,,,,
,,,,,,,,,,,,0,2,2,2,1,third,1,22,female,mixed,at home,2021-07-02_08h35.44.015,ImageRatingTask_S4,2021.1.4,MacIntel,58.82352941,,,,,,,,,
,,,,,,,,,,,,0,3,3,3,1,fourth,1,22,female,mixed,at home,2021-07-02_08h35.44.015,ImageRatingTask_S4,2021.1.4,MacIntel,58.82352941,,,,,,,,,
,,,,,,,,,,,,0,4,4,4,1,fifth,1,22,female,mixed,at home,2021-07-02_08h35.44.015,ImageRatingTask_S4,2021.1.4,MacIntel,58.82352941,,,,,,,,,
,,,,,,,,,,,,0,5,5,5,1,sixth,1,22,female,mixed,at home,2021-07-02_08h35.44.015,ImageRatingTask_S4,2021.1.4,MacIntel,58.82352941,,,,,,,,,
,,,,,,,,,,,,0,6,6,6,1,seventh,1,22,female,mixed,at home,2021-07-02_08h35.44.015,ImageRatingTask_S4,2021.1.4,MacIntel,58.82352941,,,,,,,,,
,,,,,,,,,,,,0,7,7,7,1,last,1,22,female,mixed,at home,2021-07-02_08h35.44.015,ImageRatingTask_S4,2021.1.4,MacIntel,58.82352941,,,,,,,,,
,,,,,,,,,,,,,,,,,,1,22,female,mixed,at home,2021-07-02_08h35.44.015,ImageRatingTask_S4,2021.1.4,MacIntel,58.82352941,0,5,5,125,1,DreamStudyImages_rs1000x750g/Mammals/Animals_175_h.jpg,,,
,,6,3.073,1,1.08,7,1.787,1,2.15,5,1.388,0,0,0,0,1,main,1,22,female,mixed,at home,2021-07-02_08h35.44.015,ImageRatingTask_S4,2021.1.4,MacIntel,58.82352941,,,,,,,,,
,,,,,,,,,,,,0,1,1,1,1,second,1,22,female,mixed,at home,2021-07-02_08h35.44.015,ImageRatingTask_S4,2021.1.4,MacIntel,58.82352941,,,,,,,,,
,,,,,,,,,,,,0,2,2,2,1,third,1,22,female,mixed,at home,2021-07-02_08h35.44.015,ImageRatingTask_S4,2021.1.4,MacIntel,58.82352941,,,,,,,,,
,,,,,,,,,,,,0,3,3,3,1,fourth,1,22,female,mixed,at home,2021-07-02_08h35.44.015,ImageRatingTask_S4,2021.1.4,MacIntel,58.82352941,,,,,,,,,
,,,,,,,,,,,,0,4,4,4,1,fifth,1,22,female,mixed,at home,2021-07-02_08h35.44.015,ImageRatingTask_S4,2021.1.4,MacIntel,58.82352941,,,,,,,,,
,,,,,,,,,,,,0,5,5,5,1,sixth,1,22,female,mixed,at home,2021-07-02_08h35.44.015,ImageRatingTask_S4,2021.1.4,MacIntel,58.82352941,,,,,,,,,
,,,,,,,,,,,,0,6,6,6,1,seventh,1,22,female,mixed,at home,2021-07-02_08h35.44.015,ImageRatingTask_S4,2021.1.4,MacIntel,58.82352941,,,,,,,,,
,,,,,,,,,,,,0,7,7,7,1,last,1,22,female,mixed,at home,2021-07-02_08h35.44.015,ImageRatingTask_S4,2021.1.4,MacIntel,58.82352941,,,,,,,,,
,,,,,,,,,,,,,,,,,,1,22,female,mixed,at home,2021-07-02_08h35.44.015,ImageRatingTask_S4,2021.1.4,MacIntel,58.82352941,0,6,6,74,1,DreamStudyImages_rs1000x750g/Food/Objects_082_h.jpg,,,
,,3,2.603,4,1.716,7,1.452,1,2.118,6,5.621,0,0,0,0,1,main,1,22,female,mixed,at home,2021-07-02_08h35.44.015,ImageRatingTask_S4,2021.1.4,MacIntel,58.82352941,,,,,,,,,
,,,,,,,,,,,,0,1,1,1,1,second,1,22,female,mixed,at home,2021-07-02_08h35.44.015,ImageRatingTask_S4,2021.1.4,MacIntel,58.82352941,,,,,,,,,
,,,,,,,,,,,,0,2,2,2,1,third,1,22,female,mixed,at home,2021-07-02_08h35.44.015,ImageRatingTask_S4,2021.1.4,MacIntel,58.82352941,,,,,,,,,
,,,,,,,,,,,,0,3,3,3,1,fourth,1,22,female,mixed,at home,2021-07-02_08h35.44.015,ImageRatingTask_S4,2021.1.4,MacIntel,58.82352941,,,,,,,,,
,,,,,,,,,,,,0,4,4,4,1,fifth,1,22,female,mixed,at home,2021-07-02_08h35.44.015,ImageRatingTask_S4,2021.1.4,MacIntel,58.82352941,,,,,,,,,
,,,,,,,,,,,,0,5,5,5,1,sixth,1,22,female,mixed,at home,2021-07-02_08h35.44.015,ImageRatingTask_S4,2021.1.4,MacIntel,58.82352941,,,,,,,,,
,,,,,,,,,,,,0,6,6,6,1,seventh,1,22,female,mixed,at home,2021-07-02_08h35.44.015,ImageRatingTask_S4,2021.1.4,MacIntel,58.82352941,,,,,,,,,
,,,,,,,,,,,,0,7,7,7,1,last,1,22,female,mixed,at home,2021-07-02_08h35.44.015,ImageRatingTask_S4,2021.1.4,MacIntel,58.82352941,,,,,,,,,
,,,,,,,,,,,,,,,,,,1,22,female,mixed,at home,2021-07-02_08h35.44.015,ImageRatingTask_S4,2021.1.4,MacIntel,58.82352941,0,7,7,156,1,DreamStudyImages_rs1000x750g/Houses/NDPS95_cityskyline.jpg,,,
,,4,4.617,2,4.434,5,2.818,2,1.902,1,2.455,0,0,0,0,1,main,1,22,female,mixed,at home,2021-07-02_08h35.44.015,ImageRatingTask_S4,2021.1.4,MacIntel,58.82352941,,,,,,,,,
,,,,,,,,,,2,0.401,0,1,1,1,1,second,1,22,female,mixed,at home,2021-07-02_08h35.44.015,ImageRatingTask_S4,2021.1.4,MacIntel,58.82352941,,,,,,,,,
,,,,,,,,,,,,0,2,2,2,1,third,1,22,female,mixed,at home,2021-07-02_08h35.44.015,ImageRatingTask_S4,2021.1.4,MacIntel,58.82352941,,,,,,,,,
,,,,,,,,,,,,0,3,3,3,1,fourth,1,22,female,mixed,at home,2021-07-02_08h35.44.015,ImageRatingTask_S4,2021.1.4,MacIntel,58.82352941,,,,,,,,,
,,,,,,,,,,,,0,4,4,4,1,fifth,1,22,female,mixed,at home,2021-07-02_08h35.44.015,ImageRatingTask_S4,2021.1.4,MacIntel,58.82352941,,,,,,,,,
,,,,,,,,,,,,0,5,5,5,1,sixth,1,22,female,mixed,at home,2021-07-02_08h35.44.015,ImageRatingTask_S4,2021.1.4,MacIntel,58.82352941,,,,,,,,,
,,,,,,,,,,,,0,6,6,6,1,seventh,1,22,female,mixed,at home,2021-07-02_08h35.44.015,ImageRatingTask_S4,2021.1.4,MacIntel,58.82352941,,,,,,,,,
,,,,,,,,,,,,0,7,7,7,1,last,1,22,female,mixed,at home,2021-07-02_08h35.44.015,ImageRatingTask_S4,2021.1.4,MacIntel,58.82352941,,,,,,,,,
,,,,,,,,,,,,,,,,,,1,22,female,mixed,at home,2021-07-02_08h35.44.015,ImageRatingTask_S4,2021.1.4,MacIntel,58.82352941,0,8,8,33,1,DreamStudyImages_rs1000x750g/Children/IAPS2278_children6.jpg,,,
,,4,3.153,1,1.219,6,2.314,1,0.911,6,1.05,0,0,0,0,1,main,1,22,female,mixed,at home,2021-07-02_08h35.44.015,ImageRatingTask_S4,2021.1.4,MacIntel,58.82352941,,,,,,,,,
,,,,,,,,,,,,0,1,1,1,1,second,1,22,female,mixed,at home,2021-07-02_08h35.44.015,ImageRatingTask_S4,2021.1.4,MacIntel,58.82352941,,,,,,,,,
,,,,,,,,,,,,0,2,2,2,1,third,1,22,female,mixed,at home,2021-07-02_08h35.44.015,ImageRatingTask_S4,2021.1.4,MacIntel,58.82352941,,,,,,,,,
,,,,,,,,,,,,0,3,3,3,1,fourth,1,22,female,mixed,at home,2021-07-02_08h35.44.015,ImageRatingTask_S4,2021.1.4,MacIntel,58.82352941,,,,,,,,,
,,,,,,,,,,,,0,4,4,4,1,fifth,1,22,female,mixed,at home,2021-07-02_08h35.44.015,ImageRatingTask_S4,2021.1.4,MacIntel,58.82352941,,,,,,,,,
,,,,,,,,,,,,0,5,5,5,1,sixth,1,22,female,mixed,at home,2021-07-02_08h35.44.015,ImageRatingTask_S4,2021.1.4,MacIntel,58.82352941,,,,,,,,,
,,,,,,,,,,,,0,6,6,6,1,seventh,1,22,female,mixed,at home,2021-07-02_08h35.44.015,ImageRatingTask_S4,2021.1.4,MacIntel,58.82352941,,,,,,,,,
,,,,,,,,,,,,0,7,7,7,1,last,1,22,female,mixed,at home,2021-07-02_08h35.44.015,ImageRatingTask_S4,2021.1.4,MacIntel,58.82352941,,,,,,,,,
,,,,,,,,,,,,,,,,,,1,22,female,mixed,at home,2021-07-02_08h35.44.015,ImageRatingTask_S4,2021.1.4,MacIntel,58.82352941,0,9,9,104,1,DreamStudyImages_rs1000x750g/Houses/Landscapes_027_v.jpg,,,
,,5,2.463,1,0.616,7,2.051,1,0.99,6,0.969,0,0,0,0,1,main,1,22,female,mixed,at home,2021-07-02_08h35.44.015,ImageRatingTask_S4,2021.1.4,MacIntel,58.82352941,,,,,,,,,
,,,,,,,,,,,,0,1,1,1,1,second,1,22,female,mixed,at home,2021-07-02_08h35.44.015,ImageRatingTask_S4,2021.1.4,MacIntel,58.82352941,,,,,,,,,
,,,,,,,,,,,,0,2,2,2,1,third,1,22,female,mixed,at home,2021-07-02_08h35.44.015,ImageRatingTask_S4,2021.1.4,MacIntel,58.82352941,,,,,,,,,
,,,,,,,,,,,,0,3,3,3,1,fourth,1,22,female,mixed,at home,2021-07-02_08h35.44.015,ImageRatingTask_S4,2021.1.4,MacIntel,58.82352941,,,,,,,,,
,,,,,,,,,,,,0,4,4,4,1,fifth,1,22,female,mixed,at home,2021-07-02_08h35.44.015,ImageRatingTask_S4,2021.1.4,MacIntel,58.82352941,,,,,,,,,
,,,,,,,,,,,,0,5,5,5,1,sixth,1,22,female,mixed,at home,2021-07-02_08h35.44.015,ImageRatingTask_S4,2021.1.4,MacIntel,58.82352941,,,,,,,,,
,,,,,,,,,,,,0,6,6,6,1,seventh,1,22,female,mixed,at home,2021-07-02_08h35.44.015,ImageRatingTask_S4,2021.1.4,MacIntel,58.82352941,,,,,,,,,
,,,,,,,,,,,,0,7,7,7,1,last,1,22,female,mixed,at home,2021-07-02_08h35.44.015,ImageRatingTask_S4,2021.1.4,MacIntel,58.82352941,,,,,,,,,
,,,,,,,,,,,,,,,,,,1,22,female,mixed,at home,2021-07-02_08h35.44.015,ImageRatingTask_S4,2021.1.4,MacIntel,58.82352941,0,10,10,112,1,DreamStudyImages_rs1000x750g/Houses/Landscapes_092_h.jpg,,,
,,6,2.7,2,3.7,5,1.7,1,1.787,5,0.723,0,0,0,0,1,main,1,22,female,mixed,at home,2021-07-02_08h35.44.015,ImageRatingTask_S4,2021.1.4,MacIntel,58.82352941,,,,,,,,,
,,,,,,,,,,,,0,1,1,1,1,second,1,22,female,mixed,at home,2021-07-02_08h35.44.015,ImageRatingTask_S4,2021.1.4,MacIntel,58.82352941,,,,,,,,,
,,,,,,,,,,,,0,2,2,2,1,third,1,22,female,mixed,at home,2021-07-02_08h35.44.015,ImageRatingTask_S4,2021.1.4,MacIntel,58.82352941,,,,,,,,,
,,,,,,,,,,,,0,3,3,3,1,fourth,1,22,female,mixed,at home,2021-07-02_08h35.44.015,ImageRatingTask_S4,2021.1.4,MacIntel,58.82352941,,,,,,,,,
,,,,,,,,,,,,0,4,4,4,1,fifth,1,22,female,mixed,at home,2021-07-02_08h35.44.015,ImageRatingTask_S4,2021.1.4,MacIntel,58.82352941,,,,,,,,,
,,,,,,,,,,,,0,5,5,5,1,sixth,1,22,female,mixed,at home,2021-07-02_08h35.44.015,ImageRatingTask_S4,2021.1.4,MacIntel,58.82352941,,,,,,,,,
,,,,,,,,,,,,0,6,6,6,1,seventh,1,22,female,mixed,at home,2021-07-02_08h35.44.015,ImageRatingTask_S4,2021.1.4,MacIntel,58.82352941,,,,,,,,,
,,,,,,,,,,,,0,7,7,7,1,last,1,22,female,mixed,at home,2021-07-02_08h35.44.015,ImageRatingTask_S4,2021.1.4,MacIntel,58.82352941,,,,,,,,,
,,,,,,,,,,,,,,,,,,1,22,female,mixed,at home,2021-07-02_08h35.44.015,ImageRatingTask_S4,2021.1.4,MacIntel,58.82352941,0,11,11,27,1,DreamStudyImages_rs1000x750g/Food/IAPS7410_chocolate2.jpg,,,
,,5,2.672,1,0.648,7,2.768,1,1.052,7,0.673,0,0,0,0,1,main,1,22,female,mixed,at home,2021-07-02_08h35.44.015,ImageRatingTask_S4,2021.1.4,MacIntel,58.82352941,,,,,,,,,
,,,,,,,,,,,,0,1,1,1,1,second,1,22,female,mixed,at home,2021-07-02_08h35.44.015,ImageRatingTask_S4,2021.1.4,MacIntel,58.82352941,,,,,,,,,
,,,,,,,,,,,,0,2,2,2,1,third,1,22,female,mixed,at home,2021-07-02_08h35.44.015,ImageRatingTask_S4,2021.1.4,MacIntel,58.82352941,,,,,,,,,
,,,,,,,,,,,,0,3,3,3,1,fourth,1,22,female,mixed,at home,2021-07-02_08h35.44.015,ImageRatingTask_S4,2021.1.4,MacIntel,58.82352941,,,,,,,,,
,,,,,,,,,,,,0,4,4,4,1,fifth,1,22,female,mixed,at home,2021-07-02_08h35.44.015,ImageRatingTask_S4,2021.1.4,MacIntel,58.82352941,,,,,,,,,
,,,,,,,,,,,,0,5,5,5,1,sixth,1,22,female,mixed,at home,2021-07-02_08h35.44.015,ImageRatingTask_S4,2021.1.4,MacIntel,58.82352941,,,,,,,,,
,,,,,,,,,,,,0,6,6,6,1,seventh,1,22,female,mixed,at home,2021-07-02_08h35.44.015,ImageRatingTask_S4,2021.1.4,MacIntel,58.82352941,,,,,,,,,
,,,,,,,,,,,,0,7,7,7,1,last,1,22,female,mixed,at home,2021-07-02_08h35.44.015,ImageRatingTask_S4,2021.1.4,MacIntel,58.82352941,,,,,,,,,
,,,,,,,,,,,,,,,,,,1,22,female,mixed,at home,2021-07-02_08h35.44.015,ImageRatingTask_S4,2021.1.4,MacIntel,58.82352941,0,12,12,72,1,DreamStudyImages_rs1000x750g/Vehicles/bigtruck.jpg,,,
,,7,2.783,2,0.95,9,1.602,1,1.15,2,1.225,0,0,0,0,1,main,1,22,female,mixed,at home,2021-07-02_08h35.44.015,ImageRatingTask_S4,2021.1.4,MacIntel,58.82352941,,,,,,,,,
,,,,,,,,,,,,0,1,1,1,1,second,1,22,female,mixed,at home,2021-07-02_08h35.44.015,ImageRatingTask_S4,2021.1.4,MacIntel,58.82352941,,,,,,,,,
,,,,,,,,,,,,0,2,2,2,1,third,1,22,female,mixed,at home,2021-07-02_08h35.44.015,ImageRatingTask_S4,2021.1.4,MacIntel,58.82352941,,,,,,,,,
,,,,,,,,,,,,0,3,3,3,1,fourth,1,22,female,mixed,at home,2021-07-02_08h35.44.015,ImageRatingTask_S4,2021.1.4,MacIntel,58.82352941,,,,,,,,,
,,,,,,,,,,,,0,4,4,4,1,fifth,1,22,female,mixed,at home,2021-07-02_08h35.44.015,ImageRatingTask_S4,2021.1.4,MacIntel,58.82352941,,,,,,,,,
,,,,,,,,,,,,0,5,5,5,1,sixth,1,22,female,mixed,at home,2021-07-02_08h35.44.015,ImageRatingTask_S4,2021.1.4,MacIntel,58.82352941,,,,,,,,,
,,,,,,,,,,,,0,6,6,6,1,seventh,1,22,female,mixed,at home,2021-07-02_08h35.44.015,ImageRatingTask_S4,2021.1.4,MacIntel,58.82352941,,,,,,,,,
,,,,,,,,,,,,0,7,7,7,1,last,1,22,female,mixed,at home,2021-07-02_08h35.44.015,ImageRatingTask_S4,2021.1.4,MacIntel,58.82352941,,,,,,,,,
,,,,,,,,,,,,,,,,,,1,22,female,mixed,at home,2021-07-02_08h35.44.015,ImageRatingTask_S4,2021.1.4,MacIntel,58.82352941,0,13,13,148,1,DreamStudyImages_rs1000x750g/Children/IAPS2314_girl8.jpg,,,
,,5,3.351,1,0.767,9,8.071,1,1.033,7,0.94,0,0,0,0,1,main,1,22,female,mixed,at home,2021-07-02_08h35.44.015,ImageRatingTask_S4,2021.1.4,MacIntel,58.82352941,,,,,,,,,
,,,,,,,,,,,,0,1,1,1,1,second,1,22,female,mixed,at home,2021-07-02_08h35.44.015,ImageRatingTask_S4,2021.1.4,MacIntel,58.82352941,,,,,,,,,
,,,,,,,,,,,,0,2,2,2,1,third,1,22,female,mixed,at home,2021-07-02_08h35.44.015,ImageRatingTask_S4,2021.1.4,MacIntel,58.82352941,,,,,,,,,
,,,,,,,,,,,,0,3,3,3,1,fourth,1,22,female,mixed,at home,2021-07-02_08h35.44.015,ImageRatingTask_S4,2021.1.4,MacIntel,58.82352941,,,,,,,,,
,,,,,,,,,,,,0,4,4,4,1,fifth,1,22,female,mixed,at home,2021-07-02_08h35.44.015,ImageRatingTask_S4,2021.1.4,MacIntel,58.82352941,,,,,,,,,
,,,,,,,,,,,,0,5,5,5,1,sixth,1,22,female,mixed,at home,2021-07-02_08h35.44.015,ImageRatingTask_S4,2021.1.4,MacIntel,58.82352941,,,,,,,,,
,,,,,,,,,,,,0,6,6,6,1,seventh,1,22,female,mixed,at home,2021-07-02_08h35.44.015,ImageRatingTask_S4,2021.1.4,MacIntel,58.82352941,,,,,,,,,
,,,,,,,,,,,,0,7,7,7,1,last,1,22,female,mixed,at home,2021-07-02_08h35.44.015,ImageRatingTask_S4,2021.1.4,MacIntel,58.82352941,,,,,,,,,
,,,,,,,,,,,,,,,,,,1,22,female,mixed,at home,2021-07-02_08h35.44.015,ImageRatingTask_S4,2021.1.4,MacIntel,58.82352941,0,14,14,136,1,DreamStudyImages_rs1000x750g/Vehicles/Objects_244_h.jpg,,,
,,7,2.72,2,1.532,8,2.017,1,1.269,3,0.908,0,0,0,0,1,main,1,22,female,mixed,at home,2021-07-02_08h35.44.015,ImageRatingTask_S4,2021.1.4,MacIntel,58.82352941,,,,,,,,,
,,,,,,,,,,,,0,1,1,1,1,second,1,22,female,mixed,at home,2021-07-02_08h35.44.015,ImageRatingTask_S4,2021.1.4,MacIntel,58.82352941,,,,,,,,,
,,,,,,,,,,,,0,2,2,2,1,third,1,22,female,mixed,at home,2021-07-02_08h35.44.015,ImageRatingTask_S4,2021.1.4,MacIntel,58.82352941,,,,,,,,,
,,,,,,,,,,,,0,3,3,3,1,fourth,1,22,female,mixed,at home,2021-07-02_08h35.44.015,ImageRatingTask_S4,2021.1.4,MacIntel,58.82352941,,,,,,,,,
,,,,,,,,,,,,0,4,4,4,1,fifth,1,22,female,mixed,at home,2021-07-02_08h35.44.015,ImageRatingTask_S4,2021.1.4,MacIntel,58.82352941,,,,,,,,,
,,,,,,,,,,,,0,5,5,5,1,sixth,1,22,female,mixed,at home,2021-07-02_08h35.44.015,ImageRatingTask_S4,2021.1.4,MacIntel,58.82352941,,,,,,,,,
,,,,,,,,,,,,0,6,6,6,1,seventh,1,22,female,mixed,at home,2021-07-02_08h35.44.015,ImageRatingTask_S4,2021.1.4,MacIntel,58.82352941,,,,,,,,,
,,,,,,,,,,,,0,7,7,7,1,last,1,22,female,mixed,at home,2021-07-02_08h35.44.015,ImageRatingTask_S4,2021.1.4,MacIntel,58.82352941,,,,,,,,,
,,,,,,,,,,,,,,,,,,1,22,female,mixed,at home,2021-07-02_08h35.44.015,ImageRatingTask_S4,2021.1.4,MacIntel,58.82352941,0,15,15,0,1,DreamStudyImages_rs1000x750g/Mammals/Dog 18.jpg,,,
,,5,1.884,1,0.737,8,1.964,1,0.701,7,0.957,0,0,0,0,1,main,1,22,female,mixed,at home,2021-07-02_08h35.44.015,ImageRatingTask_S4,2021.1.4,MacIntel,58.82352941,,,,,,,,,
,,,,,,,,,,,,0,1,1,1,1,second,1,22,female,mixed,at home,2021-07-02_08h35.44.015,ImageRatingTask_S4,2021.1.4,MacIntel,58.82352941,,,,,,,,,
,,,,,,,,,,,,0,2,2,2,1,third,1,22,female,mixed,at home,2021-07-02_08h35.44.015,ImageRatingTask_S4,2021.1.4,MacIntel,58.82352941,,,,,,,,,
,,,,,,,,,,,,0,3,3,3,1,fourth,1,22,female,mixed,at home,2021-07-02_08h35.44.015,ImageRatingTask_S4,2021.1.4,MacIntel,58.82352941,,,,,,,,,
,,,,,,,,,,,,0,4,4,4,1,fifth,1,22,female,mixed,at home,2021-07-02_08h35.44.015,ImageRatingTask_S4,2021.1.4,MacIntel,58.82352941,,,,,,,,,
,,,,,,,,,,,,0,5,5,5,1,sixth,1,22,female,mixed,at home,2021-07-02_08h35.44.015,ImageRatingTask_S4,2021.1.4,MacIntel,58.82352941,,,,,,,,,
,,,,,,,,,,,,0,6,6,6,1,seventh,1,22,female,mixed,at home,2021-07-02_08h35.44.015,ImageRatingTask_S4,2021.1.4,MacIntel,58.82352941,,,,,,,,,
,,,,,,,,,,,,0,7,7,7,1,last,1,22,female,mixed,at home,2021-07-02_08h35.44.015,ImageRatingTask_S4,2021.1.4,MacIntel,58.82352941,,,,,,,,,
,,,,,,,,,,,,,,,,,,1,22,female,mixed,at home,2021-07-02_08h35.44.015,ImageRatingTask_S4,2021.1.4,MacIntel,58.82352941,0,16,16,58,1,DreamStudyImages_rs1000x750g/Vehicles/paintedvan.jpg,,,
,,7,6.153,3,1.567,7,2.702,1,0.973,5,0.684,0,0,0,0,1,main,1,22,female,mixed,at home,2021-07-02_08h35.44.015,ImageRatingTask_S4,2021.1.4,MacIntel,58.82352941,,,,,,,,,
,,,,,,,,,,,,0,1,1,1,1,second,1,22,female,mixed,at home,2021-07-02_08h35.44.015,ImageRatingTask_S4,2021.1.4,MacIntel,58.82352941,,,,,,,,,
,,,,,,,,,,,,0,2,2,2,1,third,1,22,female,mixed,at home,2021-07-02_08h35.44.015,ImageRatingTask_S4,2021.1.4,MacIntel,58.82352941,,,,,,,,,
,,,,,,,,,,,,0,3,3,3,1,fourth,1,22,female,mixed,at home,2021-07-02_08h35.44.015,ImageRatingTask_S4,2021.1.4,MacIntel,58.82352941,,,,,,,,,
,,,,,,,,,,,,0,4,4,4,1,fifth,1,22,female,mixed,at home,2021-07-02_08h35.44.015,ImageRatingTask_S4,2021.1.4,MacIntel,58.82352941,,,,,,,,,
,,,,,,,,,,,,0,5,5,5,1,sixth,1,22,female,mixed,at home,2021-07-02_08h35.44.015,ImageRatingTask_S4,2021.1.4,MacIntel,58.82352941,,,,,,,,,
,,,,,,,,,,,,0,6,6,6,1,seventh,1,22,female,mixed,at home,2021-07-02_08h35.44.015,ImageRatingTask_S4,2021.1.4,MacIntel,58.82352941,,,,,,,,,
,,,,,,,,,,,,0,7,7,7,1,last,1,22,female,mixed,at home,2021-07-02_08h35.44.015,ImageRatingTask_S4,2021.1.4,MacIntel,58.82352941,,,,,,,,,
,,,,,,,,,,,,,,,,,,1,22,female,mixed,at home,2021-07-02_08h35.44.015,ImageRatingTask_S4,2021.1.4,MacIntel,58.82352941,0,17,17,101,1,DreamStudyImages_rs1000x750g/Food/IAPS7470_pancakes.jpg,,,
,,7,2.504,3,2.486,7,2.284,1,4.319,6,4.247,0,0,0,0,1,main,1,22,female,mixed,at home,2021-07-02_08h35.44.015,ImageRatingTask_S4,2021.1.4,MacIntel,58.82352941,,,,,,,,,
,,,,,,,,,,,,0,1,1,1,1,second,1,22,female,mixed,at home,2021-07-02_08h35.44.015,ImageRatingTask_S4,2021.1.4,MacIntel,58.82352941,,,,,,,,,
,,,,,,,,,,,,0,2,2,2,1,third,1,22,female,mixed,at home,2021-07-02_08h35.44.015,ImageRatingTask_S4,2021.1.4,MacIntel,58.82352941,,,,,,,,,
,,,,,,,,,,,,0,3,3,3,1,fourth,1,22,female,mixed,at home,2021-07-02_08h35.44.015,ImageRatingTask_S4,2021.1.4,MacIntel,58.82352941,,,,,,,,,
,,,,,,,,,,,,0,4,4,4,1,fifth,1,22,female,mixed,at home,2021-07-02_08h35.44.015,ImageRatingTask_S4,2021.1.4,MacIntel,58.82352941,,,,,,,,,
,,,,,,,,,,,,0,5,5,5,1,sixth,1,22,female,mixed,at home,2021-07-02_08h35.44.015,ImageRatingTask_S4,2021.1.4,MacIntel,58.82352941,,,,,,,,,
,,,,,,,,,,,,0,6,6,6,1,seventh,1,22,female,mixed,at home,2021-07-02_08h35.44.015,ImageRatingTask_S4,2021.1.4,MacIntel,58.82352941,,,,,,,,,
,,,,,,,,,,,,0,7,7,7,1,last,1,22,female,mixed,at home,2021-07-02_08h35.44.015,ImageRatingTask_S4,2021.1.4,MacIntel,58.82352941,,,,,,,,,
,,,,,,,,,,,,,,,,,,1,22,female,mixed,at home,2021-07-02_08h35.44.015,ImageRatingTask_S4,2021.1.4,MacIntel,58.82352941,0,18,18,124,1,DreamStudyImages_rs1000x750g/Houses/snowchalet.jpg,,,
,,6,6.02,2,1.467,8,1.819,1,0.972,7,1.037,0,0,0,0,1,main,1,22,female,mixed,at home,2021-07-02_08h35.44.015,ImageRatingTask_S4,2021.1.4,MacIntel,58.82352941,,,,,,,,,
,,,,,,,,,,,,0,1,1,1,1,second,1,22,female,mixed,at home,2021-07-02_08h35.44.015,ImageRatingTask_S4,2021.1.4,MacIntel,58.82352941,,,,,,,,,
,,,,,,,,,,,,0,2,2,2,1,third,1,22,female,mixed,at home,2021-07-02_08h35.44.015,ImageRatingTask_S4,2021.1.4,MacIntel,58.82352941,,,,,,,,,
,,,,,,,,,,,,0,3,3,3,1,fourth,1,22,female,mixed,at home,2021-07-02_08h35.44.015,ImageRatingTask_S4,2021.1.4,MacIntel,58.82352941,,,,,,,,,
,,,,,,,,,,,,0,4,4,4,1,fifth,1,22,female,mixed,at home,2021-07-02_08h35.44.015,ImageRatingTask_S4,2021.1.4,MacIntel,58.82352941,,,,,,,,,
,,,,,,,,,,,,0,5,5,5,1,sixth,1,22,female,mixed,at home,2021-07-02_08h35.44.015,ImageRatingTask_S4,2021.1.4,MacIntel,58.82352941,,,,,,,,,
,,,,,,,,,,,,0,6,6,6,1,seventh,1,22,female,mixed,at home,2021-07-02_08h35.44.015,ImageRatingTask_S4,2021.1.4,MacIntel,58.82352941,,,,,,,,,
,,,,,,,,,,,,0,7,7,7,1,last,1,22,female,mixed,at home,2021-07-02_08h35.44.015,ImageRatingTask_S4,2021.1.4,MacIntel,58.82352941,,,,,,,,,
,,,,,,,,,,,,,,,,,,1,22,female,mixed,at home,2021-07-02_08h35.44.015,ImageRatingTask_S4,2021.1.4,MacIntel,58.82352941,0,19,19,53,1,DreamStudyImages_rs1000x750g/Vehicles/roadrailvehicle.jpg,,,
,,3,4.538,3,2.45,6,2.72,1,2.333,6,1.542,0,0,0,0,1,main,1,22,female,mixed,at home,2021-07-02_08h35.44.015,ImageRatingTask_S4,2021.1.4,MacIntel,58.82352941,,,,,,,,,
,,,,,,,,,,,,0,1,1,1,1,second,1,22,female,mixed,at home,2021-07-02_08h35.44.015,ImageRatingTask_S4,2021.1.4,MacIntel,58.82352941,,,,,,,,,
,,,,,,,,,,,,0,2,2,2,1,third,1,22,female,mixed,at home,2021-07-02_08h35.44.015,ImageRatingTask_S4,2021.1.4,MacIntel,58.82352941,,,,,,,,,
,,,,,,,,,,,,0,3,3,3,1,fourth,1,22,female,mixed,at home,2021-07-02_08h35.44.015,ImageRatingTask_S4,2021.1.4,MacIntel,58.82352941,,,,,,,,,
,,,,,,,,,,,,0,4,4,4,1,fifth,1,22,female,mixed,at home,2021-07-02_08h35.44.015,ImageRatingTask_S4,2021.1.4,MacIntel,58.82352941,,,,,,,,,
,,,,,,,,,,,,0,5,5,5,1,sixth,1,22,female,mixed,at home,2021-07-02_08h35.44.015,ImageRatingTask_S4,2021.1.4,MacIntel,58.82352941,,,,,,,,,
,,,,,,,,,,,,0,6,6,6,1,seventh,1,22,female,mixed,at home,2021-07-02_08h35.44.015,ImageRatingTask_S4,2021.1.4,MacIntel,58.82352941,,,,,,,,,
,,,,,,,,,,,,0,7,7,7,1,last,1,22,female,mixed,at home,2021-07-02_08h35.44.015,ImageRatingTask_S4,2021.1.4,MacIntel,58.82352941,,,,,,,,,
,,,,,,,,,,,,,,,,,,1,22,female,mixed,at home,2021-07-02_08h35.44.015,ImageRatingTask_S4,2021.1.4,MacIntel,58.82352941,0,20,20,81,1,DreamStudyImages_rs1000x750g/Houses/IAPS9471_burntbuilding.jpg,,,
,,6,2.641,2,2.101,7,1.786,1,1.015,2,0.892,0,0,0,0,1,main,1,22,female,mixed,at home,2021-07-02_08h35.44.015,ImageRatingTask_S4,2021.1.4,MacIntel,58.82352941,,,,,,,,,
,,,,,,,,,,,,0,1,1,1,1,second,1,22,female,mixed,at home,2021-07-02_08h35.44.015,ImageRatingTask_S4,2021.1.4,MacIntel,58.82352941,,,,,,,,,
,,,,,,,,,,,,0,2,2,2,1,third,1,22,female,mixed,at home,2021-07-02_08h35.44.015,ImageRatingTask_S4,2021.1.4,MacIntel,58.82352941,,,,,,,,,
,,,,,,,,,,,,0,3,3,3,1,fourth,1,22,female,mixed,at home,2021-07-02_08h35.44.015,ImageRatingTask_S4,2021.1.4,MacIntel,58.82352941,,,,,,,,,
,,,,,,,,,,,,0,4,4,4,1,fifth,1,22,female,mixed,at home,2021-07-02_08h35.44.015,ImageRatingTask_S4,2021.1.4,MacIntel,58.82352941,,,,,,,,,
,,,,,,,,,,,,0,5,5,5,1,sixth,1,22,female,mixed,at home,2021-07-02_08h35.44.015,ImageRatingTask_S4,2021.1.4,MacIntel,58.82352941,,,,,,,,,
,,,,,,,,,,,,0,6,6,6,1,seventh,1,22,female,mixed,at home,2021-07-02_08h35.44.015,ImageRatingTask_S4,2021.1.4,MacIntel,58.82352941,,,,,,,,,
,,,,,,,,,,,,0,7,7,7,1,last,1,22,female,mixed,at home,2021-07-02_08h35.44.015,ImageRatingTask_S4,2021.1.4,MacIntel,58.82352941,,,,,,,,,
,,,,,,,,,,,,,,,,,,1,22,female,mixed,at home,2021-07-02_08h35.44.015,ImageRatingTask_S4,2021.1.4,MacIntel,58.82352941,0,21,21,52,1,DreamStudyImages_rs1000x750g/Children/Excited face 6.jpg,,,
,,4,6.91,3,2.478,7,1.919,1,0.918,3,0.84,0,0,0,0,1,main,1,22,female,mixed,at home,2021-07-02_08h35.44.015,ImageRatingTask_S4,2021.1.4,MacIntel,58.82352941,,,,,,,,,
,,,,,,,,,,,,0,1,1,1,1,second,1,22,female,mixed,at home,2021-07-02_08h35.44.015,ImageRatingTask_S4,2021.1.4,MacIntel,58.82352941,,,,,,,,,
,,,,,,,,,,,,0,2,2,2,1,third,1,22,female,mixed,at home,2021-07-02_08h35.44.015,ImageRatingTask_S4,2021.1.4,MacIntel,58.82352941,,,,,,,,,
,,,,,,,,,,,,0,3,3,3,1,fourth,1,22,female,mixed,at home,2021-07-02_08h35.44.015,ImageRatingTask_S4,2021.1.4,MacIntel,58.82352941,,,,,,,,,
,,,,,,,,,,,,0,4,4,4,1,fifth,1,22,female,mixed,at home,2021-07-02_08h35.44.015,ImageRatingTask_S4,2021.1.4,MacIntel,58.82352941,,,,,,,,,
,,,,,,,,,,,,0,5,5,5,1,sixth,1,22,female,mixed,at home,2021-07-02_08h35.44.015,ImageRatingTask_S4,2021.1.4,MacIntel,58.82352941,,,,,,,,,
,,,,,,,,,,,,0,6,6,6,1,seventh,1,22,female,mixed,at home,2021-07-02_08h35.44.015,ImageRatingTask_S4,2021.1.4,MacIntel,58.82352941,,,,,,,,,
,,,,,,,,,,,,0,7,7,7,1,last,1,22,female,mixed,at home,2021-07-02_08h35.44.015,ImageRatingTask_S4,2021.1.4,MacIntel,58.82352941,,,,,,,,,
,,,,,,,,,,,,,,,,,,1,22,female,mixed,at home,2021-07-02_08h35.44.015,ImageRatingTask_S4,2021.1.4,MacIntel,58.82352941,0,22,22,158,1,DreamStudyImages_rs1000x750g/Mammals/Cat 7.jpg,,,
,,4,2.333,2,1.518,6,3.635,1,1.051,3,0.841,0,0,0,0,1,main,1,22,female,mixed,at home,2021-07-02_08h35.44.015,ImageRatingTask_S4,2021.1.4,MacIntel,58.82352941,,,,,,,,,
,,,,,,,,,,,,0,1,1,1,1,second,1,22,female,mixed,at home,2021-07-02_08h35.44.015,ImageRatingTask_S4,2021.1.4,MacIntel,58.82352941,,,,,,,,,
,,,,,,,,,,,,0,2,2,2,1,third,1,22,female,mixed,at home,2021-07-02_08h35.44.015,ImageRatingTask_S4,2021.1.4,MacIntel,58.82352941,,,,,,,,,
,,,,,,,,,,,,0,3,3,3,1,fourth,1,22,female,mixed,at home,2021-07-02_08h35.44.015,ImageRatingTask_S4,2021.1.4,MacIntel,58.82352941,,,,,,,,,
,,,,,,,,,,,,0,4,4,4,1,fifth,1,22,female,mixed,at home,2021-07-02_08h35.44.015,ImageRatingTask_S4,2021.1.4,MacIntel,58.82352941,,,,,,,,,
,,,,,,,,,,,,0,5,5,5,1,sixth,1,22,female,mixed,at home,2021-07-02_08h35.44.015,ImageRatingTask_S4,2021.1.4,MacIntel,58.82352941,,,,,,,,,
,,,,,,,,,,,,0,6,6,6,1,seventh,1,22,female,mixed,at home,2021-07-02_08h35.44.015,ImageRatingTask_S4,2021.1.4,MacIntel,58.82352941,,,,,,,,,
,,,,,,,,,,,,0,7,7,7,1,last,1,22,female,mixed,at home,2021-07-02_08h35.44.015,ImageRatingTask_S4,2021.1.4,MacIntel,58.82352941,,,,,,,,,
,,,,,,,,,,,,,,,,,,1,22,female,mixed,at home,2021-07-02_08h35.44.015,ImageRatingTask_S4,2021.1.4,MacIntel,58.82352941,0,23,23,129,1,DreamStudyImages_rs1000x750g/Mammals/Dog 31.jpg,,,
,,5,7.231,1,2.351,8,1.668,1,2.802,5,0.959,0,0,0,0,1,main,1,22,female,mixed,at home,2021-07-02_08h35.44.015,ImageRatingTask_S4,2021.1.4,MacIntel,58.82352941,,,,,,,,,
,,,,,,,,,,,,0,1,1,1,1,second,1,22,female,mixed,at home,2021-07-02_08h35.44.015,ImageRatingTask_S4,2021.1.4,MacIntel,58.82352941,,,,,,,,,
,,,,,,,,,,,,0,2,2,2,1,third,1,22,female,mixed,at home,2021-07-02_08h35.44.015,ImageRatingTask_S4,2021.1.4,MacIntel,58.82352941,,,,,,,,,
,,,,,,,,,,,,0,3,3,3,1,fourth,1,22,female,mixed,at home,2021-07-02_08h35.44.015,ImageRatingTask_S4,2021.1.4,MacIntel,58.82352941,,,,,,,,,
,,,,,,,,,,,,0,4,4,4,1,fifth,1,22,female,mixed,at home,2021-07-02_08h35.44.015,ImageRatingTask_S4,2021.1.4,MacIntel,58.82352941,,,,,,,,,
,,,,,,,,,,,,0,5,5,5,1,sixth,1,22,female,mixed,at home,2021-07-02_08h35.44.015,ImageRatingTask_S4,2021.1.4,MacIntel,58.82352941,,,,,,,,,
,,,,,,,,,,,,0,6,6,6,1,seventh,1,22,female,mixed,at home,2021-07-02_08h35.44.015,ImageRatingTask_S4,2021.1.4,MacIntel,58.82352941,,,,,,,,,
,,,,,,,,,,,,0,7,7,7,1,last,1,22,female,mixed,at home,2021-07-02_08h35.44.015,ImageRatingTask_S4,2021.1.4,MacIntel,58.82352941,,,,,,,,,
,,,,,,,,,,,,,,,,,,1,22,female,mixed,at home,2021-07-02_08h35.44.015,ImageRatingTask_S4,2021.1.4,MacIntel,58.82352941,0,24,24,130,1,DreamStudyImages_rs1000x750g/Food/Objects_089_h.jpg,,,
,,6,3.302,1,2.283,8,7.386,1,1.17,8,0.843,0,0,0,0,1,main,1,22,female,mixed,at home,2021-07-02_08h35.44.015,ImageRatingTask_S4,2021.1.4,MacIntel,58.82352941,,,,,,,,,
,,,,,,,,,,,,0,1,1,1,1,second,1,22,female,mixed,at home,2021-07-02_08h35.44.015,ImageRatingTask_S4,2021.1.4,MacIntel,58.82352941,,,,,,,,,
,,,,,,,,,,,,0,2,2,2,1,third,1,22,female,mixed,at home,2021-07-02_08h35.44.015,ImageRatingTask_S4,2021.1.4,MacIntel,58.82352941,,,,,,,,,
,,,,,,,,,,,,0,3,3,3,1,fourth,1,22,female,mixed,at home,2021-07-02_08h35.44.015,ImageRatingTask_S4,2021.1.4,MacIntel,58.82352941,,,,,,,,,
,,,,,,,,,,,,0,4,4,4,1,fifth,1,22,female,mixed,at home,2021-07-02_08h35.44.015,ImageRatingTask_S4,2021.1.4,MacIntel,58.82352941,,,,,,,,,
,,,,,,,,,,,,0,5,5,5,1,sixth,1,22,female,mixed,at home,2021-07-02_08h35.44.015,ImageRatingTask_S4,2021.1.4,MacIntel,58.82352941,,,,,,,,,
,,,,,,,,,,,,0,6,6,6,1,seventh,1,22,female,mixed,at home,2021-07-02_08h35.44.015,ImageRatingTask_S4,2021.1.4,MacIntel,58.82352941,,,,,,,,,
,,,,,,,,,,,,0,7,7,7,1,last,1,22,female,mixed,at home,2021-07-02_08h35.44.015,ImageRatingTask_S4,2021.1.4,MacIntel,58.82352941,,,,,,,,,
,,,,,,,,,,,,,,,,,,1,22,female,mixed,at home,2021-07-02_08h35.44.015,ImageRatingTask_S4,2021.1.4,MacIntel,58.82352941,0,25,25,137,1,DreamStudyImages_rs1000x750g/Water/seacliffbridge.jpg,,,
,,6,1.863,1,1.184,9,3.17,1,1.434,2,0.826,0,0,0,0,1,main,1,22,female,mixed,at home,2021-07-02_08h35.44.015,ImageRatingTask_S4,2021.1.4,MacIntel,58.82352941,,,,,,,,,
,,,,,,,,,,,,0,1,1,1,1,second,1,22,female,mixed,at home,2021-07-02_08h35.44.015,ImageRatingTask_S4,2021.1.4,MacIntel,58.82352941,,,,,,,,,
,,,,,,,,,,,,0,2,2,2,1,third,1,22,female,mixed,at home,2021-07-02_08h35.44.015,ImageRatingTask_S4,2021.1.4,MacIntel,58.82352941,,,,,,,,,
,,,,,,,,,,,,0,3,3,3,1,fourth,1,22,female,mixed,at home,2021-07-02_08h35.44.015,ImageRatingTask_S4,2021.1.4,MacIntel,58.82352941,,,,,,,,,
,,,,,,,,,,,,0,4,4,4,1,fifth,1,22,female,mixed,at home,2021-07-02_08h35.44.015,ImageRatingTask_S4,2021.1.4,MacIntel,58.82352941,,,,,,,,,
,,,,,,,,,,,,0,5,5,5,1,sixth,1,22,female,mixed,at home,2021-07-02_08h35.44.015,ImageRatingTask_S4,2021.1.4,MacIntel,58.82352941,,,,,,,,,
,,,,,,,,,,,,0,6,6,6,1,seventh,1,22,female,mixed,at home,2021-07-02_08h35.44.015,ImageRatingTask_S4,2021.1.4,MacIntel,58.82352941,,,,,,,,,
,,,,,,,,,,,,0,7,7,7,1,last,1,22,female,mixed,at home,2021-07-02_08h35.44.015,ImageRatingTask_S4,2021.1.4,MacIntel,58.82352941,,,,,,,,,
,,,,,,,,,,,,,,,,,,1,22,female,mixed,at home,2021-07-02_08h35.44.015,ImageRatingTask_S4,2021.1.4,MacIntel,58.82352941,0,26,26,87,1,DreamStudyImages_rs1000x750g/Children/Faces_123_h.jpg,,,
,,6,1.834,2,1.001,6,1.318,1,1.818,2,0.89,0,0,0,0,1,main,1,22,female,mixed,at home,2021-07-02_08h35.44.015,ImageRatingTask_S4,2021.1.4,MacIntel,58.82352941,,,,,,,,,
,,,,,,,,,,,,0,1,1,1,1,second,1,22,female,mixed,at home,2021-07-02_08h35.44.015,ImageRatingTask_S4,2021.1.4,MacIntel,58.82352941,,,,,,,,,
,,,,,,,,,,,,0,2,2,2,1,third,1,22,female,mixed,at home,2021-07-02_08h35.44.015,ImageRatingTask_S4,2021.1.4,MacIntel,58.82352941,,,,,,,,,
,,,,,,,,,,,,0,3,3,3,1,fourth,1,22,female,mixed,at home,2021-07-02_08h35.44.015,ImageRatingTask_S4,2021.1.4,MacIntel,58.82352941,,,,,,,,,
,,,,,,,,,,,,0,4,4,4,1,fifth,1,22,female,mixed,at home,2021-07-02_08h35.44.015,ImageRatingTask_S4,2021.1.4,MacIntel,58.82352941,,,,,,,,,
,,,,,,,,,,,,0,5,5,5,1,sixth,1,22,female,mixed,at home,2021-07-02_08h35.44.015,ImageRatingTask_S4,2021.1.4,MacIntel,58.82352941,,,,,,,,,
,,,,,,,,,,,,0,6,6,6,1,seventh,1,22,female,mixed,at home,2021-07-02_08h35.44.015,ImageRatingTask_S4,2021.1.4,MacIntel,58.82352941,,,,,,,,,
,,,,,,,,,,,,0,7,7,7,1,last,1,22,female,mixed,at home,2021-07-02_08h35.44.015,ImageRatingTask_S4,2021.1.4,MacIntel,58.82352941,,,,,,,,,
,,,,,,,,,,,,,,,,,,1,22,female,mixed,at home,2021-07-02_08h35.44.015,ImageRatingTask_S4,2021.1.4,MacIntel,58.82352941,0,27,27,107,1,DreamStudyImages_rs1000x750g/Children/IAPS2260_baby20.jpg,,,
,,5,2.117,1,2.036,9,2.332,1,1.084,7,1.425,0,0,0,0,1,main,1,22,female,mixed,at home,2021-07-02_08h35.44.015,ImageRatingTask_S4,2021.1.4,MacIntel,58.82352941,,,,,,,,,
,,,,,,,,,,,,0,1,1,1,1,second,1,22,female,mixed,at home,2021-07-02_08h35.44.015,ImageRatingTask_S4,2021.1.4,MacIntel,58.82352941,,,,,,,,,
,,,,,,,,,,,,0,2,2,2,1,third,1,22,female,mixed,at home,2021-07-02_08h35.44.015,ImageRatingTask_S4,2021.1.4,MacIntel,58.82352941,,,,,,,,,
,,,,,,,,,,,,0,3,3,3,1,fourth,1,22,female,mixed,at home,2021-07-02_08h35.44.015,ImageRatingTask_S4,2021.1.4,MacIntel,58.82352941,,,,,,,,,
,,,,,,,,,,,,0,4,4,4,1,fifth,1,22,female,mixed,at home,2021-07-02_08h35.44.015,ImageRatingTask_S4,2021.1.4,MacIntel,58.82352941,,,,,,,,,
,,,,,,,,,,,,0,5,5,5,1,sixth,1,22,female,mixed,at home,2021-07-02_08h35.44.015,ImageRatingTask_S4,2021.1.4,MacIntel,58.82352941,,,,,,,,,
,,,,,,,,,,,,0,6,6,6,1,seventh,1,22,female,mixed,at home,2021-07-02_08h35.44.015,ImageRatingTask_S4,2021.1.4,MacIntel,58.82352941,,,,,,,,,
,,,,,,,,,,,,0,7,7,7,1,last,1,22,female,mixed,at home,2021-07-02_08h35.44.015,ImageRatingTask_S4,2021.1.4,MacIntel,58.82352941,,,,,,,,,
,,,,,,,,,,,,,,,,,,1,22,female,mixed,at home,2021-07-02_08h35.44.015,ImageRatingTask_S4,2021.1.4,MacIntel,58.82352941,0,28,28,38,1,DreamStudyImages_rs1000x750g/Vehicles/dashboard.jpg,,,
,,5,2.638,1,0.648,9,1.751,1,1.017,7,0.658,0,0,0,0,1,main,1,22,female,mixed,at home,2021-07-02_08h35.44.015,ImageRatingTask_S4,2021.1.4,MacIntel,58.82352941,,,,,,,,,
,,,,,,,,,,,,0,1,1,1,1,second,1,22,female,mixed,at home,2021-07-02_08h35.44.015,ImageRatingTask_S4,2021.1.4,MacIntel,58.82352941,,,,,,,,,
,,,,,,,,,,,,0,2,2,2,1,third,1,22,female,mixed,at home,2021-07-02_08h35.44.015,ImageRatingTask_S4,2021.1.4,MacIntel,58.82352941,,,,,,,,,
,,,,,,,,,,,,0,3,3,3,1,fourth,1,22,female,mixed,at home,2021-07-02_08h35.44.015,ImageRatingTask_S4,2021.1.4,MacIntel,58.82352941,,,,,,,,,
,,,,,,,,,,,,0,4,4,4,1,fifth,1,22,female,mixed,at home,2021-07-02_08h35.44.015,ImageRatingTask_S4,2021.1.4,MacIntel,58.82352941,,,,,,,,,
,,,,,,,,,,,,0,5,5,5,1,sixth,1,22,female,mixed,at home,2021-07-02_08h35.44.015,ImageRatingTask_S4,2021.1.4,MacIntel,58.82352941,,,,,,,,,
,,,,,,,,,,,,0,6,6,6,1,seventh,1,22,female,mixed,at home,2021-07-02_08h35.44.015,ImageRatingTask_S4,2021.1.4,MacIntel,58.82352941,,,,,,,,,
,,,,,,,,,,,,0,7,7,7,1,last,1,22,female,mixed,at home,2021-07-02_08h35.44.015,ImageRatingTask_S4,2021.1.4,MacIntel,58.82352941,,,,,,,,,
,,,,,,,,,,,,,,,,,,1,22,female,mixed,at home,2021-07-02_08h35.44.015,ImageRatingTask_S4,2021.1.4,MacIntel,58.82352941,0,29,29,15,1,DreamStudyImages_rs1000x750g/Vehicles/truckfleet.jpg,,,
,,6,2.672,2,0.982,5,1.968,1,0.816,2,0.39,0,0,0,0,1,main,1,22,female,mixed,at home,2021-07-02_08h35.44.015,ImageRatingTask_S4,2021.1.4,MacIntel,58.82352941,,,,,,,,,
,,,,,,,,,,,,0,1,1,1,1,second,1,22,female,mixed,at home,2021-07-02_08h35.44.015,ImageRatingTask_S4,2021.1.4,MacIntel,58.82352941,,,,,,,,,
,,,,,,,,,,,,0,2,2,2,1,third,1,22,female,mixed,at home,2021-07-02_08h35.44.015,ImageRatingTask_S4,2021.1.4,MacIntel,58.82352941,,,,,,,,,
,,,,,,,,,,,,0,3,3,3,1,fourth,1,22,female,mixed,at home,2021-07-02_08h35.44.015,ImageRatingTask_S4,2021.1.4,MacIntel,58.82352941,,,,,,,,,
,,,,,,,,,,,,0,4,4,4,1,fifth,1,22,female,mixed,at home,2021-07-02_08h35.44.015,ImageRatingTask_S4,2021.1.4,MacIntel,58.82352941,,,,,,,,,
,,,,,,,,,,,,0,5,5,5,1,sixth,1,22,female,mixed,at home,2021-07-02_08h35.44.015,ImageRatingTask_S4,2021.1.4,MacIntel,58.82352941,,,,,,,,,
,,,,,,,,,,,,0,6,6,6,1,seventh,1,22,female,mixed,at home,2021-07-02_08h35.44.015,ImageRatingTask_S4,2021.1.4,MacIntel,58.82352941,,,,,,,,,
,,,,,,,,,,,,0,7,7,7,1,last,1,22,female,mixed,at home,2021-07-02_08h35.44.015,ImageRatingTask_S4,2021.1.4,MacIntel,58.82352941,,,,,,,,,
,,,,,,,,,,,,,,,,,,1,22,female,mixed,at home,2021-07-02_08h35.44.015,ImageRatingTask_S4,2021.1.4,MacIntel,58.82352941,0,30,30,50,1,DreamStudyImages_rs1000x750g/Children/IAPS2080_baby11.jpg,,,
,,6,1.888,3,1.982,7,4.168,1,3.069,3,1.912,0,0,0,0,1,main,1,22,female,mixed,at home,2021-07-02_08h35.44.015,ImageRatingTask_S4,2021.1.4,MacIntel,58.82352941,,,,,,,,,
,,,,,,,,,,,,0,1,1,1,1,second,1,22,female,mixed,at home,2021-07-02_08h35.44.015,ImageRatingTask_S4,2021.1.4,MacIntel,58.82352941,,,,,,,,,
,,,,,,,,,,,,0,2,2,2,1,third,1,22,female,mixed,at home,2021-07-02_08h35.44.015,ImageRatingTask_S4,2021.1.4,MacIntel,58.82352941,,,,,,,,,
,,,,,,,,,,,,0,3,3,3,1,fourth,1,22,female,mixed,at home,2021-07-02_08h35.44.015,ImageRatingTask_S4,2021.1.4,MacIntel,58.82352941,,,,,,,,,
,,,,,,,,,,,,0,4,4,4,1,fifth,1,22,female,mixed,at home,2021-07-02_08h35.44.015,ImageRatingTask_S4,2021.1.4,MacIntel,58.82352941,,,,,,,,,
,,,,,,,,,,,,0,5,5,5,1,sixth,1,22,female,mixed,at home,2021-07-02_08h35.44.015,ImageRatingTask_S4,2021.1.4,MacIntel,58.82352941,,,,,,,,,
,,,,,,,,,,,,0,6,6,6,1,seventh,1,22,female,mixed,at home,2021-07-02_08h35.44.015,ImageRatingTask_S4,2021.1.4,MacIntel,58.82352941,,,,,,,,,
,,,,,,,,,,,,0,7,7,7,1,last,1,22,female,mixed,at home,2021-07-02_08h35.44.015,ImageRatingTask_S4,2021.1.4,MacIntel,58.82352941,,,,,,,,,
,,,,,,,,,,,,,,,,,,1,22,female,mixed,at home,2021-07-02_08h35.44.015,ImageRatingTask_S4,2021.1.4,MacIntel,58.82352941,0,31,31,118,1,DreamStudyImages_rs1000x750g/Mammals/Chipmunk 2.jpg,,,
,,5,2.614,1,1.051,7,2.551,0,2.2,,,0,0,0,0,1,main,1,22,female,mixed,at home,2021-07-02_08h35.44.015,ImageRatingTask_S4,2021.1.4,MacIntel,58.82352941,,,,,,,,,
,,,,,,,,,,,,0,1,1,1,1,second,1,22,female,mixed,at home,2021-07-02_08h35.44.015,ImageRatingTask_S4,2021.1.4,MacIntel,58.82352941,,,,,,,,,
,,,,,,,,,,,,0,2,2,2,1,third,1,22,female,mixed,at home,2021-07-02_08h35.44.015,ImageRatingTask_S4,2021.1.4,MacIntel,58.82352941,,,,,,,,,
,,,,,,,,,,,,0,3,3,3,1,fourth,1,22,female,mixed,at home,2021-07-02_08h35.44.015,ImageRatingTask_S4,2021.1.4,MacIntel,58.82352941,,,,,,,,,
,,,,,,,,,,,,0,4,4,4,1,fifth,1,22,female,mixed,at home,2021-07-02_08h35.44.015,ImageRatingTask_S4,2021.1.4,MacIntel,58.82352941,,,,,,,,,
,,,,,,,,,,,,0,5,5,5,1,sixth,1,22,female,mixed,at home,2021-07-02_08h35.44.015,ImageRatingTask_S4,2021.1.4,MacIntel,58.82352941,,,,,,,,,
,,,,,,,,,,,,0,6,6,6,1,seventh,1,22,female,mixed,at home,2021-07-02_08h35.44.015,ImageRatingTask_S4,2021.1.4,MacIntel,58.82352941,,,,,,,,,
,,,,,,,,,,,,0,7,7,7,1,last,1,22,female,mixed,at home,2021-07-02_08h35.44.015,ImageRatingTask_S4,2021.1.4,MacIntel,58.82352941,,,,,,,,,
,,,,,,,,,,,,,,,,,,1,22,female,mixed,at home,2021-07-02_08h35.44.015,ImageRatingTask_S4,2021.1.4,MacIntel,58.82352941,0,32,32,31,1,DreamStudyImages_rs1000x750g/Houses/Landscapes_093_h.jpg,,,
,,5,2.931,1,1.251,6,1.673,1,0.934,3,0.929,0,0,0,0,1,main,1,22,female,mixed,at home,2021-07-02_08h35.44.015,ImageRatingTask_S4,2021.1.4,MacIntel,58.82352941,,,,,,,,,
,,,,,,,,,,,,0,1,1,1,1,second,1,22,female,mixed,at home,2021-07-02_08h35.44.015,ImageRatingTask_S4,2021.1.4,MacIntel,58.82352941,,,,,,,,,
,,,,,,,,,,,,0,2,2,2,1,third,1,22,female,mixed,at home,2021-07-02_08h35.44.015,ImageRatingTask_S4,2021.1.4,MacIntel,58.82352941,,,,,,,,,
,,,,,,,,,,,,0,3,3,3,1,fourth,1,22,female,mixed,at home,2021-07-02_08h35.44.015,ImageRatingTask_S4,2021.1.4,MacIntel,58.82352941,,,,,,,,,
,,,,,,,,,,,,0,4,4,4,1,fifth,1,22,female,mixed,at home,2021-07-02_08h35.44.015,ImageRatingTask_S4,2021.1.4,MacIntel,58.82352941,,,,,,,,,
,,,,,,,,,,,,0,5,5,5,1,sixth,1,22,female,mixed,at home,2021-07-02_08h35.44.015,ImageRatingTask_S4,2021.1.4,MacIntel,58.82352941,,,,,,,,,
,,,,,,,,,,,,0,6,6,6,1,seventh,1,22,female,mixed,at home,2021-07-02_08h35.44.015,ImageRatingTask_S4,2021.1.4,MacIntel,58.82352941,,,,,,,,,
,,,,,,,,,,,,0,7,7,7,1,last,1,22,female,mixed,at home,2021-07-02_08h35.44.015,ImageRatingTask_S4,2021.1.4,MacIntel,58.82352941,,,,,,,,,
,,,,,,,,,,,,,,,,,,1,22,female,mixed,at home,2021-07-02_08h35.44.015,ImageRatingTask_S4,2021.1.4,MacIntel,58.82352941,0,33,33,18,1,DreamStudyImages_rs1000x750g/Mammals/Animals_164_h.jpg,,,
,,4,4.618,2,1.268,9,1.383,1,1.133,3,1.03,0,0,0,0,1,main,1,22,female,mixed,at home,2021-07-02_08h35.44.015,ImageRatingTask_S4,2021.1.4,MacIntel,58.82352941,,,,,,,,,
,,,,,,,,,,,,0,1,1,1,1,second,1,22,female,mixed,at home,2021-07-02_08h35.44.015,ImageRatingTask_S4,2021.1.4,MacIntel,58.82352941,,,,,,,,,
,,,,,,,,,,,,0,2,2,2,1,third,1,22,female,mixed,at home,2021-07-02_08h35.44.015,ImageRatingTask_S4,2021.1.4,MacIntel,58.82352941,,,,,,,,,
,,,,,,,,,,,,0,3,3,3,1,fourth,1,22,female,mixed,at home,2021-07-02_08h35.44.015,ImageRatingTask_S4,2021.1.4,MacIntel,58.82352941,,,,,,,,,
,,,,,,,,,,,,0,4,4,4,1,fifth,1,22,female,mixed,at home,2021-07-02_08h35.44.015,ImageRatingTask_S4,2021.1.4,MacIntel,58.82352941,,,,,,,,,
,,,,,,,,,,,,0,5,5,5,1,sixth,1,22,female,mixed,at home,2021-07-02_08h35.44.015,ImageRatingTask_S4,2021.1.4,MacIntel,58.82352941,,,,,,,,,
,,,,,,,,,,,,0,6,6,6,1,seventh,1,22,female,mixed,at home,2021-07-02_08h35.44.015,ImageRatingTask_S4,2021.1.4,MacIntel,58.82352941,,,,,,,,,
,,,,,,,,,,,,0,7,7,7,1,last,1,22,female,mixed,at home,2021-07-02_08h35.44.015,ImageRatingTask_S4,2021.1.4,MacIntel,58.82352941,,,,,,,,,
,,,,,,,,,,,,,,,,,,1,22,female,mixed,at home,2021-07-02_08h35.44.015,ImageRatingTask_S4,2021.1.4,MacIntel,58.82352941,0,34,34,6,1,DreamStudyImages_rs1000x750g/Mammals/Animals_202_h.jpg,,,
,,6,2.49,2,1.335,5,4.667,2,2.37,7,0.939,0,0,0,0,1,main,1,22,female,mixed,at home,2021-07-02_08h35.44.015,ImageRatingTask_S4,2021.1.4,MacIntel,58.82352941,,,,,,,,,
,,,,,,,,,,1,0.971,0,1,1,1,1,second,1,22,female,mixed,at home,2021-07-02_08h35.44.015,ImageRatingTask_S4,2021.1.4,MacIntel,58.82352941,,,,,,,,,
,,,,,,,,,,,,0,2,2,2,1,third,1,22,female,mixed,at home,2021-07-02_08h35.44.015,ImageRatingTask_S4,2021.1.4,MacIntel,58.82352941,,,,,,,,,
,,,,,,,,,,,,0,3,3,3,1,fourth,1,22,female,mixed,at home,2021-07-02_08h35.44.015,ImageRatingTask_S4,2021.1.4,MacIntel,58.82352941,,,,,,,,,
,,,,,,,,,,,,0,4,4,4,1,fifth,1,22,female,mixed,at home,2021-07-02_08h35.44.015,ImageRatingTask_S4,2021.1.4,MacIntel,58.82352941,,,,,,,,,
,,,,,,,,,,,,0,5,5,5,1,sixth,1,22,female,mixed,at home,2021-07-02_08h35.44.015,ImageRatingTask_S4,2021.1.4,MacIntel,58.82352941,,,,,,,,,
,,,,,,,,,,,,0,6,6,6,1,seventh,1,22,female,mixed,at home,2021-07-02_08h35.44.015,ImageRatingTask_S4,2021.1.4,MacIntel,58.82352941,,,,,,,,,
,,,,,,,,,,,,0,7,7,7,1,last,1,22,female,mixed,at home,2021-07-02_08h35.44.015,ImageRatingTask_S4,2021.1.4,MacIntel,58.82352941,,,,,,,,,
,,,,,,,,,,,,,,,,,,1,22,female,mixed,at home,2021-07-02_08h35.44.015,ImageRatingTask_S4,2021.1.4,MacIntel,58.82352941,0,35,35,42,1,DreamStudyImages_rs1000x750g/Vehicles/Road 1.jpg,,,
,,7,2.569,2,2.473,4,1.924,2,6.92,8,1.042,0,0,0,0,1,main,1,22,female,mixed,at home,2021-07-02_08h35.44.015,ImageRatingTask_S4,2021.1.4,MacIntel,58.82352941,,,,,,,,,
,,,,,,,,,,7,1.538,0,1,1,1,1,second,1,22,female,mixed,at home,2021-07-02_08h35.44.015,ImageRatingTask_S4,2021.1.4,MacIntel,58.82352941,,,,,,,,,
,,,,,,,,,,,,0,2,2,2,1,third,1,22,female,mixed,at home,2021-07-02_08h35.44.015,ImageRatingTask_S4,2021.1.4,MacIntel,58.82352941,,,,,,,,,
,,,,,,,,,,,,0,3,3,3,1,fourth,1,22,female,mixed,at home,2021-07-02_08h35.44.015,ImageRatingTask_S4,2021.1.4,MacIntel,58.82352941,,,,,,,,,
,,,,,,,,,,,,0,4,4,4,1,fifth,1,22,female,mixed,at home,2021-07-02_08h35.44.015,ImageRatingTask_S4,2021.1.4,MacIntel,58.82352941,,,,,,,,,
,,,,,,,,,,,,0,5,5,5,1,sixth,1,22,female,mixed,at home,2021-07-02_08h35.44.015,ImageRatingTask_S4,2021.1.4,MacIntel,58.82352941,,,,,,,,,
,,,,,,,,,,,,0,6,6,6,1,seventh,1,22,female,mixed,at home,2021-07-02_08h35.44.015,ImageRatingTask_S4,2021.1.4,MacIntel,58.82352941,,,,,,,,,
,,,,,,,,,,,,0,7,7,7,1,last,1,22,female,mixed,at home,2021-07-02_08h35.44.015,ImageRatingTask_S4,2021.1.4,MacIntel,58.82352941,,,,,,,,,
,,,,,,,,,,,,,,,,,,1,22,female,mixed,at home,2021-07-02_08h35.44.015,ImageRatingTask_S4,2021.1.4,MacIntel,58.82352941,0,36,36,46,1,DreamStudyImages_rs1000x750g/Water/Lake 12.jpg,,,
,,6,2.453,2,13.273,7,2.649,1,1.851,3,1.375,0,0,0,0,1,main,1,22,female,mixed,at home,2021-07-02_08h35.44.015,ImageRatingTask_S4,2021.1.4,MacIntel,58.82352941,,,,,,,,,
,,,,,,,,,,,,0,1,1,1,1,second,1,22,female,mixed,at home,2021-07-02_08h35.44.015,ImageRatingTask_S4,2021.1.4,MacIntel,58.82352941,,,,,,,,,
,,,,,,,,,,,,0,2,2,2,1,third,1,22,female,mixed,at home,2021-07-02_08h35.44.015,ImageRatingTask_S4,2021.1.4,MacIntel,58.82352941,,,,,,,,,
,,,,,,,,,,,,0,3,3,3,1,fourth,1,22,female,mixed,at home,2021-07-02_08h35.44.015,ImageRatingTask_S4,2021.1.4,MacIntel,58.82352941,,,,,,,,,
,,,,,,,,,,,,0,4,4,4,1,fifth,1,22,female,mixed,at home,2021-07-02_08h35.44.015,ImageRatingTask_S4,2021.1.4,MacIntel,58.82352941,,,,,,,,,
,,,,,,,,,,,,0,5,5,5,1,sixth,1,22,female,mixed,at home,2021-07-02_08h35.44.015,ImageRatingTask_S4,2021.1.4,MacIntel,58.82352941,,,,,,,,,
,,,,,,,,,,,,0,6,6,6,1,seventh,1,22,female,mixed,at home,2021-07-02_08h35.44.015,ImageRatingTask_S4,2021.1.4,MacIntel,58.82352941,,,,,,,,,
,,,,,,,,,,,,0,7,7,7,1,last,1,22,female,mixed,at home,2021-07-02_08h35.44.015,ImageRatingTask_S4,2021.1.4,MacIntel,58.82352941,,,,,,,,,
,,,,,,,,,,,,,,,,,,1,22,female,mixed,at home,2021-07-02_08h35.44.015,ImageRatingTask_S4,2021.1.4,MacIntel,58.82352941,0,37,37,116,1,DreamStudyImages_rs1000x750g/Mammals/Elephant 1.jpg,,,
,,7,2.252,1,1.716,8,3.485,1,1.984,8,0.727,0,0,0,0,1,main,1,22,female,mixed,at home,2021-07-02_08h35.44.015,ImageRatingTask_S4,2021.1.4,MacIntel,58.82352941,,,,,,,,,
,,,,,,,,,,,,0,1,1,1,1,second,1,22,female,mixed,at home,2021-07-02_08h35.44.015,ImageRatingTask_S4,2021.1.4,MacIntel,58.82352941,,,,,,,,,
,,,,,,,,,,,,0,2,2,2,1,third,1,22,female,mixed,at home,2021-07-02_08h35.44.015,ImageRatingTask_S4,2021.1.4,MacIntel,58.82352941,,,,,,,,,
,,,,,,,,,,,,0,3,3,3,1,fourth,1,22,female,mixed,at home,2021-07-02_08h35.44.015,ImageRatingTask_S4,2021.1.4,MacIntel,58.82352941,,,,,,,,,
,,,,,,,,,,,,0,4,4,4,1,fifth,1,22,female,mixed,at home,2021-07-02_08h35.44.015,ImageRatingTask_S4,2021.1.4,MacIntel,58.82352941,,,,,,,,,
,,,,,,,,,,,,0,5,5,5,1,sixth,1,22,female,mixed,at home,2021-07-02_08h35.44.015,ImageRatingTask_S4,2021.1.4,MacIntel,58.82352941,,,,,,,,,
,,,,,,,,,,,,0,6,6,6,1,seventh,1,22,female,mixed,at home,2021-07-02_08h35.44.015,ImageRatingTask_S4,2021.1.4,MacIntel,58.82352941,,,,,,,,,
,,,,,,,,,,,,0,7,7,7,1,last,1,22,female,mixed,at home,2021-07-02_08h35.44.015,ImageRatingTask_S4,2021.1.4,MacIntel,58.82352941,,,,,,,,,
,,,,,,,,,,,,,,,,,,1,22,female,mixed,at home,2021-07-02_08h35.44.015,ImageRatingTask_S4,2021.1.4,MacIntel,58.82352941,0,38,38,95,1,DreamStudyImages_rs1000x750g/Water/Lake 16.jpg,,,
,,5,4.864,1,1.101,4,1.486,2,1.265,2,2.642,0,0,0,0,1,main,1,22,female,mixed,at home,2021-07-02_08h35.44.015,ImageRatingTask_S4,2021.1.4,MacIntel,58.82352941,,,,,,,,,
,,,,,,,,,,1,0.568,0,1,1,1,1,second,1,22,female,mixed,at home,2021-07-02_08h35.44.015,ImageRatingTask_S4,2021.1.4,MacIntel,58.82352941,,,,,,,,,
,,,,,,,,,,,,0,2,2,2,1,third,1,22,female,mixed,at home,2021-07-02_08h35.44.015,ImageRatingTask_S4,2021.1.4,MacIntel,58.82352941,,,,,,,,,
,,,,,,,,,,,,0,3,3,3,1,fourth,1,22,female,mixed,at home,2021-07-02_08h35.44.015,ImageRatingTask_S4,2021.1.4,MacIntel,58.82352941,,,,,,,,,
,,,,,,,,,,,,0,4,4,4,1,fifth,1,22,female,mixed,at home,2021-07-02_08h35.44.015,ImageRatingTask_S4,2021.1.4,MacIntel,58.82352941,,,,,,,,,
,,,,,,,,,,,,0,5,5,5,1,sixth,1,22,female,mixed,at home,2021-07-02_08h35.44.015,ImageRatingTask_S4,2021.1.4,MacIntel,58.82352941,,,,,,,,,
,,,,,,,,,,,,0,6,6,6,1,seventh,1,22,female,mixed,at home,2021-07-02_08h35.44.015,ImageRatingTask_S4,2021.1.4,MacIntel,58.82352941,,,,,,,,,
,,,,,,,,,,,,0,7,7,7,1,last,1,22,female,mixed,at home,2021-07-02_08h35.44.015,ImageRatingTask_S4,2021.1.4,MacIntel,58.82352941,,,,,,,,,
,,,,,,,,,,,,,,,,,,1,22,female,mixed,at home,2021-07-02_08h35.44.015,ImageRatingTask_S4,2021.1.4,MacIntel,58.82352941,0,39,39,142,1,DreamStudyImages_rs1000x750g/Children/IAPS2308_makeupgirl_humans.jpg,,,
,,7,2.817,2,1.982,9,1.767,1,1.251,5,1.026,0,0,0,0,1,main,1,22,female,mixed,at home,2021-07-02_08h35.44.015,ImageRatingTask_S4,2021.1.4,MacIntel,58.82352941,,,,,,,,,
,,,,,,,,,,,,0,1,1,1,1,second,1,22,female,mixed,at home,2021-07-02_08h35.44.015,ImageRatingTask_S4,2021.1.4,MacIntel,58.82352941,,,,,,,,,
,,,,,,,,,,,,0,2,2,2,1,third,1,22,female,mixed,at home,2021-07-02_08h35.44.015,ImageRatingTask_S4,2021.1.4,MacIntel,58.82352941,,,,,,,,,
,,,,,,,,,,,,0,3,3,3,1,fourth,1,22,female,mixed,at home,2021-07-02_08h35.44.015,ImageRatingTask_S4,2021.1.4,MacIntel,58.82352941,,,,,,,,,
,,,,,,,,,,,,0,4,4,4,1,fifth,1,22,female,mixed,at home,2021-07-02_08h35.44.015,ImageRatingTask_S4,2021.1.4,MacIntel,58.82352941,,,,,,,,,
,,,,,,,,,,,,0,5,5,5,1,sixth,1,22,female,mixed,at home,2021-07-02_08h35.44.015,ImageRatingTask_S4,2021.1.4,MacIntel,58.82352941,,,,,,,,,
,,,,,,,,,,,,0,6,6,6,1,seventh,1,22,female,mixed,at home,2021-07-02_08h35.44.015,ImageRatingTask_S4,2021.1.4,MacIntel,58.82352941,,,,,,,,,
,,,,,,,,,,,,0,7,7,7,1,last,1,22,female,mixed,at home,2021-07-02_08h35.44.015,ImageRatingTask_S4,2021.1.4,MacIntel,58.82352941,,,,,,,,,
,,,,,,,,,,,,,,,,,,1,22,female,mixed,at home,2021-07-02_08h35.44.015,ImageRatingTask_S4,2021.1.4,MacIntel,58.82352941,0,40,40,5,1,DreamStudyImages_rs1000x750g/Food/Objects_048_h.jpg,,,
,,6,4.266,2,1.525,3,2.193,1,0.87,5,0.771,0,0,0,0,1,main,1,22,female,mixed,at home,2021-07-02_08h35.44.015,ImageRatingTask_S4,2021.1.4,MacIntel,58.82352941,,,,,,,,,
,,,,,,,,,,,,0,1,1,1,1,second,1,22,female,mixed,at home,2021-07-02_08h35.44.015,ImageRatingTask_S4,2021.1.4,MacIntel,58.82352941,,,,,,,,,
,,,,,,,,,,,,0,2,2,2,1,third,1,22,female,mixed,at home,2021-07-02_08h35.44.015,ImageRatingTask_S4,2021.1.4,MacIntel,58.82352941,,,,,,,,,
,,,,,,,,,,,,0,3,3,3,1,fourth,1,22,female,mixed,at home,2021-07-02_08h35.44.015,ImageRatingTask_S4,2021.1.4,MacIntel,58.82352941,,,,,,,,,
,,,,,,,,,,,,0,4,4,4,1,fifth,1,22,female,mixed,at home,2021-07-02_08h35.44.015,ImageRatingTask_S4,2021.1.4,MacIntel,58.82352941,,,,,,,,,
,,,,,,,,,,,,0,5,5,5,1,sixth,1,22,female,mixed,at home,2021-07-02_08h35.44.015,ImageRatingTask_S4,2021.1.4,MacIntel,58.82352941,,,,,,,,,
,,,,,,,,,,,,0,6,6,6,1,seventh,1,22,female,mixed,at home,2021-07-02_08h35.44.015,ImageRatingTask_S4,2021.1.4,MacIntel,58.82352941,,,,,,,,,
,,,,,,,,,,,,0,7,7,7,1,last,1,22,female,mixed,at home,2021-07-02_08h35.44.015,ImageRatingTask_S4,2021.1.4,MacIntel,58.82352941,,,,,,,,,
,,,,,,,,,,,,,,,,,,1,22,female,mixed,at home,2021-07-02_08h35.44.015,ImageRatingTask_S4,2021.1.4,MacIntel,58.82352941,0,41,41,150,1,DreamStudyImages_rs1000x750g/Food/IAPS7282_pudding.jpg,,,
,,6,5.162,1,1.969,8,2.554,1,2.717,8,1.491,0,0,0,0,1,main,1,22,female,mixed,at home,2021-07-02_08h35.44.015,ImageRatingTask_S4,2021.1.4,MacIntel,58.82352941,,,,,,,,,
,,,,,,,,,,,,0,1,1,1,1,second,1,22,female,mixed,at home,2021-07-02_08h35.44.015,ImageRatingTask_S4,2021.1.4,MacIntel,58.82352941,,,,,,,,,
,,,,,,,,,,,,0,2,2,2,1,third,1,22,female,mixed,at home,2021-07-02_08h35.44.015,ImageRatingTask_S4,2021.1.4,MacIntel,58.82352941,,,,,,,,,
,,,,,,,,,,,,0,3,3,3,1,fourth,1,22,female,mixed,at home,2021-07-02_08h35.44.015,ImageRatingTask_S4,2021.1.4,MacIntel,58.82352941,,,,,,,,,
,,,,,,,,,,,,0,4,4,4,1,fifth,1,22,female,mixed,at home,2021-07-02_08h35.44.015,ImageRatingTask_S4,2021.1.4,MacIntel,58.82352941,,,,,,,,,
,,,,,,,,,,,,0,5,5,5,1,sixth,1,22,female,mixed,at home,2021-07-02_08h35.44.015,ImageRatingTask_S4,2021.1.4,MacIntel,58.82352941,,,,,,,,,
,,,,,,,,,,,,0,6,6,6,1,seventh,1,22,female,mixed,at home,2021-07-02_08h35.44.015,ImageRatingTask_S4,2021.1.4,MacIntel,58.82352941,,,,,,,,,
,,,,,,,,,,,,0,7,7,7,1,last,1,22,female,mixed,at home,2021-07-02_08h35.44.015,ImageRatingTask_S4,2021.1.4,MacIntel,58.82352941,,,,,,,,,
,,,,,,,,,,,,,,,,,,1,22,female,mixed,at home,2021-07-02_08h35.44.015,ImageRatingTask_S4,2021.1.4,MacIntel,58.82352941,0,42,42,24,1,DreamStudyImages_rs1000x750g/Water/Landscapes_164_h.jpg,,,
,,5,2.284,1,0.716,9,1.753,1,1.136,6,1.125,0,0,0,0,1,main,1,22,female,mixed,at home,2021-07-02_08h35.44.015,ImageRatingTask_S4,2021.1.4,MacIntel,58.82352941,,,,,,,,,
,,,,,,,,,,,,0,1,1,1,1,second,1,22,female,mixed,at home,2021-07-02_08h35.44.015,ImageRatingTask_S4,2021.1.4,MacIntel,58.82352941,,,,,,,,,
,,,,,,,,,,,,0,2,2,2,1,third,1,22,female,mixed,at home,2021-07-02_08h35.44.015,ImageRatingTask_S4,2021.1.4,MacIntel,58.82352941,,,,,,,,,
,,,,,,,,,,,,0,3,3,3,1,fourth,1,22,female,mixed,at home,2021-07-02_08h35.44.015,ImageRatingTask_S4,2021.1.4,MacIntel,58.82352941,,,,,,,,,
,,,,,,,,,,,,0,4,4,4,1,fifth,1,22,female,mixed,at home,2021-07-02_08h35.44.015,ImageRatingTask_S4,2021.1.4,MacIntel,58.82352941,,,,,,,,,
,,,,,,,,,,,,0,5,5,5,1,sixth,1,22,female,mixed,at home,2021-07-02_08h35.44.015,ImageRatingTask_S4,2021.1.4,MacIntel,58.82352941,,,,,,,,,
,,,,,,,,,,,,0,6,6,6,1,seventh,1,22,female,mixed,at home,2021-07-02_08h35.44.015,ImageRatingTask_S4,2021.1.4,MacIntel,58.82352941,,,,,,,,,
,,,,,,,,,,,,0,7,7,7,1,last,1,22,female,mixed,at home,2021-07-02_08h35.44.015,ImageRatingTask_S4,2021.1.4,MacIntel,58.82352941,,,,,,,,,
,,,,,,,,,,,,,,,,,,1,22,female,mixed,at home,2021-07-02_08h35.44.015,ImageRatingTask_S4,2021.1.4,MacIntel,58.82352941,0,43,43,66,1,DreamStudyImages_rs1000x750g/Houses/woodenshed.jpg,,,
,,5,3.896,1,1.034,7,1.951,1,0.836,5,0.474,0,0,0,0,1,main,1,22,female,mixed,at home,2021-07-02_08h35.44.015,ImageRatingTask_S4,2021.1.4,MacIntel,58.82352941,,,,,,,,,
,,,,,,,,,,,,0,1,1,1,1,second,1,22,female,mixed,at home,2021-07-02_08h35.44.015,ImageRatingTask_S4,2021.1.4,MacIntel,58.82352941,,,,,,,,,
,,,,,,,,,,,,0,2,2,2,1,third,1,22,female,mixed,at home,2021-07-02_08h35.44.015,ImageRatingTask_S4,2021.1.4,MacIntel,58.82352941,,,,,,,,,
,,,,,,,,,,,,0,3,3,3,1,fourth,1,22,female,mixed,at home,2021-07-02_08h35.44.015,ImageRatingTask_S4,2021.1.4,MacIntel,58.82352941,,,,,,,,,
,,,,,,,,,,,,0,4,4,4,1,fifth,1,22,female,mixed,at home,2021-07-02_08h35.44.015,ImageRatingTask_S4,2021.1.4,MacIntel,58.82352941,,,,,,,,,
,,,,,,,,,,,,0,5,5,5,1,sixth,1,22,female,mixed,at home,2021-07-02_08h35.44.015,ImageRatingTask_S4,2021.1.4,MacIntel,58.82352941,,,,,,,,,
,,,,,,,,,,,,0,6,6,6,1,seventh,1,22,female,mixed,at home,2021-07-02_08h35.44.015,ImageRatingTask_S4,2021.1.4,MacIntel,58.82352941,,,,,,,,,
,,,,,,,,,,,,0,7,7,7,1,last,1,22,female,mixed,at home,2021-07-02_08h35.44.015,ImageRatingTask_S4,2021.1.4,MacIntel,58.82352941,,,,,,,,,
,,,,,,,,,,,,,,,,,,1,22,female,mixed,at home,2021-07-02_08h35.44.015,ImageRatingTask_S4,2021.1.4,MacIntel,58.82352941,0,44,44,84,1,DreamStudyImages_rs1000x750g/Food/Objects_054_h.jpg,,,
,,5,3.628,1,0.584,8,1.868,1,0.768,8,1.108,0,0,0,0,1,main,1,22,female,mixed,at home,2021-07-02_08h35.44.015,ImageRatingTask_S4,2021.1.4,MacIntel,58.82352941,,,,,,,,,
,,,,,,,,,,,,0,1,1,1,1,second,1,22,female,mixed,at home,2021-07-02_08h35.44.015,ImageRatingTask_S4,2021.1.4,MacIntel,58.82352941,,,,,,,,,
,,,,,,,,,,,,0,2,2,2,1,third,1,22,female,mixed,at home,2021-07-02_08h35.44.015,ImageRatingTask_S4,2021.1.4,MacIntel,58.82352941,,,,,,,,,
,,,,,,,,,,,,0,3,3,3,1,fourth,1,22,female,mixed,at home,2021-07-02_08h35.44.015,ImageRatingTask_S4,2021.1.4,MacIntel,58.82352941,,,,,,,,,
,,,,,,,,,,,,0,4,4,4,1,fifth,1,22,female,mixed,at home,2021-07-02_08h35.44.015,ImageRatingTask_S4,2021.1.4,MacIntel,58.82352941,,,,,,,,,
,,,,,,,,,,,,0,5,5,5,1,sixth,1,22,female,mixed,at home,2021-07-02_08h35.44.015,ImageRatingTask_S4,2021.1.4,MacIntel,58.82352941,,,,,,,,,
,,,,,,,,,,,,0,6,6,6,1,seventh,1,22,female,mixed,at home,2021-07-02_08h35.44.015,ImageRatingTask_S4,2021.1.4,MacIntel,58.82352941,,,,,,,,,
,,,,,,,,,,,,0,7,7,7,1,last,1,22,female,mixed,at home,2021-07-02_08h35.44.015,ImageRatingTask_S4,2021.1.4,MacIntel,58.82352941,,,,,,,,,
,,,,,,,,,,,,,,,,,,1,22,female,mixed,at home,2021-07-02_08h35.44.015,ImageRatingTask_S4,2021.1.4,MacIntel,58.82352941,0,45,45,41,1,DreamStudyImages_rs1000x750g/Water/Landscapes_155_h.jpg,,,
,,4,2.138,2,1.119,8,3.735,1,1.885,6,1.442,0,0,0,0,1,main,1,22,female,mixed,at home,2021-07-02_08h35.44.015,ImageRatingTask_S4,2021.1.4,MacIntel,58.82352941,,,,,,,,,
,,,,,,,,,,,,0,1,1,1,1,second,1,22,female,mixed,at home,2021-07-02_08h35.44.015,ImageRatingTask_S4,2021.1.4,MacIntel,58.82352941,,,,,,,,,
,,,,,,,,,,,,0,2,2,2,1,third,1,22,female,mixed,at home,2021-07-02_08h35.44.015,ImageRatingTask_S4,2021.1.4,MacIntel,58.82352941,,,,,,,,,
,,,,,,,,,,,,0,3,3,3,1,fourth,1,22,female,mixed,at home,2021-07-02_08h35.44.015,ImageRatingTask_S4,2021.1.4,MacIntel,58.82352941,,,,,,,,,
,,,,,,,,,,,,0,4,4,4,1,fifth,1,22,female,mixed,at home,2021-07-02_08h35.44.015,ImageRatingTask_S4,2021.1.4,MacIntel,58.82352941,,,,,,,,,
,,,,,,,,,,,,0,5,5,5,1,sixth,1,22,female,mixed,at home,2021-07-02_08h35.44.015,ImageRatingTask_S4,2021.1.4,MacIntel,58.82352941,,,,,,,,,
,,,,,,,,,,,,0,6,6,6,1,seventh,1,22,female,mixed,at home,2021-07-02_08h35.44.015,ImageRatingTask_S4,2021.1.4,MacIntel,58.82352941,,,,,,,,,
,,,,,,,,,,,,0,7,7,7,1,last,1,22,female,mixed,at home,2021-07-02_08h35.44.015,ImageRatingTask_S4,2021.1.4,MacIntel,58.82352941,,,,,,,,,
,,,,,,,,,,,,,,,,,,1,22,female,mixed,at home,2021-07-02_08h35.44.015,ImageRatingTask_S4,2021.1.4,MacIntel,58.82352941,0,46,46,70,1,DreamStudyImages_rs1000x750g/Houses/Objects_116_v.jpg,,,
,,3,2.512,4,2.387,7,1.701,2,3.836,8,2.725,0,0,0,0,1,main,1,22,female,mixed,at home,2021-07-02_08h35.44.015,ImageRatingTask_S4,2021.1.4,MacIntel,58.82352941,,,,,,,,,
,,,,,,,,,,6,1.637,0,1,1,1,1,second,1,22,female,mixed,at home,2021-07-02_08h35.44.015,ImageRatingTask_S4,2021.1.4,MacIntel,58.82352941,,,,,,,,,
,,,,,,,,,,,,0,2,2,2,1,third,1,22,female,mixed,at home,2021-07-02_08h35.44.015,ImageRatingTask_S4,2021.1.4,MacIntel,58.82352941,,,,,,,,,
,,,,,,,,,,,,0,3,3,3,1,fourth,1,22,female,mixed,at home,2021-07-02_08h35.44.015,ImageRatingTask_S4,2021.1.4,MacIntel,58.82352941,,,,,,,,,
,,,,,,,,,,,,0,4,4,4,1,fifth,1,22,female,mixed,at home,2021-07-02_08h35.44.015,ImageRatingTask_S4,2021.1.4,MacIntel,58.82352941,,,,,,,,,
,,,,,,,,,,,,0,5,5,5,1,sixth,1,22,female,mixed,at home,2021-07-02_08h35.44.015,ImageRatingTask_S4,2021.1.4,MacIntel,58.82352941,,,,,,,,,
,,,,,,,,,,,,0,6,6,6,1,seventh,1,22,female,mixed,at home,2021-07-02_08h35.44.015,ImageRatingTask_S4,2021.1.4,MacIntel,58.82352941,,,,,,,,,
,,,,,,,,,,,,0,7,7,7,1,last,1,22,female,mixed,at home,2021-07-02_08h35.44.015,ImageRatingTask_S4,2021.1.4,MacIntel,58.82352941,,,,,,,,,
,,,,,,,,,,,,,,,,,,1,22,female,mixed,at home,2021-07-02_08h35.44.015,ImageRatingTask_S4,2021.1.4,MacIntel,58.82352941,0,47,47,14,1,DreamStudyImages_rs1000x750g/Water/Flood 2.jpg,,,
,,6,3.703,1,0.75,7,3.37,1,1.151,8,0.974,0,0,0,0,1,main,1,22,female,mixed,at home,2021-07-02_08h35.44.015,ImageRatingTask_S4,2021.1.4,MacIntel,58.82352941,,,,,,,,,
,,,,,,,,,,,,0,1,1,1,1,second,1,22,female,mixed,at home,2021-07-02_08h35.44.015,ImageRatingTask_S4,2021.1.4,MacIntel,58.82352941,,,,,,,,,
,,,,,,,,,,,,0,2,2,2,1,third,1,22,female,mixed,at home,2021-07-02_08h35.44.015,ImageRatingTask_S4,2021.1.4,MacIntel,58.82352941,,,,,,,,,
,,,,,,,,,,,,0,3,3,3,1,fourth,1,22,female,mixed,at home,2021-07-02_08h35.44.015,ImageRatingTask_S4,2021.1.4,MacIntel,58.82352941,,,,,,,,,
,,,,,,,,,,,,0,4,4,4,1,fifth,1,22,female,mixed,at home,2021-07-02_08h35.44.015,ImageRatingTask_S4,2021.1.4,MacIntel,58.82352941,,,,,,,,,
,,,,,,,,,,,,0,5,5,5,1,sixth,1,22,female,mixed,at home,2021-07-02_08h35.44.015,ImageRatingTask_S4,2021.1.4,MacIntel,58.82352941,,,,,,,,,
,,,,,,,,,,,,0,6,6,6,1,seventh,1,22,female,mixed,at home,2021-07-02_08h35.44.015,ImageRatingTask_S4,2021.1.4,MacIntel,58.82352941,,,,,,,,,
,,,,,,,,,,,,0,7,7,7,1,last,1,22,female,mixed,at home,2021-07-02_08h35.44.015,ImageRatingTask_S4,2021.1.4,MacIntel,58.82352941,,,,,,,,,
,,,,,,,,,,,,,,,,,,1,22,female,mixed,at home,2021-07-02_08h35.44.015,ImageRatingTask_S4,2021.1.4,MacIntel,58.82352941,0,48,48,56,1,DreamStudyImages_rs1000x750g/Water/Lake 7.jpg,,,
,,6,2.156,2,1.417,6,5.121,1,0.649,2,0.943,0,0,0,0,1,main,1,22,female,mixed,at home,2021-07-02_08h35.44.015,ImageRatingTask_S4,2021.1.4,MacIntel,58.82352941,,,,,,,,,
,,,,,,,,,,,,0,1,1,1,1,second,1,22,female,mixed,at home,2021-07-02_08h35.44.015,ImageRatingTask_S4,2021.1.4,MacIntel,58.82352941,,,,,,,,,
,,,,,,,,,,,,0,2,2,2,1,third,1,22,female,mixed,at home,2021-07-02_08h35.44.015,ImageRatingTask_S4,2021.1.4,MacIntel,58.82352941,,,,,,,,,
,,,,,,,,,,,,0,3,3,3,1,fourth,1,22,female,mixed,at home,2021-07-02_08h35.44.015,ImageRatingTask_S4,2021.1.4,MacIntel,58.82352941,,,,,,,,,
,,,,,,,,,,,,0,4,4,4,1,fifth,1,22,female,mixed,at home,2021-07-02_08h35.44.015,ImageRatingTask_S4,2021.1.4,MacIntel,58.82352941,,,,,,,,,
,,,,,,,,,,,,0,5,5,5,1,sixth,1,22,female,mixed,at home,2021-07-02_08h35.44.015,ImageRatingTask_S4,2021.1.4,MacIntel,58.82352941,,,,,,,,,
,,,,,,,,,,,,0,6,6,6,1,seventh,1,22,female,mixed,at home,2021-07-02_08h35.44.015,ImageRatingTask_S4,2021.1.4,MacIntel,58.82352941,,,,,,,,,
,,,,,,,,,,,,0,7,7,7,1,last,1,22,female,mixed,at home,2021-07-02_08h35.44.015,ImageRatingTask_S4,2021.1.4,MacIntel,58.82352941,,,,,,,,,
,,,,,,,,,,,,,,,,,,1,22,female,mixed,at home,2021-07-02_08h35.44.015,ImageRatingTask_S4,2021.1.4,MacIntel,58.82352941,0,49,49,21,1,DreamStudyImages_rs1000x750g/Children/2071.jpg,,,
,,6,4.125,1,1.318,8,4.653,1,1.051,5,0.691,0,0,0,0,1,main,1,22,female,mixed,at home,2021-07-02_08h35.44.015,ImageRatingTask_S4,2021.1.4,MacIntel,58.82352941,,,,,,,,,
,,,,,,,,,,,,0,1,1,1,1,second,1,22,female,mixed,at home,2021-07-02_08h35.44.015,ImageRatingTask_S4,2021.1.4,MacIntel,58.82352941,,,,,,,,,
,,,,,,,,,,,,0,2,2,2,1,third,1,22,female,mixed,at home,2021-07-02_08h35.44.015,ImageRatingTask_S4,2021.1.4,MacIntel,58.82352941,,,,,,,,,
,,,,,,,,,,,,0,3,3,3,1,fourth,1,22,female,mixed,at home,2021-07-02_08h35.44.015,ImageRatingTask_S4,2021.1.4,MacIntel,58.82352941,,,,,,,,,
,,,,,,,,,,,,0,4,4,4,1,fifth,1,22,female,mixed,at home,2021-07-02_08h35.44.015,ImageRatingTask_S4,2021.1.4,MacIntel,58.82352941,,,,,,,,,
,,,,,,,,,,,,0,5,5,5,1,sixth,1,22,female,mixed,at home,2021-07-02_08h35.44.015,ImageRatingTask_S4,2021.1.4,MacIntel,58.82352941,,,,,,,,,
,,,,,,,,,,,,0,6,6,6,1,seventh,1,22,female,mixed,at home,2021-07-02_08h35.44.015,ImageRatingTask_S4,2021.1.4,MacIntel,58.82352941,,,,,,,,,
,,,,,,,,,,,,0,7,7,7,1,last,1,22,female,mixed,at home,2021-07-02_08h35.44.015,ImageRatingTask_S4,2021.1.4,MacIntel,58.82352941,,,,,,,,,
,,,,,,,,,,,,,,,,,,1,22,female,mixed,at home,2021-07-02_08h35.44.015,ImageRatingTask_S4,2021.1.4,MacIntel,58.82352941,0,50,50,151,1,DreamStudyImages_rs1000x750g/Food/Objects_063_v.jpg,,,
,,4,2.175,3,1.451,4,1.618,1,1.602,2,0.759,0,0,0,0,1,main,1,22,female,mixed,at home,2021-07-02_08h35.44.015,ImageRatingTask_S4,2021.1.4,MacIntel,58.82352941,,,,,,,,,
,,,,,,,,,,,,0,1,1,1,1,second,1,22,female,mixed,at home,2021-07-02_08h35.44.015,ImageRatingTask_S4,2021.1.4,MacIntel,58.82352941,,,,,,,,,
,,,,,,,,,,,,0,2,2,2,1,third,1,22,female,mixed,at home,2021-07-02_08h35.44.015,ImageRatingTask_S4,2021.1.4,MacIntel,58.82352941,,,,,,,,,
,,,,,,,,,,,,0,3,3,3,1,fourth,1,22,female,mixed,at home,2021-07-02_08h35.44.015,ImageRatingTask_S4,2021.1.4,MacIntel,58.82352941,,,,,,,,,
,,,,,,,,,,,,0,4,4,4,1,fifth,1,22,female,mixed,at home,2021-07-02_08h35.44.015,ImageRatingTask_S4,2021.1.4,MacIntel,58.82352941,,,,,,,,,
,,,,,,,,,,,,0,5,5,5,1,sixth,1,22,female,mixed,at home,2021-07-02_08h35.44.015,ImageRatingTask_S4,2021.1.4,MacIntel,58.82352941,,,,,,,,,
,,,,,,,,,,,,0,6,6,6,1,seventh,1,22,female,mixed,at home,2021-07-02_08h35.44.015,ImageRatingTask_S4,2021.1.4,MacIntel,58.82352941,,,,,,,,,
,,,,,,,,,,,,0,7,7,7,1,last,1,22,female,mixed,at home,2021-07-02_08h35.44.015,ImageRatingTask_S4,2021.1.4,MacIntel,58.82352941,,,,,,,,,
,,,,,,,,,,,,,,,,,,1,22,female,mixed,at home,2021-07-02_08h35.44.015,ImageRatingTask_S4,2021.1.4,MacIntel,58.82352941,0,51,51,89,1,DreamStudyImages_rs1000x750g/Children/IAPS2276_girl3.jpg,,,
,,5,5.537,1,0.633,7,4.885,0,2.069,,,0,0,0,0,1,main,1,22,female,mixed,at home,2021-07-02_08h35.44.015,ImageRatingTask_S4,2021.1.4,MacIntel,58.82352941,,,,,,,,,
,,,,,,,,,,,,0,1,1,1,1,second,1,22,female,mixed,at home,2021-07-02_08h35.44.015,ImageRatingTask_S4,2021.1.4,MacIntel,58.82352941,,,,,,,,,
,,,,,,,,,,,,0,2,2,2,1,third,1,22,female,mixed,at home,2021-07-02_08h35.44.015,ImageRatingTask_S4,2021.1.4,MacIntel,58.82352941,,,,,,,,,
,,,,,,,,,,,,0,3,3,3,1,fourth,1,22,female,mixed,at home,2021-07-02_08h35.44.015,ImageRatingTask_S4,2021.1.4,MacIntel,58.82352941,,,,,,,,,
,,,,,,,,,,,,0,4,4,4,1,fifth,1,22,female,mixed,at home,2021-07-02_08h35.44.015,ImageRatingTask_S4,2021.1.4,MacIntel,58.82352941,,,,,,,,,
,,,,,,,,,,,,0,5,5,5,1,sixth,1,22,female,mixed,at home,2021-07-02_08h35.44.015,ImageRatingTask_S4,2021.1.4,MacIntel,58.82352941,,,,,,,,,
,,,,,,,,,,,,0,6,6,6,1,seventh,1,22,female,mixed,at home,2021-07-02_08h35.44.015,ImageRatingTask_S4,2021.1.4,MacIntel,58.82352941,,,,,,,,,
,,,,,,,,,,,,0,7,7,7,1,last,1,22,female,mixed,at home,2021-07-02_08h35.44.015,ImageRatingTask_S4,2021.1.4,MacIntel,58.82352941,,,,,,,,,
,,,,,,,,,,,,,,,,,,1,22,female,mixed,at home,2021-07-02_08h35.44.015,ImageRatingTask_S4,2021.1.4,MacIntel,58.82352941,0,52,52,8,1,DreamStudyImages_rs1000x750g/Houses/Skyscraper 1.jpg,,,
,,7,4.281,2,3.533,8,2.601,1,1.418,5,0.674,0,0,0,0,1,main,1,22,female,mixed,at home,2021-07-02_08h35.44.015,ImageRatingTask_S4,2021.1.4,MacIntel,58.82352941,,,,,,,,,
,,,,,,,,,,,,0,1,1,1,1,second,1,22,female,mixed,at home,2021-07-02_08h35.44.015,ImageRatingTask_S4,2021.1.4,MacIntel,58.82352941,,,,,,,,,
,,,,,,,,,,,,0,2,2,2,1,third,1,22,female,mixed,at home,2021-07-02_08h35.44.015,ImageRatingTask_S4,2021.1.4,MacIntel,58.82352941,,,,,,,,,
,,,,,,,,,,,,0,3,3,3,1,fourth,1,22,female,mixed,at home,2021-07-02_08h35.44.015,ImageRatingTask_S4,2021.1.4,MacIntel,58.82352941,,,,,,,,,
,,,,,,,,,,,,0,4,4,4,1,fifth,1,22,female,mixed,at home,2021-07-02_08h35.44.015,ImageRatingTask_S4,2021.1.4,MacIntel,58.82352941,,,,,,,,,
,,,,,,,,,,,,0,5,5,5,1,sixth,1,22,female,mixed,at home,2021-07-02_08h35.44.015,ImageRatingTask_S4,2021.1.4,MacIntel,58.82352941,,,,,,,,,
,,,,,,,,,,,,0,6,6,6,1,seventh,1,22,female,mixed,at home,2021-07-02_08h35.44.015,ImageRatingTask_S4,2021.1.4,MacIntel,58.82352941,,,,,,,,,
,,,,,,,,,,,,0,7,7,7,1,last,1,22,female,mixed,at home,2021-07-02_08h35.44.015,ImageRatingTask_S4,2021.1.4,MacIntel,58.82352941,,,,,,,,,
,,,,,,,,,,,,,,,,,,1,22,female,mixed,at home,2021-07-02_08h35.44.015,ImageRatingTask_S4,2021.1.4,MacIntel,58.82352941,0,53,53,140,1,DreamStudyImages_rs1000x750g/Food/Objects_058_h.jpg,,,
,,3,3.396,3,1.8,7,2.1,1,1.174,3,1.801,0,0,0,0,1,main,1,22,female,mixed,at home,2021-07-02_08h35.44.015,ImageRatingTask_S4,2021.1.4,MacIntel,58.82352941,,,,,,,,,
,,,,,,,,,,,,0,1,1,1,1,second,1,22,female,mixed,at home,2021-07-02_08h35.44.015,ImageRatingTask_S4,2021.1.4,MacIntel,58.82352941,,,,,,,,,
,,,,,,,,,,,,0,2,2,2,1,third,1,22,female,mixed,at home,2021-07-02_08h35.44.015,ImageRatingTask_S4,2021.1.4,MacIntel,58.82352941,,,,,,,,,
,,,,,,,,,,,,0,3,3,3,1,fourth,1,22,female,mixed,at home,2021-07-02_08h35.44.015,ImageRatingTask_S4,2021.1.4,MacIntel,58.82352941,,,,,,,,,
,,,,,,,,,,,,0,4,4,4,1,fifth,1,22,female,mixed,at home,2021-07-02_08h35.44.015,ImageRatingTask_S4,2021.1.4,MacIntel,58.82352941,,,,,,,,,
,,,,,,,,,,,,0,5,5,5,1,sixth,1,22,female,mixed,at home,2021-07-02_08h35.44.015,ImageRatingTask_S4,2021.1.4,MacIntel,58.82352941,,,,,,,,,
,,,,,,,,,,,,0,6,6,6,1,seventh,1,22,female,mixed,at home,2021-07-02_08h35.44.015,ImageRatingTask_S4,2021.1.4,MacIntel,58.82352941,,,,,,,,,
,,,,,,,,,,,,0,7,7,7,1,last,1,22,female,mixed,at home,2021-07-02_08h35.44.015,ImageRatingTask_S4,2021.1.4,MacIntel,58.82352941,,,,,,,,,
,,,,,,,,,,,,,,,,,,1,22,female,mixed,at home,2021-07-02_08h35.44.015,ImageRatingTask_S4,2021.1.4,MacIntel,58.82352941,0,54,54,109,1,DreamStudyImages_rs1000x750g/Mammals/IAPS1505_dog7.jpg,,,
,,5,2.011,1,0.599,9,2.985,1,0.934,8,0.926,0,0,0,0,1,main,1,22,female,mixed,at home,2021-07-02_08h35.44.015,ImageRatingTask_S4,2021.1.4,MacIntel,58.82352941,,,,,,,,,
,,,,,,,,,,,,0,1,1,1,1,second,1,22,female,mixed,at home,2021-07-02_08h35.44.015,ImageRatingTask_S4,2021.1.4,MacIntel,58.82352941,,,,,,,,,
,,,,,,,,,,,,0,2,2,2,1,third,1,22,female,mixed,at home,2021-07-02_08h35.44.015,ImageRatingTask_S4,2021.1.4,MacIntel,58.82352941,,,,,,,,,
,,,,,,,,,,,,0,3,3,3,1,fourth,1,22,female,mixed,at home,2021-07-02_08h35.44.015,ImageRatingTask_S4,2021.1.4,MacIntel,58.82352941,,,,,,,,,
,,,,,,,,,,,,0,4,4,4,1,fifth,1,22,female,mixed,at home,2021-07-02_08h35.44.015,ImageRatingTask_S4,2021.1.4,MacIntel,58.82352941,,,,,,,,,
,,,,,,,,,,,,0,5,5,5,1,sixth,1,22,female,mixed,at home,2021-07-02_08h35.44.015,ImageRatingTask_S4,2021.1.4,MacIntel,58.82352941,,,,,,,,,
,,,,,,,,,,,,0,6,6,6,1,seventh,1,22,female,mixed,at home,2021-07-02_08h35.44.015,ImageRatingTask_S4,2021.1.4,MacIntel,58.82352941,,,,,,,,,
,,,,,,,,,,,,0,7,7,7,1,last,1,22,female,mixed,at home,2021-07-02_08h35.44.015,ImageRatingTask_S4,2021.1.4,MacIntel,58.82352941,,,,,,,,,
,,,,,,,,,,,,,,,,,,1,22,female,mixed,at home,2021-07-02_08h35.44.015,ImageRatingTask_S4,2021.1.4,MacIntel,58.82352941,0,55,55,35,1,DreamStudyImages_rs1000x750g/Water/Landscapes_111_h.jpg,,,
,,4,3.099,3,2.472,9,3.376,2,2.001,2,1.561,0,0,0,0,1,main,1,22,female,mixed,at home,2021-07-02_08h35.44.015,ImageRatingTask_S4,2021.1.4,MacIntel,58.82352941,,,,,,,,,
,,,,,,,,,,1,0.417,0,1,1,1,1,second,1,22,female,mixed,at home,2021-07-02_08h35.44.015,ImageRatingTask_S4,2021.1.4,MacIntel,58.82352941,,,,,,,,,
,,,,,,,,,,,,0,2,2,2,1,third,1,22,female,mixed,at home,2021-07-02_08h35.44.015,ImageRatingTask_S4,2021.1.4,MacIntel,58.82352941,,,,,,,,,
,,,,,,,,,,,,0,3,3,3,1,fourth,1,22,female,mixed,at home,2021-07-02_08h35.44.015,ImageRatingTask_S4,2021.1.4,MacIntel,58.82352941,,,,,,,,,
,,,,,,,,,,,,0,4,4,4,1,fifth,1,22,female,mixed,at home,2021-07-02_08h35.44.015,ImageRatingTask_S4,2021.1.4,MacIntel,58.82352941,,,,,,,,,
,,,,,,,,,,,,0,5,5,5,1,sixth,1,22,female,mixed,at home,2021-07-02_08h35.44.015,ImageRatingTask_S4,2021.1.4,MacIntel,58.82352941,,,,,,,,,
,,,,,,,,,,,,0,6,6,6,1,seventh,1,22,female,mixed,at home,2021-07-02_08h35.44.015,ImageRatingTask_S4,2021.1.4,MacIntel,58.82352941,,,,,,,,,
,,,,,,,,,,,,0,7,7,7,1,last,1,22,female,mixed,at home,2021-07-02_08h35.44.015,ImageRatingTask_S4,2021.1.4,MacIntel,58.82352941,,,,,,,,,
,,,,,,,,,,,,,,,,,,1,22,female,mixed,at home,2021-07-02_08h35.44.015,ImageRatingTask_S4,2021.1.4,MacIntel,58.82352941,0,56,56,120,1,DreamStudyImages_rs1000x750g/Children/Faces_019_h.jpg,,,
,,5,1.304,1,0.564,9,1.869,1,0.898,7,0.798,0,0,0,0,1,main,1,22,female,mixed,at home,2021-07-02_08h35.44.015,ImageRatingTask_S4,2021.1.4,MacIntel,58.82352941,,,,,,,,,
,,,,,,,,,,,,0,1,1,1,1,second,1,22,female,mixed,at home,2021-07-02_08h35.44.015,ImageRatingTask_S4,2021.1.4,MacIntel,58.82352941,,,,,,,,,
,,,,,,,,,,,,0,2,2,2,1,third,1,22,female,mixed,at home,2021-07-02_08h35.44.015,ImageRatingTask_S4,2021.1.4,MacIntel,58.82352941,,,,,,,,,
,,,,,,,,,,,,0,3,3,3,1,fourth,1,22,female,mixed,at home,2021-07-02_08h35.44.015,ImageRatingTask_S4,2021.1.4,MacIntel,58.82352941,,,,,,,,,
,,,,,,,,,,,,0,4,4,4,1,fifth,1,22,female,mixed,at home,2021-07-02_08h35.44.015,ImageRatingTask_S4,2021.1.4,MacIntel,58.82352941,,,,,,,,,
,,,,,,,,,,,,0,5,5,5,1,sixth,1,22,female,mixed,at home,2021-07-02_08h35.44.015,ImageRatingTask_S4,2021.1.4,MacIntel,58.82352941,,,,,,,,,
,,,,,,,,,,,,0,6,6,6,1,seventh,1,22,female,mixed,at home,2021-07-02_08h35.44.015,ImageRatingTask_S4,2021.1.4,MacIntel,58.82352941,,,,,,,,,
,,,,,,,,,,,,0,7,7,7,1,last,1,22,female,mixed,at home,2021-07-02_08h35.44.015,ImageRatingTask_S4,2021.1.4,MacIntel,58.82352941,,,,,,,,,
,,,,,,,,,,,,,,,,,,1,22,female,mixed,at home,2021-07-02_08h35.44.015,ImageRatingTask_S4,2021.1.4,MacIntel,58.82352941,0,57,57,152,1,DreamStudyImages_rs1000x750g/Vehicles/quad.jpg,,,
,,5,4.803,1,1.851,7,1.567,0,5.635,,,0,0,0,0,1,main,1,22,female,mixed,at home,2021-07-02_08h35.44.015,ImageRatingTask_S4,2021.1.4,MacIntel,58.82352941,,,,,,,,,
,,,,,,,,,,,,0,1,1,1,1,second,1,22,female,mixed,at home,2021-07-02_08h35.44.015,ImageRatingTask_S4,2021.1.4,MacIntel,58.82352941,,,,,,,,,
,,,,,,,,,,,,0,2,2,2,1,third,1,22,female,mixed,at home,2021-07-02_08h35.44.015,ImageRatingTask_S4,2021.1.4,MacIntel,58.82352941,,,,,,,,,
,,,,,,,,,,,,0,3,3,3,1,fourth,1,22,female,mixed,at home,2021-07-02_08h35.44.015,ImageRatingTask_S4,2021.1.4,MacIntel,58.82352941,,,,,,,,,
,,,,,,,,,,,,0,4,4,4,1,fifth,1,22,female,mixed,at home,2021-07-02_08h35.44.015,ImageRatingTask_S4,2021.1.4,MacIntel,58.82352941,,,,,,,,,
,,,,,,,,,,,,0,5,5,5,1,sixth,1,22,female,mixed,at home,2021-07-02_08h35.44.015,ImageRatingTask_S4,2021.1.4,MacIntel,58.82352941,,,,,,,,,
,,,,,,,,,,,,0,6,6,6,1,seventh,1,22,female,mixed,at home,2021-07-02_08h35.44.015,ImageRatingTask_S4,2021.1.4,MacIntel,58.82352941,,,,,,,,,
,,,,,,,,,,,,0,7,7,7,1,last,1,22,female,mixed,at home,2021-07-02_08h35.44.015,ImageRatingTask_S4,2021.1.4,MacIntel,58.82352941,,,,,,,,,
,,,,,,,,,,,,,,,,,,1,22,female,mixed,at home,2021-07-02_08h35.44.015,ImageRatingTask_S4,2021.1.4,MacIntel,58.82352941,0,58,58,144,1,DreamStudyImages_rs1000x750g/Food/Objects_028_v.jpg,,,
,,5,4.221,1,0.616,5,2.068,0,2.434,,,0,0,0,0,1,main,1,22,female,mixed,at home,2021-07-02_08h35.44.015,ImageRatingTask_S4,2021.1.4,MacIntel,58.82352941,,,,,,,,,
,,,,,,,,,,,,0,1,1,1,1,second,1,22,female,mixed,at home,2021-07-02_08h35.44.015,ImageRatingTask_S4,2021.1.4,MacIntel,58.82352941,,,,,,,,,
,,,,,,,,,,,,0,2,2,2,1,third,1,22,female,mixed,at home,2021-07-02_08h35.44.015,ImageRatingTask_S4,2021.1.4,MacIntel,58.82352941,,,,,,,,,
,,,,,,,,,,,,0,3,3,3,1,fourth,1,22,female,mixed,at home,2021-07-02_08h35.44.015,ImageRatingTask_S4,2021.1.4,MacIntel,58.82352941,,,,,,,,,
,,,,,,,,,,,,0,4,4,4,1,fifth,1,22,female,mixed,at home,2021-07-02_08h35.44.015,ImageRatingTask_S4,2021.1.4,MacIntel,58.82352941,,,,,,,,,
,,,,,,,,,,,,0,5,5,5,1,sixth,1,22,female,mixed,at home,2021-07-02_08h35.44.015,ImageRatingTask_S4,2021.1.4,MacIntel,58.82352941,,,,,,,,,
,,,,,,,,,,,,0,6,6,6,1,seventh,1,22,female,mixed,at home,2021-07-02_08h35.44.015,ImageRatingTask_S4,2021.1.4,MacIntel,58.82352941,,,,,,,,,
,,,,,,,,,,,,0,7,7,7,1,last,1,22,female,mixed,at home,2021-07-02_08h35.44.015,ImageRatingTask_S4,2021.1.4,MacIntel,58.82352941,,,,,,,,,
,,,,,,,,,,,,,,,,,,1,22,female,mixed,at home,2021-07-02_08h35.44.015,ImageRatingTask_S4,2021.1.4,MacIntel,58.82352941,0,59,59,93,1,DreamStudyImages_rs1000x750g/Houses/IAPS7546_skyline.jpg,,,
,,3,1.965,4,4.486,9,2.35,1,1.219,3,2.142,0,0,0,0,1,main,1,22,female,mixed,at home,2021-07-02_08h35.44.015,ImageRatingTask_S4,2021.1.4,MacIntel,58.82352941,,,,,,,,,
,,,,,,,,,,,,0,1,1,1,1,second,1,22,female,mixed,at home,2021-07-02_08h35.44.015,ImageRatingTask_S4,2021.1.4,MacIntel,58.82352941,,,,,,,,,
,,,,,,,,,,,,0,2,2,2,1,third,1,22,female,mixed,at home,2021-07-02_08h35.44.015,ImageRatingTask_S4,2021.1.4,MacIntel,58.82352941,,,,,,,,,
,,,,,,,,,,,,0,3,3,3,1,fourth,1,22,female,mixed,at home,2021-07-02_08h35.44.015,ImageRatingTask_S4,2021.1.4,MacIntel,58.82352941,,,,,,,,,
,,,,,,,,,,,,0,4,4,4,1,fifth,1,22,female,mixed,at home,2021-07-02_08h35.44.015,ImageRatingTask_S4,2021.1.4,MacIntel,58.82352941,,,,,,,,,
,,,,,,,,,,,,0,5,5,5,1,sixth,1,22,female,mixed,at home,2021-07-02_08h35.44.015,ImageRatingTask_S4,2021.1.4,MacIntel,58.82352941,,,,,,,,,
,,,,,,,,,,,,0,6,6,6,1,seventh,1,22,female,mixed,at home,2021-07-02_08h35.44.015,ImageRatingTask_S4,2021.1.4,MacIntel,58.82352941,,,,,,,,,
,,,,,,,,,,,,0,7,7,7,1,last,1,22,female,mixed,at home,2021-07-02_08h35.44.015,ImageRatingTask_S4,2021.1.4,MacIntel,58.82352941,,,,,,,,,
,,,,,,,,,,,,,,,,,,1,22,female,mixed,at home,2021-07-02_08h35.44.015,ImageRatingTask_S4,2021.1.4,MacIntel,58.82352941,0,60,60,22,1,DreamStudyImages_rs1000x750g/Mammals/Animals_016_h.jpg,,,
,,6,6.003,3,2.3,5,3.036,1,5.269,8,2.724,0,0,0,0,1,main,1,22,female,mixed,at home,2021-07-02_08h35.44.015,ImageRatingTask_S4,2021.1.4,MacIntel,58.82352941,,,,,,,,,
,,,,,,,,,,,,0,1,1,1,1,second,1,22,female,mixed,at home,2021-07-02_08h35.44.015,ImageRatingTask_S4,2021.1.4,MacIntel,58.82352941,,,,,,,,,
,,,,,,,,,,,,0,2,2,2,1,third,1,22,female,mixed,at home,2021-07-02_08h35.44.015,ImageRatingTask_S4,2021.1.4,MacIntel,58.82352941,,,,,,,,,
,,,,,,,,,,,,0,3,3,3,1,fourth,1,22,female,mixed,at home,2021-07-02_08h35.44.015,ImageRatingTask_S4,2021.1.4,MacIntel,58.82352941,,,,,,,,,
,,,,,,,,,,,,0,4,4,4,1,fifth,1,22,female,mixed,at home,2021-07-02_08h35.44.015,ImageRatingTask_S4,2021.1.4,MacIntel,58.82352941,,,,,,,,,
,,,,,,,,,,,,0,5,5,5,1,sixth,1,22,female,mixed,at home,2021-07-02_08h35.44.015,ImageRatingTask_S4,2021.1.4,MacIntel,58.82352941,,,,,,,,,
,,,,,,,,,,,,0,6,6,6,1,seventh,1,22,female,mixed,at home,2021-07-02_08h35.44.015,ImageRatingTask_S4,2021.1.4,MacIntel,58.82352941,,,,,,,,,
,,,,,,,,,,,,0,7,7,7,1,last,1,22,female,mixed,at home,2021-07-02_08h35.44.015,ImageRatingTask_S4,2021.1.4,MacIntel,58.82352941,,,,,,,,,
,,,,,,,,,,,,,,,,,,1,22,female,mixed,at home,2021-07-02_08h35.44.015,ImageRatingTask_S4,2021.1.4,MacIntel,58.82352941,0,61,61,149,1,DreamStudyImages_rs1000x750g/Water/IAPS5260_waterfalls.jpg,,,
,,5,3.813,1,1.65,7,1.602,1,2.432,6,1.244,0,0,0,0,1,main,1,22,female,mixed,at home,2021-07-02_08h35.44.015,ImageRatingTask_S4,2021.1.4,MacIntel,58.82352941,,,,,,,,,
,,,,,,,,,,,,0,1,1,1,1,second,1,22,female,mixed,at home,2021-07-02_08h35.44.015,ImageRatingTask_S4,2021.1.4,MacIntel,58.82352941,,,,,,,,,
,,,,,,,,,,,,0,2,2,2,1,third,1,22,female,mixed,at home,2021-07-02_08h35.44.015,ImageRatingTask_S4,2021.1.4,MacIntel,58.82352941,,,,,,,,,
,,,,,,,,,,,,0,3,3,3,1,fourth,1,22,female,mixed,at home,2021-07-02_08h35.44.015,ImageRatingTask_S4,2021.1.4,MacIntel,58.82352941,,,,,,,,,
,,,,,,,,,,,,0,4,4,4,1,fifth,1,22,female,mixed,at home,2021-07-02_08h35.44.015,ImageRatingTask_S4,2021.1.4,MacIntel,58.82352941,,,,,,,,,
,,,,,,,,,,,,0,5,5,5,1,sixth,1,22,female,mixed,at home,2021-07-02_08h35.44.015,ImageRatingTask_S4,2021.1.4,MacIntel,58.82352941,,,,,,,,,
,,,,,,,,,,,,0,6,6,6,1,seventh,1,22,female,mixed,at home,2021-07-02_08h35.44.015,ImageRatingTask_S4,2021.1.4,MacIntel,58.82352941,,,,,,,,,
,,,,,,,,,,,,0,7,7,7,1,last,1,22,female,mixed,at home,2021-07-02_08h35.44.015,ImageRatingTask_S4,2021.1.4,MacIntel,58.82352941,,,,,,,,,
,,,,,,,,,,,,,,,,,,1,22,female,mixed,at home,2021-07-02_08h35.44.015,ImageRatingTask_S4,2021.1.4,MacIntel,58.82352941,0,62,62,62,1,DreamStudyImages_rs1000x750g/Houses/Landscapes_034_h.jpg,,,
,,4,3.057,4,1.666,3,5.284,1,1.468,3,1.375,0,0,0,0,1,main,1,22,female,mixed,at home,2021-07-02_08h35.44.015,ImageRatingTask_S4,2021.1.4,MacIntel,58.82352941,,,,,,,,,
,,,,,,,,,,,,0,1,1,1,1,second,1,22,female,mixed,at home,2021-07-02_08h35.44.015,ImageRatingTask_S4,2021.1.4,MacIntel,58.82352941,,,,,,,,,
,,,,,,,,,,,,0,2,2,2,1,third,1,22,female,mixed,at home,2021-07-02_08h35.44.015,ImageRatingTask_S4,2021.1.4,MacIntel,58.82352941,,,,,,,,,
,,,,,,,,,,,,0,3,3,3,1,fourth,1,22,female,mixed,at home,2021-07-02_08h35.44.015,ImageRatingTask_S4,2021.1.4,MacIntel,58.82352941,,,,,,,,,
,,,,,,,,,,,,0,4,4,4,1,fifth,1,22,female,mixed,at home,2021-07-02_08h35.44.015,ImageRatingTask_S4,2021.1.4,MacIntel,58.82352941,,,,,,,,,
,,,,,,,,,,,,0,5,5,5,1,sixth,1,22,female,mixed,at home,2021-07-02_08h35.44.015,ImageRatingTask_S4,2021.1.4,MacIntel,58.82352941,,,,,,,,,
,,,,,,,,,,,,0,6,6,6,1,seventh,1,22,female,mixed,at home,2021-07-02_08h35.44.015,ImageRatingTask_S4,2021.1.4,MacIntel,58.82352941,,,,,,,,,
,,,,,,,,,,,,0,7,7,7,1,last,1,22,female,mixed,at home,2021-07-02_08h35.44.015,ImageRatingTask_S4,2021.1.4,MacIntel,58.82352941,,,,,,,,,
,,,,,,,,,,,,,,,,,,1,22,female,mixed,at home,2021-07-02_08h35.44.015,ImageRatingTask_S4,2021.1.4,MacIntel,58.82352941,0,63,63,54,1,DreamStudyImages_rs1000x750g/Mammals/IAPS1304_dog5.jpg,,,
,,2,3.821,5,7.738,6,2.049,2,2.351,7,1.009,0,0,0,0,1,main,1,22,female,mixed,at home,2021-07-02_08h35.44.015,ImageRatingTask_S4,2021.1.4,MacIntel,58.82352941,,,,,,,,,
,,,,,,,,,,1,1.019,0,1,1,1,1,second,1,22,female,mixed,at home,2021-07-02_08h35.44.015,ImageRatingTask_S4,2021.1.4,MacIntel,58.82352941,,,,,,,,,
,,,,,,,,,,,,0,2,2,2,1,third,1,22,female,mixed,at home,2021-07-02_08h35.44.015,ImageRatingTask_S4,2021.1.4,MacIntel,58.82352941,,,,,,,,,
,,,,,,,,,,,,0,3,3,3,1,fourth,1,22,female,mixed,at home,2021-07-02_08h35.44.015,ImageRatingTask_S4,2021.1.4,MacIntel,58.82352941,,,,,,,,,
,,,,,,,,,,,,0,4,4,4,1,fifth,1,22,female,mixed,at home,2021-07-02_08h35.44.015,ImageRatingTask_S4,2021.1.4,MacIntel,58.82352941,,,,,,,,,
,,,,,,,,,,,,0,5,5,5,1,sixth,1,22,female,mixed,at home,2021-07-02_08h35.44.015,ImageRatingTask_S4,2021.1.4,MacIntel,58.82352941,,,,,,,,,
,,,,,,,,,,,,0,6,6,6,1,seventh,1,22,female,mixed,at home,2021-07-02_08h35.44.015,ImageRatingTask_S4,2021.1.4,MacIntel,58.82352941,,,,,,,,,
,,,,,,,,,,,,0,7,7,7,1,last,1,22,female,mixed,at home,2021-07-02_08h35.44.015,ImageRatingTask_S4,2021.1.4,MacIntel,58.82352941,,,,,,,,,
,,,,,,,,,,,,,,,,,,1,22,female,mixed,at home,2021-07-02_08h35.44.015,ImageRatingTask_S4,2021.1.4,MacIntel,58.82352941,0,64,64,99,1,DreamStudyImages_rs1000x750g/Vehicles/9611.jpg,,,
,,3,11.504,3,1.784,8,4.117,0,4.087,,,0,0,0,0,1,main,1,22,female,mixed,at home,2021-07-02_08h35.44.015,ImageRatingTask_S4,2021.1.4,MacIntel,58.82352941,,,,,,,,,
,,,,,,,,,,,,0,1,1,1,1,second,1,22,female,mixed,at home,2021-07-02_08h35.44.015,ImageRatingTask_S4,2021.1.4,MacIntel,58.82352941,,,,,,,,,
,,,,,,,,,,,,0,2,2,2,1,third,1,22,female,mixed,at home,2021-07-02_08h35.44.015,ImageRatingTask_S4,2021.1.4,MacIntel,58.82352941,,,,,,,,,
,,,,,,,,,,,,0,3,3,3,1,fourth,1,22,female,mixed,at home,2021-07-02_08h35.44.015,ImageRatingTask_S4,2021.1.4,MacIntel,58.82352941,,,,,,,,,
,,,,,,,,,,,,0,4,4,4,1,fifth,1,22,female,mixed,at home,2021-07-02_08h35.44.015,ImageRatingTask_S4,2021.1.4,MacIntel,58.82352941,,,,,,,,,
,,,,,,,,,,,,0,5,5,5,1,sixth,1,22,female,mixed,at home,2021-07-02_08h35.44.015,ImageRatingTask_S4,2021.1.4,MacIntel,58.82352941,,,,,,,,,
,,,,,,,,,,,,0,6,6,6,1,seventh,1,22,female,mixed,at home,2021-07-02_08h35.44.015,ImageRatingTask_S4,2021.1.4,MacIntel,58.82352941,,,,,,,,,
,,,,,,,,,,,,0,7,7,7,1,last,1,22,female,mixed,at home,2021-07-02_08h35.44.015,ImageRatingTask_S4,2021.1.4,MacIntel,58.82352941,,,,,,,,,
,,,,,,,,,,,,,,,,,,1,22,female,mixed,at home,2021-07-02_08h35.44.015,ImageRatingTask_S4,2021.1.4,MacIntel,58.82352941,0,65,65,4,1,DreamStudyImages_rs1000x750g/Food/Objects_022_h.jpg,,,
,,5,3.719,1,1.601,6,1.616,1,0.933,3,0.993,0,0,0,0,1,main,1,22,female,mixed,at home,2021-07-02_08h35.44.015,ImageRatingTask_S4,2021.1.4,MacIntel,58.82352941,,,,,,,,,
,,,,,,,,,,,,0,1,1,1,1,second,1,22,female,mixed,at home,2021-07-02_08h35.44.015,ImageRatingTask_S4,2021.1.4,MacIntel,58.82352941,,,,,,,,,
,,,,,,,,,,,,0,2,2,2,1,third,1,22,female,mixed,at home,2021-07-02_08h35.44.015,ImageRatingTask_S4,2021.1.4,MacIntel,58.82352941,,,,,,,,,
,,,,,,,,,,,,0,3,3,3,1,fourth,1,22,female,mixed,at home,2021-07-02_08h35.44.015,ImageRatingTask_S4,2021.1.4,MacIntel,58.82352941,,,,,,,,,
,,,,,,,,,,,,0,4,4,4,1,fifth,1,22,female,mixed,at home,2021-07-02_08h35.44.015,ImageRatingTask_S4,2021.1.4,MacIntel,58.82352941,,,,,,,,,
,,,,,,,,,,,,0,5,5,5,1,sixth,1,22,female,mixed,at home,2021-07-02_08h35.44.015,ImageRatingTask_S4,2021.1.4,MacIntel,58.82352941,,,,,,,,,
,,,,,,,,,,,,0,6,6,6,1,seventh,1,22,female,mixed,at home,2021-07-02_08h35.44.015,ImageRatingTask_S4,2021.1.4,MacIntel,58.82352941,,,,,,,,,
,,,,,,,,,,,,0,7,7,7,1,last,1,22,female,mixed,at home,2021-07-02_08h35.44.015,ImageRatingTask_S4,2021.1.4,MacIntel,58.82352941,,,,,,,,,
,,,,,,,,,,,,,,,,,,1,22,female,mixed,at home,2021-07-02_08h35.44.015,ImageRatingTask_S4,2021.1.4,MacIntel,58.82352941,0,66,66,83,1,DreamStudyImages_rs1000x750g/Mammals/Lion 4.jpg,,,
,,5,3.851,1,0.616,8,3.569,0,1.768,,,0,0,0,0,1,main,1,22,female,mixed,at home,2021-07-02_08h35.44.015,ImageRatingTask_S4,2021.1.4,MacIntel,58.82352941,,,,,,,,,
,,,,,,,,,,,,0,1,1,1,1,second,1,22,female,mixed,at home,2021-07-02_08h35.44.015,ImageRatingTask_S4,2021.1.4,MacIntel,58.82352941,,,,,,,,,
,,,,,,,,,,,,0,2,2,2,1,third,1,22,female,mixed,at home,2021-07-02_08h35.44.015,ImageRatingTask_S4,2021.1.4,MacIntel,58.82352941,,,,,,,,,
,,,,,,,,,,,,0,3,3,3,1,fourth,1,22,female,mixed,at home,2021-07-02_08h35.44.015,ImageRatingTask_S4,2021.1.4,MacIntel,58.82352941,,,,,,,,,
,,,,,,,,,,,,0,4,4,4,1,fifth,1,22,female,mixed,at home,2021-07-02_08h35.44.015,ImageRatingTask_S4,2021.1.4,MacIntel,58.82352941,,,,,,,,,
,,,,,,,,,,,,0,5,5,5,1,sixth,1,22,female,mixed,at home,2021-07-02_08h35.44.015,ImageRatingTask_S4,2021.1.4,MacIntel,58.82352941,,,,,,,,,
,,,,,,,,,,,,0,6,6,6,1,seventh,1,22,female,mixed,at home,2021-07-02_08h35.44.015,ImageRatingTask_S4,2021.1.4,MacIntel,58.82352941,,,,,,,,,
,,,,,,,,,,,,0,7,7,7,1,last,1,22,female,mixed,at home,2021-07-02_08h35.44.015,ImageRatingTask_S4,2021.1.4,MacIntel,58.82352941,,,,,,,,,
,,,,,,,,,,,,,,,,,,1,22,female,mixed,at home,2021-07-02_08h35.44.015,ImageRatingTask_S4,2021.1.4,MacIntel,58.82352941,0,67,67,71,1,DreamStudyImages_rs1000x750g/Houses/Landscapes_012_h.jpg,,,
,,5,1.503,1,0.65,6,1.468,1,0.918,3,0.76,0,0,0,0,1,main,1,22,female,mixed,at home,2021-07-02_08h35.44.015,ImageRatingTask_S4,2021.1.4,MacIntel,58.82352941,,,,,,,,,
,,,,,,,,,,,,0,1,1,1,1,second,1,22,female,mixed,at home,2021-07-02_08h35.44.015,ImageRatingTask_S4,2021.1.4,MacIntel,58.82352941,,,,,,,,,
,,,,,,,,,,,,0,2,2,2,1,third,1,22,female,mixed,at home,2021-07-02_08h35.44.015,ImageRatingTask_S4,2021.1.4,MacIntel,58.82352941,,,,,,,,,
,,,,,,,,,,,,0,3,3,3,1,fourth,1,22,female,mixed,at home,2021-07-02_08h35.44.015,ImageRatingTask_S4,2021.1.4,MacIntel,58.82352941,,,,,,,,,
,,,,,,,,,,,,0,4,4,4,1,fifth,1,22,female,mixed,at home,2021-07-02_08h35.44.015,ImageRatingTask_S4,2021.1.4,MacIntel,58.82352941,,,,,,,,,
,,,,,,,,,,,,0,5,5,5,1,sixth,1,22,female,mixed,at home,2021-07-02_08h35.44.015,ImageRatingTask_S4,2021.1.4,MacIntel,58.82352941,,,,,,,,,
,,,,,,,,,,,,0,6,6,6,1,seventh,1,22,female,mixed,at home,2021-07-02_08h35.44.015,ImageRatingTask_S4,2021.1.4,MacIntel,58.82352941,,,,,,,,,
,,,,,,,,,,,,0,7,7,7,1,last,1,22,female,mixed,at home,2021-07-02_08h35.44.015,ImageRatingTask_S4,2021.1.4,MacIntel,58.82352941,,,,,,,,,
,,,,,,,,,,,,,,,,,,1,22,female,mixed,at home,2021-07-02_08h35.44.015,ImageRatingTask_S4,2021.1.4,MacIntel,58.82352941,0,68,68,146,1,DreamStudyImages_rs1000x750g/Mammals/IAPS1590_horse1.jpg,,,
,,4,7.067,2,0.856,7,1.76,0,3.14,,,0,0,0,0,1,main,1,22,female,mixed,at home,2021-07-02_08h35.44.015,ImageRatingTask_S4,2021.1.4,MacIntel,58.82352941,,,,,,,,,
,,,,,,,,,,,,0,1,1,1,1,second,1,22,female,mixed,at home,2021-07-02_08h35.44.015,ImageRatingTask_S4,2021.1.4,MacIntel,58.82352941,,,,,,,,,
,,,,,,,,,,,,0,2,2,2,1,third,1,22,female,mixed,at home,2021-07-02_08h35.44.015,ImageRatingTask_S4,2021.1.4,MacIntel,58.82352941,,,,,,,,,
,,,,,,,,,,,,0,3,3,3,1,fourth,1,22,female,mixed,at home,2021-07-02_08h35.44.015,ImageRatingTask_S4,2021.1.4,MacIntel,58.82352941,,,,,,,,,
,,,,,,,,,,,,0,4,4,4,1,fifth,1,22,female,mixed,at home,2021-07-02_08h35.44.015,ImageRatingTask_S4,2021.1.4,MacIntel,58.82352941,,,,,,,,,
,,,,,,,,,,,,0,5,5,5,1,sixth,1,22,female,mixed,at home,2021-07-02_08h35.44.015,ImageRatingTask_S4,2021.1.4,MacIntel,58.82352941,,,,,,,,,
,,,,,,,,,,,,0,6,6,6,1,seventh,1,22,female,mixed,at home,2021-07-02_08h35.44.015,ImageRatingTask_S4,2021.1.4,MacIntel,58.82352941,,,,,,,,,
,,,,,,,,,,,,0,7,7,7,1,last,1,22,female,mixed,at home,2021-07-02_08h35.44.015,ImageRatingTask_S4,2021.1.4,MacIntel,58.82352941,,,,,,,,,
,,,,,,,,,,,,,,,,,,1,22,female,mixed,at home,2021-07-02_08h35.44.015,ImageRatingTask_S4,2021.1.4,MacIntel,58.82352941,0,69,69,157,1,DreamStudyImages_rs1000x750g/Food/Objects_151_h.jpg,,,
,,2,2.033,5,2.868,6,2.15,1,1.274,7,1.221,0,0,0,0,1,main,1,22,female,mixed,at home,2021-07-02_08h35.44.015,ImageRatingTask_S4,2021.1.4,MacIntel,58.82352941,,,,,,,,,
,,,,,,,,,,,,0,1,1,1,1,second,1,22,female,mixed,at home,2021-07-02_08h35.44.015,ImageRatingTask_S4,2021.1.4,MacIntel,58.82352941,,,,,,,,,
,,,,,,,,,,,,0,2,2,2,1,third,1,22,female,mixed,at home,2021-07-02_08h35.44.015,ImageRatingTask_S4,2021.1.4,MacIntel,58.82352941,,,,,,,,,
,,,,,,,,,,,,0,3,3,3,1,fourth,1,22,female,mixed,at home,2021-07-02_08h35.44.015,ImageRatingTask_S4,2021.1.4,MacIntel,58.82352941,,,,,,,,,
,,,,,,,,,,,,0,4,4,4,1,fifth,1,22,female,mixed,at home,2021-07-02_08h35.44.015,ImageRatingTask_S4,2021.1.4,MacIntel,58.82352941,,,,,,,,,
,,,,,,,,,,,,0,5,5,5,1,sixth,1,22,female,mixed,at home,2021-07-02_08h35.44.015,ImageRatingTask_S4,2021.1.4,MacIntel,58.82352941,,,,,,,,,
,,,,,,,,,,,,0,6,6,6,1,seventh,1,22,female,mixed,at home,2021-07-02_08h35.44.015,ImageRatingTask_S4,2021.1.4,MacIntel,58.82352941,,,,,,,,,
,,,,,,,,,,,,0,7,7,7,1,last,1,22,female,mixed,at home,2021-07-02_08h35.44.015,ImageRatingTask_S4,2021.1.4,MacIntel,58.82352941,,,,,,,,,
,,,,,,,,,,,,,,,,,,1,22,female,mixed,at home,2021-07-02_08h35.44.015,ImageRatingTask_S4,2021.1.4,MacIntel,58.82352941,0,70,70,17,1,DreamStudyImages_rs1000x750g/Vehicles/IAPS9911_carcrash8.jpg,,,
,,5,3.183,1,0.649,9,1.636,1,1.784,7,1.142,0,0,0,0,1,main,1,22,female,mixed,at home,2021-07-02_08h35.44.015,ImageRatingTask_S4,2021.1.4,MacIntel,58.82352941,,,,,,,,,
,,,,,,,,,,,,0,1,1,1,1,second,1,22,female,mixed,at home,2021-07-02_08h35.44.015,ImageRatingTask_S4,2021.1.4,MacIntel,58.82352941,,,,,,,,,
,,,,,,,,,,,,0,2,2,2,1,third,1,22,female,mixed,at home,2021-07-02_08h35.44.015,ImageRatingTask_S4,2021.1.4,MacIntel,58.82352941,,,,,,,,,
,,,,,,,,,,,,0,3,3,3,1,fourth,1,22,female,mixed,at home,2021-07-02_08h35.44.015,ImageRatingTask_S4,2021.1.4,MacIntel,58.82352941,,,,,,,,,
,,,,,,,,,,,,0,4,4,4,1,fifth,1,22,female,mixed,at home,2021-07-02_08h35.44.015,ImageRatingTask_S4,2021.1.4,MacIntel,58.82352941,,,,,,,,,
,,,,,,,,,,,,0,5,5,5,1,sixth,1,22,female,mixed,at home,2021-07-02_08h35.44.015,ImageRatingTask_S4,2021.1.4,MacIntel,58.82352941,,,,,,,,,
,,,,,,,,,,,,0,6,6,6,1,seventh,1,22,female,mixed,at home,2021-07-02_08h35.44.015,ImageRatingTask_S4,2021.1.4,MacIntel,58.82352941,,,,,,,,,
,,,,,,,,,,,,0,7,7,7,1,last,1,22,female,mixed,at home,2021-07-02_08h35.44.015,ImageRatingTask_S4,2021.1.4,MacIntel,58.82352941,,,,,,,,,
,,,,,,,,,,,,,,,,,,1,22,female,mixed,at home,2021-07-02_08h35.44.015,ImageRatingTask_S4,2021.1.4,MacIntel,58.82352941,0,71,71,106,1,DreamStudyImages_rs1000x750g/Vehicles/fireengine.jpg,,,
,,4,2.463,2,0.818,8,3.368,1,4.303,6,1.459,0,0,0,0,1,main,1,22,female,mixed,at home,2021-07-02_08h35.44.015,ImageRatingTask_S4,2021.1.4,MacIntel,58.82352941,,,,,,,,,
,,,,,,,,,,,,0,1,1,1,1,second,1,22,female,mixed,at home,2021-07-02_08h35.44.015,ImageRatingTask_S4,2021.1.4,MacIntel,58.82352941,,,,,,,,,
,,,,,,,,,,,,0,2,2,2,1,third,1,22,female,mixed,at home,2021-07-02_08h35.44.015,ImageRatingTask_S4,2021.1.4,MacIntel,58.82352941,,,,,,,,,
,,,,,,,,,,,,0,3,3,3,1,fourth,1,22,female,mixed,at home,2021-07-02_08h35.44.015,ImageRatingTask_S4,2021.1.4,MacIntel,58.82352941,,,,,,,,,
,,,,,,,,,,,,0,4,4,4,1,fifth,1,22,female,mixed,at home,2021-07-02_08h35.44.015,ImageRatingTask_S4,2021.1.4,MacIntel,58.82352941,,,,,,,,,
,,,,,,,,,,,,0,5,5,5,1,sixth,1,22,female,mixed,at home,2021-07-02_08h35.44.015,ImageRatingTask_S4,2021.1.4,MacIntel,58.82352941,,,,,,,,,
,,,,,,,,,,,,0,6,6,6,1,seventh,1,22,female,mixed,at home,2021-07-02_08h35.44.015,ImageRatingTask_S4,2021.1.4,MacIntel,58.82352941,,,,,,,,,
,,,,,,,,,,,,0,7,7,7,1,last,1,22,female,mixed,at home,2021-07-02_08h35.44.015,ImageRatingTask_S4,2021.1.4,MacIntel,58.82352941,,,,,,,,,
,,,,,,,,,,,,,,,,,,1,22,female,mixed,at home,2021-07-02_08h35.44.015,ImageRatingTask_S4,2021.1.4,MacIntel,58.82352941,0,72,72,75,1,DreamStudyImages_rs1000x750g/Houses/NDPS114_houses10.jpg,,,
,,6,3.405,2,1.834,4,1.872,1,1.028,5,0.976,0,0,0,0,1,main,1,22,female,mixed,at home,2021-07-02_08h35.44.015,ImageRatingTask_S4,2021.1.4,MacIntel,58.82352941,,,,,,,,,
,,,,,,,,,,,,0,1,1,1,1,second,1,22,female,mixed,at home,2021-07-02_08h35.44.015,ImageRatingTask_S4,2021.1.4,MacIntel,58.82352941,,,,,,,,,
,,,,,,,,,,,,0,2,2,2,1,third,1,22,female,mixed,at home,2021-07-02_08h35.44.015,ImageRatingTask_S4,2021.1.4,MacIntel,58.82352941,,,,,,,,,
,,,,,,,,,,,,0,3,3,3,1,fourth,1,22,female,mixed,at home,2021-07-02_08h35.44.015,ImageRatingTask_S4,2021.1.4,MacIntel,58.82352941,,,,,,,,,
,,,,,,,,,,,,0,4,4,4,1,fifth,1,22,female,mixed,at home,2021-07-02_08h35.44.015,ImageRatingTask_S4,2021.1.4,MacIntel,58.82352941,,,,,,,,,
,,,,,,,,,,,,0,5,5,5,1,sixth,1,22,female,mixed,at home,2021-07-02_08h35.44.015,ImageRatingTask_S4,2021.1.4,MacIntel,58.82352941,,,,,,,,,
,,,,,,,,,,,,0,6,6,6,1,seventh,1,22,female,mixed,at home,2021-07-02_08h35.44.015,ImageRatingTask_S4,2021.1.4,MacIntel,58.82352941,,,,,,,,,
,,,,,,,,,,,,0,7,7,7,1,last,1,22,female,mixed,at home,2021-07-02_08h35.44.015,ImageRatingTask_S4,2021.1.4,MacIntel,58.82352941,,,,,,,,,
,,,,,,,,,,,,,,,,,,1,22,female,mixed,at home,2021-07-02_08h35.44.015,ImageRatingTask_S4,2021.1.4,MacIntel,58.82352941,0,73,73,67,1,DreamStudyImages_rs1000x750g/Food/IAPS7283_dessert.jpg,,,
,,5,2.278,1,0.55,6,3.769,1,1.018,3,0.926,0,0,0,0,1,main,1,22,female,mixed,at home,2021-07-02_08h35.44.015,ImageRatingTask_S4,2021.1.4,MacIntel,58.82352941,,,,,,,,,
,,,,,,,,,,,,0,1,1,1,1,second,1,22,female,mixed,at home,2021-07-02_08h35.44.015,ImageRatingTask_S4,2021.1.4,MacIntel,58.82352941,,,,,,,,,
,,,,,,,,,,,,0,2,2,2,1,third,1,22,female,mixed,at home,2021-07-02_08h35.44.015,ImageRatingTask_S4,2021.1.4,MacIntel,58.82352941,,,,,,,,,
,,,,,,,,,,,,0,3,3,3,1,fourth,1,22,female,mixed,at home,2021-07-02_08h35.44.015,ImageRatingTask_S4,2021.1.4,MacIntel,58.82352941,,,,,,,,,
,,,,,,,,,,,,0,4,4,4,1,fifth,1,22,female,mixed,at home,2021-07-02_08h35.44.015,ImageRatingTask_S4,2021.1.4,MacIntel,58.82352941,,,,,,,,,
,,,,,,,,,,,,0,5,5,5,1,sixth,1,22,female,mixed,at home,2021-07-02_08h35.44.015,ImageRatingTask_S4,2021.1.4,MacIntel,58.82352941,,,,,,,,,
,,,,,,,,,,,,0,6,6,6,1,seventh,1,22,female,mixed,at home,2021-07-02_08h35.44.015,ImageRatingTask_S4,2021.1.4,MacIntel,58.82352941,,,,,,,,,
,,,,,,,,,,,,0,7,7,7,1,last,1,22,female,mixed,at home,2021-07-02_08h35.44.015,ImageRatingTask_S4,2021.1.4,MacIntel,58.82352941,,,,,,,,,
,,,,,,,,,,,,,,,,,,1,22,female,mixed,at home,2021-07-02_08h35.44.015,ImageRatingTask_S4,2021.1.4,MacIntel,58.82352941,0,74,74,131,1,DreamStudyImages_rs1000x750g/Mammals/Animals_122_h.jpg,,,
,,5,2.414,1,0.701,8,4.536,1,1.02,6,0.839,0,0,0,0,1,main,1,22,female,mixed,at home,2021-07-02_08h35.44.015,ImageRatingTask_S4,2021.1.4,MacIntel,58.82352941,,,,,,,,,
,,,,,,,,,,,,0,1,1,1,1,second,1,22,female,mixed,at home,2021-07-02_08h35.44.015,ImageRatingTask_S4,2021.1.4,MacIntel,58.82352941,,,,,,,,,
,,,,,,,,,,,,0,2,2,2,1,third,1,22,female,mixed,at home,2021-07-02_08h35.44.015,ImageRatingTask_S4,2021.1.4,MacIntel,58.82352941,,,,,,,,,
,,,,,,,,,,,,0,3,3,3,1,fourth,1,22,female,mixed,at home,2021-07-02_08h35.44.015,ImageRatingTask_S4,2021.1.4,MacIntel,58.82352941,,,,,,,,,
,,,,,,,,,,,,0,4,4,4,1,fifth,1,22,female,mixed,at home,2021-07-02_08h35.44.015,ImageRatingTask_S4,2021.1.4,MacIntel,58.82352941,,,,,,,,,
,,,,,,,,,,,,0,5,5,5,1,sixth,1,22,female,mixed,at home,2021-07-02_08h35.44.015,ImageRatingTask_S4,2021.1.4,MacIntel,58.82352941,,,,,,,,,
,,,,,,,,,,,,0,6,6,6,1,seventh,1,22,female,mixed,at home,2021-07-02_08h35.44.015,ImageRatingTask_S4,2021.1.4,MacIntel,58.82352941,,,,,,,,,
,,,,,,,,,,,,0,7,7,7,1,last,1,22,female,mixed,at home,2021-07-02_08h35.44.015,ImageRatingTask_S4,2021.1.4,MacIntel,58.82352941,,,,,,,,,
,,,,,,,,,,,,,,,,,,1,22,female,mixed,at home,2021-07-02_08h35.44.015,ImageRatingTask_S4,2021.1.4,MacIntel,58.82352941,0,75,75,154,1,DreamStudyImages_rs1000x750g/Houses/Landscapes_046_h.jpg,,,
,,6,1.397,2,1.7,8,2.652,1,1.034,3,1.194,0,0,0,0,1,main,1,22,female,mixed,at home,2021-07-02_08h35.44.015,ImageRatingTask_S4,2021.1.4,MacIntel,58.82352941,,,,,,,,,
