test_key_val.keys,test_key_val.rt,test_key_aro.keys,test_key_aro.rt,test_key_qual.keys,test_key_qual.rt,test_key_ncat.keys,test_key_ncat.rt,test_key_cats.keys,test_key_cats.rt,test_ncat_order.thisRepN,test_ncat_order.thisTrialN,test_ncat_order.thisN,test_ncat_order.thisIndex,test_ncat_order.ran,cond_cat,participant,age,gender,handedness (L/R),site (IMT/Donders),date,expName,psychopyVersion,OS,frameRate,test_trials.thisRepN,test_trials.thisTrialN,test_trials.thisN,test_trials.thisIndex,test_trials.ran,test_filename,link,copyright,slider_pre.response,slider_pre.rt,key_val.keys,key_val.rt,key_aro.keys,key_aro.rt,key_qual.keys,key_qual.rt,key_ncat.keys,key_ncat.rt,key_cats.keys,key_cats.rt,ncat_order.thisRepN,ncat_order.thisTrialN,ncat_order.thisN,ncat_order.thisIndex,ncat_order.ran,img_trials.thisRepN,img_trials.thisTrialN,img_trials.thisN,img_trials.thisIndex,img_trials.ran,filename,slider_post.response,slider_post.rt,textbox_openfb.text
6,4.278,2,2.081,8,2.619,2,3.155,1,2.082,0,0,0,0,1,main,1,22,female,mixed,at home,2021-07-01_11h24.21.266,ImageRatingTask_S1,2021.1.4,MacIntel,66.66666667,,,,,,,,,,,,,,,,,,,,,,,,,,,,,,,,,,
,,,,,,,,4,2.81,0,1,1,1,1,second,1,22,female,mixed,at home,2021-07-01_11h24.21.266,ImageRatingTask_S1,2021.1.4,MacIntel,66.66666667,,,,,,,,,,,,,,,,,,,,,,,,,,,,,,,,,,
,,,,,,,,,,0,2,2,2,1,third,1,22,female,mixed,at home,2021-07-01_11h24.21.266,ImageRatingTask_S1,2021.1.4,MacIntel,66.66666667,,,,,,,,,,,,,,,,,,,,,,,,,,,,,,,,,,
,,,,,,,,,,0,3,3,3,1,fourth,1,22,female,mixed,at home,2021-07-01_11h24.21.266,ImageRatingTask_S1,2021.1.4,MacIntel,66.66666667,,,,,,,,,,,,,,,,,,,,,,,,,,,,,,,,,,
,,,,,,,,,,0,4,4,4,1,fifth,1,22,female,mixed,at home,2021-07-01_11h24.21.266,ImageRatingTask_S1,2021.1.4,MacIntel,66.66666667,,,,,,,,,,,,,,,,,,,,,,,,,,,,,,,,,,
,,,,,,,,,,0,5,5,5,1,sixth,1,22,female,mixed,at home,2021-07-01_11h24.21.266,ImageRatingTask_S1,2021.1.4,MacIntel,66.66666667,,,,,,,,,,,,,,,,,,,,,,,,,,,,,,,,,,
,,,,,,,,,,0,6,6,6,1,seventh,1,22,female,mixed,at home,2021-07-01_11h24.21.266,ImageRatingTask_S1,2021.1.4,MacIntel,66.66666667,,,,,,,,,,,,,,,,,,,,,,,,,,,,,,,,,,
,,,,,,,,,,0,7,7,7,1,last,1,22,female,mixed,at home,2021-07-01_11h24.21.266,ImageRatingTask_S1,2021.1.4,MacIntel,66.66666667,,,,,,,,,,,,,,,,,,,,,,,,,,,,,,,,,,
,,,,,,,,,,,,,,,,1,22,female,mixed,at home,2021-07-01_11h24.21.266,ImageRatingTask_S1,2021.1.4,MacIntel,66.66666667,0,0,0,2,1,test3.jpg,https://www.flickr.com/photos/7487886@N04/35810127921/in/photolist-WyqgqD-DQSoP-6SrFCE-39ywib-39Bezs-9gt8aT-9gt83Z-eEgA9B-KnLx9-9gt8dK-HXwdie-2b6FA2g-4ekt5k-9ECfRg-2Zr5GQ-2Zr5mC-2Zr6kW-2Zr5Xu-2Zmyac-98TgbK-7U5XRj-am4oXb-98ThEB-2Bw3gh-vXo6D-Wt9U8o-DGiErb-DGiEqE-2m3CpV6-6E2aGG-6DXgqc-4PC3pQ-6HwMbx-dHYvkg-a2ycs-JLvMv-7k6DhM-bA81AL-8zwPFe-5nMrZu-3Ep2da-nhhd2L-DvDkr-81RkjZ-E1HXA-GzGH8Z-83vZYf-9krgXK-5nMxuU-DGiEqu,CC BY-NC 2.0,,,,,,,,,,,,,,,,,,,,,,,,,,
5,2.14,1,1.809,8,2.906,2,4.066,7,4.29,0,0,0,0,1,main,1,22,female,mixed,at home,2021-07-01_11h24.21.266,ImageRatingTask_S1,2021.1.4,MacIntel,66.66666667,,,,,,,,,,,,,,,,,,,,,,,,,,,,,,,,,,
,,,,,,,,3,2.64,0,1,1,1,1,second,1,22,female,mixed,at home,2021-07-01_11h24.21.266,ImageRatingTask_S1,2021.1.4,MacIntel,66.66666667,,,,,,,,,,,,,,,,,,,,,,,,,,,,,,,,,,
,,,,,,,,,,0,2,2,2,1,third,1,22,female,mixed,at home,2021-07-01_11h24.21.266,ImageRatingTask_S1,2021.1.4,MacIntel,66.66666667,,,,,,,,,,,,,,,,,,,,,,,,,,,,,,,,,,
,,,,,,,,,,0,3,3,3,1,fourth,1,22,female,mixed,at home,2021-07-01_11h24.21.266,ImageRatingTask_S1,2021.1.4,MacIntel,66.66666667,,,,,,,,,,,,,,,,,,,,,,,,,,,,,,,,,,
,,,,,,,,,,0,4,4,4,1,fifth,1,22,female,mixed,at home,2021-07-01_11h24.21.266,ImageRatingTask_S1,2021.1.4,MacIntel,66.66666667,,,,,,,,,,,,,,,,,,,,,,,,,,,,,,,,,,
,,,,,,,,,,0,5,5,5,1,sixth,1,22,female,mixed,at home,2021-07-01_11h24.21.266,ImageRatingTask_S1,2021.1.4,MacIntel,66.66666667,,,,,,,,,,,,,,,,,,,,,,,,,,,,,,,,,,
,,,,,,,,,,0,6,6,6,1,seventh,1,22,female,mixed,at home,2021-07-01_11h24.21.266,ImageRatingTask_S1,2021.1.4,MacIntel,66.66666667,,,,,,,,,,,,,,,,,,,,,,,,,,,,,,,,,,
,,,,,,,,,,0,7,7,7,1,last,1,22,female,mixed,at home,2021-07-01_11h24.21.266,ImageRatingTask_S1,2021.1.4,MacIntel,66.66666667,,,,,,,,,,,,,,,,,,,,,,,,,,,,,,,,,,
,,,,,,,,,,,,,,,,1,22,female,mixed,at home,2021-07-01_11h24.21.266,ImageRatingTask_S1,2021.1.4,MacIntel,66.66666667,0,1,1,3,1,test4.jpg,https://www.flickr.com/photos/8782469@N05/33550256294/in/photolist-T7HQjJ-6bL62X-gQ2ptt-eARbhf-dbgLvQ-uKUpgG-e6GNPD-e6iDuV-RwYJie-Ur28At-u6Dvwk-fwts3x-CgqS5E-dgJSNE-fwHPg9-bFQoWv-9qgCN-TQZT7E-475QF-v3ZBG9-v5TFQL-aQVeNV-49XCzE-e5Va7j-v3WosE-5jvzS-cBxjA5-fwJ2P3-TP86kq-eREpVC-rMTQZx-Um3k-ajziHj-CgqSzN-dgP2Ci-e6putY-652ZqG-eARzQm-6ikz1-vrGjvh-Chgvpm-pFFnYq-8bKoVw-eAsukg-daANXC-MwMMfW-5ArWsa-GMcDmn-bLo6CH-9KgagR,CC BY 2.0,,,,,,,,,,,,,,,,,,,,,,,,,,
5,1.631,1,1.419,9,1.792,0,1.291,,,0,0,0,0,1,main,1,22,female,mixed,at home,2021-07-01_11h24.21.266,ImageRatingTask_S1,2021.1.4,MacIntel,66.66666667,,,,,,,,,,,,,,,,,,,,,,,,,,,,,,,,,,
,,,,,,,,,,0,1,1,1,1,second,1,22,female,mixed,at home,2021-07-01_11h24.21.266,ImageRatingTask_S1,2021.1.4,MacIntel,66.66666667,,,,,,,,,,,,,,,,,,,,,,,,,,,,,,,,,,
,,,,,,,,,,0,2,2,2,1,third,1,22,female,mixed,at home,2021-07-01_11h24.21.266,ImageRatingTask_S1,2021.1.4,MacIntel,66.66666667,,,,,,,,,,,,,,,,,,,,,,,,,,,,,,,,,,
,,,,,,,,,,0,3,3,3,1,fourth,1,22,female,mixed,at home,2021-07-01_11h24.21.266,ImageRatingTask_S1,2021.1.4,MacIntel,66.66666667,,,,,,,,,,,,,,,,,,,,,,,,,,,,,,,,,,
,,,,,,,,,,0,4,4,4,1,fifth,1,22,female,mixed,at home,2021-07-01_11h24.21.266,ImageRatingTask_S1,2021.1.4,MacIntel,66.66666667,,,,,,,,,,,,,,,,,,,,,,,,,,,,,,,,,,
,,,,,,,,,,0,5,5,5,1,sixth,1,22,female,mixed,at home,2021-07-01_11h24.21.266,ImageRatingTask_S1,2021.1.4,MacIntel,66.66666667,,,,,,,,,,,,,,,,,,,,,,,,,,,,,,,,,,
,,,,,,,,,,0,6,6,6,1,seventh,1,22,female,mixed,at home,2021-07-01_11h24.21.266,ImageRatingTask_S1,2021.1.4,MacIntel,66.66666667,,,,,,,,,,,,,,,,,,,,,,,,,,,,,,,,,,
,,,,,,,,,,0,7,7,7,1,last,1,22,female,mixed,at home,2021-07-01_11h24.21.266,ImageRatingTask_S1,2021.1.4,MacIntel,66.66666667,,,,,,,,,,,,,,,,,,,,,,,,,,,,,,,,,,
,,,,,,,,,,,,,,,,1,22,female,mixed,at home,2021-07-01_11h24.21.266,ImageRatingTask_S1,2021.1.4,MacIntel,66.66666667,0,2,2,4,1,test5.jpg,https://www.flickr.com/photos/silkebaron/2778692021/in/photolist-5exwk8-CeHF3S-5gg796-95cM2x-LGUrp7-oFgB6-2k7B5QN-aufKzz-hn8Di-8A3htc-8EagiU-4Hvk3Y-2b7s1f8-KSEPr-KSseq-KSrU3-KSu4o-KSsS3-Tp6nDS-KSCUM-VpC5Br-4j8meK-bdrepT-7GRM78-e6Zw96-8cCPed-9ANgBi-oFg73-2GGRxm-5dcivP-7sa8oG-2GGRzW-7CFUnh-3giGx-5Bz4op-3gTuGh-5cSvq6-pUnXj-hwTpWT-48n3iY-e5zg7q-7u7zP8-49195x-3iQDe9-aL7cWX-5exvLk-48n2Yy-toytsg-rw5VR-78NSA2,CC BY 2.0,,,,,,,,,,,,,,,,,,,,,,,,,,
6,4.959,2,3.955,7,2.521,3,5.527,2,2.362,0,0,0,0,1,main,1,22,female,mixed,at home,2021-07-01_11h24.21.266,ImageRatingTask_S1,2021.1.4,MacIntel,66.66666667,,,,,,,,,,,,,,,,,,,,,,,,,,,,,,,,,,
,,,,,,,,5,2.697,0,1,1,1,1,second,1,22,female,mixed,at home,2021-07-01_11h24.21.266,ImageRatingTask_S1,2021.1.4,MacIntel,66.66666667,,,,,,,,,,,,,,,,,,,,,,,,,,,,,,,,,,
,,,,,,,,6,2.135,0,2,2,2,1,third,1,22,female,mixed,at home,2021-07-01_11h24.21.266,ImageRatingTask_S1,2021.1.4,MacIntel,66.66666667,,,,,,,,,,,,,,,,,,,,,,,,,,,,,,,,,,
,,,,,,,,,,0,3,3,3,1,fourth,1,22,female,mixed,at home,2021-07-01_11h24.21.266,ImageRatingTask_S1,2021.1.4,MacIntel,66.66666667,,,,,,,,,,,,,,,,,,,,,,,,,,,,,,,,,,
,,,,,,,,,,0,4,4,4,1,fifth,1,22,female,mixed,at home,2021-07-01_11h24.21.266,ImageRatingTask_S1,2021.1.4,MacIntel,66.66666667,,,,,,,,,,,,,,,,,,,,,,,,,,,,,,,,,,
,,,,,,,,,,0,5,5,5,1,sixth,1,22,female,mixed,at home,2021-07-01_11h24.21.266,ImageRatingTask_S1,2021.1.4,MacIntel,66.66666667,,,,,,,,,,,,,,,,,,,,,,,,,,,,,,,,,,
,,,,,,,,,,0,6,6,6,1,seventh,1,22,female,mixed,at home,2021-07-01_11h24.21.266,ImageRatingTask_S1,2021.1.4,MacIntel,66.66666667,,,,,,,,,,,,,,,,,,,,,,,,,,,,,,,,,,
,,,,,,,,,,0,7,7,7,1,last,1,22,female,mixed,at home,2021-07-01_11h24.21.266,ImageRatingTask_S1,2021.1.4,MacIntel,66.66666667,,,,,,,,,,,,,,,,,,,,,,,,,,,,,,,,,,
,,,,,,,,,,,,,,,,1,22,female,mixed,at home,2021-07-01_11h24.21.266,ImageRatingTask_S1,2021.1.4,MacIntel,66.66666667,0,3,3,1,1,test2.jpg,https://www.flickr.com/photos/cavalier92/16036265548/,CC BY-NC-ND 2.0,,,,,,,,,,,,,,,,,,,,,,,,,,
7,3.798,1,1.493,9,2.803,3,3.524,8,1.719,0,0,0,0,1,main,1,22,female,mixed,at home,2021-07-01_11h24.21.266,ImageRatingTask_S1,2021.1.4,MacIntel,66.66666667,,,,,,,,,,,,,,,,,,,,,,,,,,,,,,,,,,
,,,,,,,,1,2.146,0,1,1,1,1,second,1,22,female,mixed,at home,2021-07-01_11h24.21.266,ImageRatingTask_S1,2021.1.4,MacIntel,66.66666667,,,,,,,,,,,,,,,,,,,,,,,,,,,,,,,,,,
,,,,,,,,7,1.374,0,2,2,2,1,third,1,22,female,mixed,at home,2021-07-01_11h24.21.266,ImageRatingTask_S1,2021.1.4,MacIntel,66.66666667,,,,,,,,,,,,,,,,,,,,,,,,,,,,,,,,,,
,,,,,,,,,,0,3,3,3,1,fourth,1,22,female,mixed,at home,2021-07-01_11h24.21.266,ImageRatingTask_S1,2021.1.4,MacIntel,66.66666667,,,,,,,,,,,,,,,,,,,,,,,,,,,,,,,,,,
,,,,,,,,,,0,4,4,4,1,fifth,1,22,female,mixed,at home,2021-07-01_11h24.21.266,ImageRatingTask_S1,2021.1.4,MacIntel,66.66666667,,,,,,,,,,,,,,,,,,,,,,,,,,,,,,,,,,
,,,,,,,,,,0,5,5,5,1,sixth,1,22,female,mixed,at home,2021-07-01_11h24.21.266,ImageRatingTask_S1,2021.1.4,MacIntel,66.66666667,,,,,,,,,,,,,,,,,,,,,,,,,,,,,,,,,,
,,,,,,,,,,0,6,6,6,1,seventh,1,22,female,mixed,at home,2021-07-01_11h24.21.266,ImageRatingTask_S1,2021.1.4,MacIntel,66.66666667,,,,,,,,,,,,,,,,,,,,,,,,,,,,,,,,,,
,,,,,,,,,,0,7,7,7,1,last,1,22,female,mixed,at home,2021-07-01_11h24.21.266,ImageRatingTask_S1,2021.1.4,MacIntel,66.66666667,,,,,,,,,,,,,,,,,,,,,,,,,,,,,,,,,,
,,,,,,,,,,,,,,,,1,22,female,mixed,at home,2021-07-01_11h24.21.266,ImageRatingTask_S1,2021.1.4,MacIntel,66.66666667,0,4,4,0,1,test1.jpg,https://www.flickr.com/photos/julzyax1/8713189147/in/photolist-egXnz6-Kg97g6-paYQjg-cDWcvy-e84vQU-fyRQKZ-dzuwVL-nzCPJw-dzp3r6-SXXSvw-aEgXGF-dzp1D8-aEgZ6F-prcoQG-aEgYd8-dt9EJ8-qTHZUL-dX8ut3-6eqh7x-aEkMyA-avjf71-6eqgKg-pNpDbJ-6euqa5-bo2EMC-q8hCLb-od8yyX-daaz4w-26cjVxB-CXaGmV-C7hSHf-aqmunq-9ek8a1-YcbBUe-apPWHB-HnB8rt-pHQLfh-8YgHaC-aqHteN-d5THbj-5dgTxP-afp2aV-8hNoSm-qhSjJS-d5TqoA-98WoKM-cjnSxo-9b4u7a-d5Tnzf-f7AETL,CC BY-NC 2.0,,,,,,,,,,,,,,,,,,,,,,,,,,
,,,,,,,,,,,,,,,main,1,22,female,mixed,at home,2021-07-01_11h24.21.266,ImageRatingTask_S1,2021.1.4,MacIntel,66.66666667,,,,,,,,,6,3.799,4,26.61,3,5.204,8,3.77,1,4.907,4,1.295,0,0,0,0,1,,,,,,,,,
,,,,,,,,,,,,,,,second,1,22,female,mixed,at home,2021-07-01_11h24.21.266,ImageRatingTask_S1,2021.1.4,MacIntel,66.66666667,,,,,,,,,,,,,,,,,,,,,0,1,1,1,1,,,,,,,,,
,,,,,,,,,,,,,,,third,1,22,female,mixed,at home,2021-07-01_11h24.21.266,ImageRatingTask_S1,2021.1.4,MacIntel,66.66666667,,,,,,,,,,,,,,,,,,,,,0,2,2,2,1,,,,,,,,,
,,,,,,,,,,,,,,,fourth,1,22,female,mixed,at home,2021-07-01_11h24.21.266,ImageRatingTask_S1,2021.1.4,MacIntel,66.66666667,,,,,,,,,,,,,,,,,,,,,0,3,3,3,1,,,,,,,,,
,,,,,,,,,,,,,,,fifth,1,22,female,mixed,at home,2021-07-01_11h24.21.266,ImageRatingTask_S1,2021.1.4,MacIntel,66.66666667,,,,,,,,,,,,,,,,,,,,,0,4,4,4,1,,,,,,,,,
,,,,,,,,,,,,,,,sixth,1,22,female,mixed,at home,2021-07-01_11h24.21.266,ImageRatingTask_S1,2021.1.4,MacIntel,66.66666667,,,,,,,,,,,,,,,,,,,,,0,5,5,5,1,,,,,,,,,
,,,,,,,,,,,,,,,seventh,1,22,female,mixed,at home,2021-07-01_11h24.21.266,ImageRatingTask_S1,2021.1.4,MacIntel,66.66666667,,,,,,,,,,,,,,,,,,,,,0,6,6,6,1,,,,,,,,,
,,,,,,,,,,,,,,,last,1,22,female,mixed,at home,2021-07-01_11h24.21.266,ImageRatingTask_S1,2021.1.4,MacIntel,66.66666667,,,,,,,,,,,,,,,,,,,,,0,7,7,7,1,,,,,,,,,
,,,,,,,,,,,,,,,,1,22,female,mixed,at home,2021-07-01_11h24.21.266,ImageRatingTask_S1,2021.1.4,MacIntel,66.66666667,,,,,,,,,,,,,,,,,,,,,,,,,,0,0,0,150,1,DreamStudyImages_rs1000x750g/Mammals/Animals_111_h.jpg,,,
,,,,,,,,,,,,,,,main,1,22,female,mixed,at home,2021-07-01_11h24.21.266,ImageRatingTask_S1,2021.1.4,MacIntel,66.66666667,,,,,,,,,,,4,5.908,2,2.487,9,2.31,1,3.388,4,3.191,0,0,0,0,1,,,,,,,,,
,,,,,,,,,,,,,,,second,1,22,female,mixed,at home,2021-07-01_11h24.21.266,ImageRatingTask_S1,2021.1.4,MacIntel,66.66666667,,,,,,,,,,,,,,,,,,,,,0,1,1,1,1,,,,,,,,,
,,,,,,,,,,,,,,,third,1,22,female,mixed,at home,2021-07-01_11h24.21.266,ImageRatingTask_S1,2021.1.4,MacIntel,66.66666667,,,,,,,,,,,,,,,,,,,,,0,2,2,2,1,,,,,,,,,
,,,,,,,,,,,,,,,fourth,1,22,female,mixed,at home,2021-07-01_11h24.21.266,ImageRatingTask_S1,2021.1.4,MacIntel,66.66666667,,,,,,,,,,,,,,,,,,,,,0,3,3,3,1,,,,,,,,,
,,,,,,,,,,,,,,,fifth,1,22,female,mixed,at home,2021-07-01_11h24.21.266,ImageRatingTask_S1,2021.1.4,MacIntel,66.66666667,,,,,,,,,,,,,,,,,,,,,0,4,4,4,1,,,,,,,,,
,,,,,,,,,,,,,,,sixth,1,22,female,mixed,at home,2021-07-01_11h24.21.266,ImageRatingTask_S1,2021.1.4,MacIntel,66.66666667,,,,,,,,,,,,,,,,,,,,,0,5,5,5,1,,,,,,,,,
,,,,,,,,,,,,,,,seventh,1,22,female,mixed,at home,2021-07-01_11h24.21.266,ImageRatingTask_S1,2021.1.4,MacIntel,66.66666667,,,,,,,,,,,,,,,,,,,,,0,6,6,6,1,,,,,,,,,
,,,,,,,,,,,,,,,last,1,22,female,mixed,at home,2021-07-01_11h24.21.266,ImageRatingTask_S1,2021.1.4,MacIntel,66.66666667,,,,,,,,,,,,,,,,,,,,,0,7,7,7,1,,,,,,,,,
,,,,,,,,,,,,,,,,1,22,female,mixed,at home,2021-07-01_11h24.21.266,ImageRatingTask_S1,2021.1.4,MacIntel,66.66666667,,,,,,,,,,,,,,,,,,,,,,,,,,0,1,1,70,1,DreamStudyImages_rs1000x750g/Mammals/Raccoon 1.jpg,,,
,,,,,,,,,,,,,,,main,1,22,female,mixed,at home,2021-07-01_11h24.21.266,ImageRatingTask_S1,2021.1.4,MacIntel,66.66666667,,,,,,,,,,,5,3.557,1,1.645,8,2.559,1,3.106,7,1.031,0,0,0,0,1,,,,,,,,,
,,,,,,,,,,,,,,,second,1,22,female,mixed,at home,2021-07-01_11h24.21.266,ImageRatingTask_S1,2021.1.4,MacIntel,66.66666667,,,,,,,,,,,,,,,,,,,,,0,1,1,1,1,,,,,,,,,
,,,,,,,,,,,,,,,third,1,22,female,mixed,at home,2021-07-01_11h24.21.266,ImageRatingTask_S1,2021.1.4,MacIntel,66.66666667,,,,,,,,,,,,,,,,,,,,,0,2,2,2,1,,,,,,,,,
,,,,,,,,,,,,,,,fourth,1,22,female,mixed,at home,2021-07-01_11h24.21.266,ImageRatingTask_S1,2021.1.4,MacIntel,66.66666667,,,,,,,,,,,,,,,,,,,,,0,3,3,3,1,,,,,,,,,
,,,,,,,,,,,,,,,fifth,1,22,female,mixed,at home,2021-07-01_11h24.21.266,ImageRatingTask_S1,2021.1.4,MacIntel,66.66666667,,,,,,,,,,,,,,,,,,,,,0,4,4,4,1,,,,,,,,,
,,,,,,,,,,,,,,,sixth,1,22,female,mixed,at home,2021-07-01_11h24.21.266,ImageRatingTask_S1,2021.1.4,MacIntel,66.66666667,,,,,,,,,,,,,,,,,,,,,0,5,5,5,1,,,,,,,,,
,,,,,,,,,,,,,,,seventh,1,22,female,mixed,at home,2021-07-01_11h24.21.266,ImageRatingTask_S1,2021.1.4,MacIntel,66.66666667,,,,,,,,,,,,,,,,,,,,,0,6,6,6,1,,,,,,,,,
,,,,,,,,,,,,,,,last,1,22,female,mixed,at home,2021-07-01_11h24.21.266,ImageRatingTask_S1,2021.1.4,MacIntel,66.66666667,,,,,,,,,,,,,,,,,,,,,0,7,7,7,1,,,,,,,,,
,,,,,,,,,,,,,,,,1,22,female,mixed,at home,2021-07-01_11h24.21.266,ImageRatingTask_S1,2021.1.4,MacIntel,66.66666667,,,,,,,,,,,,,,,,,,,,,,,,,,0,2,2,132,1,DreamStudyImages_rs1000x750g/Vehicles/vespa.jpg,,,
,,,,,,,,,,,,,,,main,1,22,female,mixed,at home,2021-07-01_11h24.21.266,ImageRatingTask_S1,2021.1.4,MacIntel,66.66666667,,,,,,,,,,,6,5.657,2,2.134,9,2.162,1,2.84,3,2.415,0,0,0,0,1,,,,,,,,,
,,,,,,,,,,,,,,,second,1,22,female,mixed,at home,2021-07-01_11h24.21.266,ImageRatingTask_S1,2021.1.4,MacIntel,66.66666667,,,,,,,,,,,,,,,,,,,,,0,1,1,1,1,,,,,,,,,
,,,,,,,,,,,,,,,third,1,22,female,mixed,at home,2021-07-01_11h24.21.266,ImageRatingTask_S1,2021.1.4,MacIntel,66.66666667,,,,,,,,,,,,,,,,,,,,,0,2,2,2,1,,,,,,,,,
,,,,,,,,,,,,,,,fourth,1,22,female,mixed,at home,2021-07-01_11h24.21.266,ImageRatingTask_S1,2021.1.4,MacIntel,66.66666667,,,,,,,,,,,,,,,,,,,,,0,3,3,3,1,,,,,,,,,
,,,,,,,,,,,,,,,fifth,1,22,female,mixed,at home,2021-07-01_11h24.21.266,ImageRatingTask_S1,2021.1.4,MacIntel,66.66666667,,,,,,,,,,,,,,,,,,,,,0,4,4,4,1,,,,,,,,,
,,,,,,,,,,,,,,,sixth,1,22,female,mixed,at home,2021-07-01_11h24.21.266,ImageRatingTask_S1,2021.1.4,MacIntel,66.66666667,,,,,,,,,,,,,,,,,,,,,0,5,5,5,1,,,,,,,,,
,,,,,,,,,,,,,,,seventh,1,22,female,mixed,at home,2021-07-01_11h24.21.266,ImageRatingTask_S1,2021.1.4,MacIntel,66.66666667,,,,,,,,,,,,,,,,,,,,,0,6,6,6,1,,,,,,,,,
,,,,,,,,,,,,,,,last,1,22,female,mixed,at home,2021-07-01_11h24.21.266,ImageRatingTask_S1,2021.1.4,MacIntel,66.66666667,,,,,,,,,,,,,,,,,,,,,0,7,7,7,1,,,,,,,,,
,,,,,,,,,,,,,,,,1,22,female,mixed,at home,2021-07-01_11h24.21.266,ImageRatingTask_S1,2021.1.4,MacIntel,66.66666667,,,,,,,,,,,,,,,,,,,,,,,,,,0,3,3,59,1,DreamStudyImages_rs1000x750g/Mammals/Animals_203_h.jpg,,,
,,,,,,,,,,,,,,,main,1,22,female,mixed,at home,2021-07-01_11h24.21.266,ImageRatingTask_S1,2021.1.4,MacIntel,66.66666667,,,,,,,,,,,6,4.102,2,2.403,9,4.286,1,1.914,2,1.056,0,0,0,0,1,,,,,,,,,
,,,,,,,,,,,,,,,second,1,22,female,mixed,at home,2021-07-01_11h24.21.266,ImageRatingTask_S1,2021.1.4,MacIntel,66.66666667,,,,,,,,,,,,,,,,,,,,,0,1,1,1,1,,,,,,,,,
,,,,,,,,,,,,,,,third,1,22,female,mixed,at home,2021-07-01_11h24.21.266,ImageRatingTask_S1,2021.1.4,MacIntel,66.66666667,,,,,,,,,,,,,,,,,,,,,0,2,2,2,1,,,,,,,,,
,,,,,,,,,,,,,,,fourth,1,22,female,mixed,at home,2021-07-01_11h24.21.266,ImageRatingTask_S1,2021.1.4,MacIntel,66.66666667,,,,,,,,,,,,,,,,,,,,,0,3,3,3,1,,,,,,,,,
,,,,,,,,,,,,,,,fifth,1,22,female,mixed,at home,2021-07-01_11h24.21.266,ImageRatingTask_S1,2021.1.4,MacIntel,66.66666667,,,,,,,,,,,,,,,,,,,,,0,4,4,4,1,,,,,,,,,
,,,,,,,,,,,,,,,sixth,1,22,female,mixed,at home,2021-07-01_11h24.21.266,ImageRatingTask_S1,2021.1.4,MacIntel,66.66666667,,,,,,,,,,,,,,,,,,,,,0,5,5,5,1,,,,,,,,,
,,,,,,,,,,,,,,,seventh,1,22,female,mixed,at home,2021-07-01_11h24.21.266,ImageRatingTask_S1,2021.1.4,MacIntel,66.66666667,,,,,,,,,,,,,,,,,,,,,0,6,6,6,1,,,,,,,,,
,,,,,,,,,,,,,,,last,1,22,female,mixed,at home,2021-07-01_11h24.21.266,ImageRatingTask_S1,2021.1.4,MacIntel,66.66666667,,,,,,,,,,,,,,,,,,,,,0,7,7,7,1,,,,,,,,,
,,,,,,,,,,,,,,,,1,22,female,mixed,at home,2021-07-01_11h24.21.266,ImageRatingTask_S1,2021.1.4,MacIntel,66.66666667,,,,,,,,,,,,,,,,,,,,,,,,,,0,4,4,123,1,DreamStudyImages_rs1000x750g/Children/Faces_085_h.jpg,,,
,,,,,,,,,,,,,,,main,1,22,female,mixed,at home,2021-07-01_11h24.21.266,ImageRatingTask_S1,2021.1.4,MacIntel,66.66666667,,,,,,,,,,,4,6.037,2,2.779,6,4.471,1,3.902,5,1.72,0,0,0,0,1,,,,,,,,,
,,,,,,,,,,,,,,,second,1,22,female,mixed,at home,2021-07-01_11h24.21.266,ImageRatingTask_S1,2021.1.4,MacIntel,66.66666667,,,,,,,,,,,,,,,,,,,,,0,1,1,1,1,,,,,,,,,
,,,,,,,,,,,,,,,third,1,22,female,mixed,at home,2021-07-01_11h24.21.266,ImageRatingTask_S1,2021.1.4,MacIntel,66.66666667,,,,,,,,,,,,,,,,,,,,,0,2,2,2,1,,,,,,,,,
,,,,,,,,,,,,,,,fourth,1,22,female,mixed,at home,2021-07-01_11h24.21.266,ImageRatingTask_S1,2021.1.4,MacIntel,66.66666667,,,,,,,,,,,,,,,,,,,,,0,3,3,3,1,,,,,,,,,
,,,,,,,,,,,,,,,fifth,1,22,female,mixed,at home,2021-07-01_11h24.21.266,ImageRatingTask_S1,2021.1.4,MacIntel,66.66666667,,,,,,,,,,,,,,,,,,,,,0,4,4,4,1,,,,,,,,,
,,,,,,,,,,,,,,,sixth,1,22,female,mixed,at home,2021-07-01_11h24.21.266,ImageRatingTask_S1,2021.1.4,MacIntel,66.66666667,,,,,,,,,,,,,,,,,,,,,0,5,5,5,1,,,,,,,,,
,,,,,,,,,,,,,,,seventh,1,22,female,mixed,at home,2021-07-01_11h24.21.266,ImageRatingTask_S1,2021.1.4,MacIntel,66.66666667,,,,,,,,,,,,,,,,,,,,,0,6,6,6,1,,,,,,,,,
,,,,,,,,,,,,,,,last,1,22,female,mixed,at home,2021-07-01_11h24.21.266,ImageRatingTask_S1,2021.1.4,MacIntel,66.66666667,,,,,,,,,,,,,,,,,,,,,0,7,7,7,1,,,,,,,,,
,,,,,,,,,,,,,,,,1,22,female,mixed,at home,2021-07-01_11h24.21.266,ImageRatingTask_S1,2021.1.4,MacIntel,66.66666667,,,,,,,,,,,,,,,,,,,,,,,,,,0,5,5,8,1,DreamStudyImages_rs1000x750g/Food/Objects_018_h.jpg,,,
,,,,,,,,,,,,,,,main,1,22,female,mixed,at home,2021-07-01_11h24.21.266,ImageRatingTask_S1,2021.1.4,MacIntel,66.66666667,,,,,,,,,,,3,4.81,3,2.917,8,3.067,1,2.671,2,1.065,0,0,0,0,1,,,,,,,,,
,,,,,,,,,,,,,,,second,1,22,female,mixed,at home,2021-07-01_11h24.21.266,ImageRatingTask_S1,2021.1.4,MacIntel,66.66666667,,,,,,,,,,,,,,,,,,,,,0,1,1,1,1,,,,,,,,,
,,,,,,,,,,,,,,,third,1,22,female,mixed,at home,2021-07-01_11h24.21.266,ImageRatingTask_S1,2021.1.4,MacIntel,66.66666667,,,,,,,,,,,,,,,,,,,,,0,2,2,2,1,,,,,,,,,
,,,,,,,,,,,,,,,fourth,1,22,female,mixed,at home,2021-07-01_11h24.21.266,ImageRatingTask_S1,2021.1.4,MacIntel,66.66666667,,,,,,,,,,,,,,,,,,,,,0,3,3,3,1,,,,,,,,,
,,,,,,,,,,,,,,,fifth,1,22,female,mixed,at home,2021-07-01_11h24.21.266,ImageRatingTask_S1,2021.1.4,MacIntel,66.66666667,,,,,,,,,,,,,,,,,,,,,0,4,4,4,1,,,,,,,,,
,,,,,,,,,,,,,,,sixth,1,22,female,mixed,at home,2021-07-01_11h24.21.266,ImageRatingTask_S1,2021.1.4,MacIntel,66.66666667,,,,,,,,,,,,,,,,,,,,,0,5,5,5,1,,,,,,,,,
,,,,,,,,,,,,,,,seventh,1,22,female,mixed,at home,2021-07-01_11h24.21.266,ImageRatingTask_S1,2021.1.4,MacIntel,66.66666667,,,,,,,,,,,,,,,,,,,,,0,6,6,6,1,,,,,,,,,
,,,,,,,,,,,,,,,last,1,22,female,mixed,at home,2021-07-01_11h24.21.266,ImageRatingTask_S1,2021.1.4,MacIntel,66.66666667,,,,,,,,,,,,,,,,,,,,,0,7,7,7,1,,,,,,,,,
,,,,,,,,,,,,,,,,1,22,female,mixed,at home,2021-07-01_11h24.21.266,ImageRatingTask_S1,2021.1.4,MacIntel,66.66666667,,,,,,,,,,,,,,,,,,,,,,,,,,0,6,6,68,1,DreamStudyImages_rs1000x750g/Children/Faces_155_h.jpg,,,
,,,,,,,,,,,,,,,main,1,22,female,mixed,at home,2021-07-01_11h24.21.266,ImageRatingTask_S1,2021.1.4,MacIntel,66.66666667,,,,,,,,,,,7,5.021,2,2.454,8,2.802,1,2.055,2,0.937,0,0,0,0,1,,,,,,,,,
,,,,,,,,,,,,,,,second,1,22,female,mixed,at home,2021-07-01_11h24.21.266,ImageRatingTask_S1,2021.1.4,MacIntel,66.66666667,,,,,,,,,,,,,,,,,,,,,0,1,1,1,1,,,,,,,,,
,,,,,,,,,,,,,,,third,1,22,female,mixed,at home,2021-07-01_11h24.21.266,ImageRatingTask_S1,2021.1.4,MacIntel,66.66666667,,,,,,,,,,,,,,,,,,,,,0,2,2,2,1,,,,,,,,,
,,,,,,,,,,,,,,,fourth,1,22,female,mixed,at home,2021-07-01_11h24.21.266,ImageRatingTask_S1,2021.1.4,MacIntel,66.66666667,,,,,,,,,,,,,,,,,,,,,0,3,3,3,1,,,,,,,,,
,,,,,,,,,,,,,,,fifth,1,22,female,mixed,at home,2021-07-01_11h24.21.266,ImageRatingTask_S1,2021.1.4,MacIntel,66.66666667,,,,,,,,,,,,,,,,,,,,,0,4,4,4,1,,,,,,,,,
,,,,,,,,,,,,,,,sixth,1,22,female,mixed,at home,2021-07-01_11h24.21.266,ImageRatingTask_S1,2021.1.4,MacIntel,66.66666667,,,,,,,,,,,,,,,,,,,,,0,5,5,5,1,,,,,,,,,
,,,,,,,,,,,,,,,seventh,1,22,female,mixed,at home,2021-07-01_11h24.21.266,ImageRatingTask_S1,2021.1.4,MacIntel,66.66666667,,,,,,,,,,,,,,,,,,,,,0,6,6,6,1,,,,,,,,,
,,,,,,,,,,,,,,,last,1,22,female,mixed,at home,2021-07-01_11h24.21.266,ImageRatingTask_S1,2021.1.4,MacIntel,66.66666667,,,,,,,,,,,,,,,,,,,,,0,7,7,7,1,,,,,,,,,
,,,,,,,,,,,,,,,,1,22,female,mixed,at home,2021-07-01_11h24.21.266,ImageRatingTask_S1,2021.1.4,MacIntel,66.66666667,,,,,,,,,,,,,,,,,,,,,,,,,,0,7,7,69,1,DreamStudyImages_rs1000x750g/Children/Faces_131_v.jpg,,,
,,,,,,,,,,,,,,,main,1,22,female,mixed,at home,2021-07-01_11h24.21.266,ImageRatingTask_S1,2021.1.4,MacIntel,66.66666667,,,,,,,,,,,3,6.445,3,1.559,8,6.804,1,4.191,5,1.695,0,0,0,0,1,,,,,,,,,
,,,,,,,,,,,,,,,second,1,22,female,mixed,at home,2021-07-01_11h24.21.266,ImageRatingTask_S1,2021.1.4,MacIntel,66.66666667,,,,,,,,,,,,,,,,,,,,,0,1,1,1,1,,,,,,,,,
,,,,,,,,,,,,,,,third,1,22,female,mixed,at home,2021-07-01_11h24.21.266,ImageRatingTask_S1,2021.1.4,MacIntel,66.66666667,,,,,,,,,,,,,,,,,,,,,0,2,2,2,1,,,,,,,,,
,,,,,,,,,,,,,,,fourth,1,22,female,mixed,at home,2021-07-01_11h24.21.266,ImageRatingTask_S1,2021.1.4,MacIntel,66.66666667,,,,,,,,,,,,,,,,,,,,,0,3,3,3,1,,,,,,,,,
,,,,,,,,,,,,,,,fifth,1,22,female,mixed,at home,2021-07-01_11h24.21.266,ImageRatingTask_S1,2021.1.4,MacIntel,66.66666667,,,,,,,,,,,,,,,,,,,,,0,4,4,4,1,,,,,,,,,
,,,,,,,,,,,,,,,sixth,1,22,female,mixed,at home,2021-07-01_11h24.21.266,ImageRatingTask_S1,2021.1.4,MacIntel,66.66666667,,,,,,,,,,,,,,,,,,,,,0,5,5,5,1,,,,,,,,,
,,,,,,,,,,,,,,,seventh,1,22,female,mixed,at home,2021-07-01_11h24.21.266,ImageRatingTask_S1,2021.1.4,MacIntel,66.66666667,,,,,,,,,,,,,,,,,,,,,0,6,6,6,1,,,,,,,,,
,,,,,,,,,,,,,,,last,1,22,female,mixed,at home,2021-07-01_11h24.21.266,ImageRatingTask_S1,2021.1.4,MacIntel,66.66666667,,,,,,,,,,,,,,,,,,,,,0,7,7,7,1,,,,,,,,,
,,,,,,,,,,,,,,,,1,22,female,mixed,at home,2021-07-01_11h24.21.266,ImageRatingTask_S1,2021.1.4,MacIntel,66.66666667,,,,,,,,,,,,,,,,,,,,,,,,,,0,8,8,119,1,DreamStudyImages_rs1000x750g/Food/food_neg_5.jpg,,,
,,,,,,,,,,,,,,,main,1,22,female,mixed,at home,2021-07-01_11h24.21.266,ImageRatingTask_S1,2021.1.4,MacIntel,66.66666667,,,,,,,,,,,5,4.955,1,1.372,7,3.751,1,2.891,3,0.651,0,0,0,0,1,,,,,,,,,
,,,,,,,,,,,,,,,second,1,22,female,mixed,at home,2021-07-01_11h24.21.266,ImageRatingTask_S1,2021.1.4,MacIntel,66.66666667,,,,,,,,,,,,,,,,,,,,,0,1,1,1,1,,,,,,,,,
,,,,,,,,,,,,,,,third,1,22,female,mixed,at home,2021-07-01_11h24.21.266,ImageRatingTask_S1,2021.1.4,MacIntel,66.66666667,,,,,,,,,,,,,,,,,,,,,0,2,2,2,1,,,,,,,,,
,,,,,,,,,,,,,,,fourth,1,22,female,mixed,at home,2021-07-01_11h24.21.266,ImageRatingTask_S1,2021.1.4,MacIntel,66.66666667,,,,,,,,,,,,,,,,,,,,,0,3,3,3,1,,,,,,,,,
,,,,,,,,,,,,,,,fifth,1,22,female,mixed,at home,2021-07-01_11h24.21.266,ImageRatingTask_S1,2021.1.4,MacIntel,66.66666667,,,,,,,,,,,,,,,,,,,,,0,4,4,4,1,,,,,,,,,
,,,,,,,,,,,,,,,sixth,1,22,female,mixed,at home,2021-07-01_11h24.21.266,ImageRatingTask_S1,2021.1.4,MacIntel,66.66666667,,,,,,,,,,,,,,,,,,,,,0,5,5,5,1,,,,,,,,,
,,,,,,,,,,,,,,,seventh,1,22,female,mixed,at home,2021-07-01_11h24.21.266,ImageRatingTask_S1,2021.1.4,MacIntel,66.66666667,,,,,,,,,,,,,,,,,,,,,0,6,6,6,1,,,,,,,,,
,,,,,,,,,,,,,,,last,1,22,female,mixed,at home,2021-07-01_11h24.21.266,ImageRatingTask_S1,2021.1.4,MacIntel,66.66666667,,,,,,,,,,,,,,,,,,,,,0,7,7,7,1,,,,,,,,,
,,,,,,,,,,,,,,,,1,22,female,mixed,at home,2021-07-01_11h24.21.266,ImageRatingTask_S1,2021.1.4,MacIntel,66.66666667,,,,,,,,,,,,,,,,,,,,,,,,,,0,9,9,57,1,DreamStudyImages_rs1000x750g/Mammals/IAPS1660_gorilla2.jpg,,,
,,,,,,,,,,,,,,,main,1,22,female,mixed,at home,2021-07-01_11h24.21.266,ImageRatingTask_S1,2021.1.4,MacIntel,66.66666667,,,,,,,,,,,5,10.32,1,1.783,8,4.659,1,2.301,5,1.14,0,0,0,0,1,,,,,,,,,
,,,,,,,,,,,,,,,second,1,22,female,mixed,at home,2021-07-01_11h24.21.266,ImageRatingTask_S1,2021.1.4,MacIntel,66.66666667,,,,,,,,,,,,,,,,,,,,,0,1,1,1,1,,,,,,,,,
,,,,,,,,,,,,,,,third,1,22,female,mixed,at home,2021-07-01_11h24.21.266,ImageRatingTask_S1,2021.1.4,MacIntel,66.66666667,,,,,,,,,,,,,,,,,,,,,0,2,2,2,1,,,,,,,,,
,,,,,,,,,,,,,,,fourth,1,22,female,mixed,at home,2021-07-01_11h24.21.266,ImageRatingTask_S1,2021.1.4,MacIntel,66.66666667,,,,,,,,,,,,,,,,,,,,,0,3,3,3,1,,,,,,,,,
,,,,,,,,,,,,,,,fifth,1,22,female,mixed,at home,2021-07-01_11h24.21.266,ImageRatingTask_S1,2021.1.4,MacIntel,66.66666667,,,,,,,,,,,,,,,,,,,,,0,4,4,4,1,,,,,,,,,
,,,,,,,,,,,,,,,sixth,1,22,female,mixed,at home,2021-07-01_11h24.21.266,ImageRatingTask_S1,2021.1.4,MacIntel,66.66666667,,,,,,,,,,,,,,,,,,,,,0,5,5,5,1,,,,,,,,,
,,,,,,,,,,,,,,,seventh,1,22,female,mixed,at home,2021-07-01_11h24.21.266,ImageRatingTask_S1,2021.1.4,MacIntel,66.66666667,,,,,,,,,,,,,,,,,,,,,0,6,6,6,1,,,,,,,,,
,,,,,,,,,,,,,,,last,1,22,female,mixed,at home,2021-07-01_11h24.21.266,ImageRatingTask_S1,2021.1.4,MacIntel,66.66666667,,,,,,,,,,,,,,,,,,,,,0,7,7,7,1,,,,,,,,,
,,,,,,,,,,,,,,,,1,22,female,mixed,at home,2021-07-01_11h24.21.266,ImageRatingTask_S1,2021.1.4,MacIntel,66.66666667,,,,,,,,,,,,,,,,,,,,,,,,,,0,10,10,142,1,DreamStudyImages_rs1000x750g/Food/Objects_090_h.jpg,,,
,,,,,,,,,,,,,,,main,1,22,female,mixed,at home,2021-07-01_11h24.21.266,ImageRatingTask_S1,2021.1.4,MacIntel,66.66666667,,,,,,,,,,,2,8.009,3,3.583,8,1.924,1,2.628,6,2.193,0,0,0,0,1,,,,,,,,,
,,,,,,,,,,,,,,,second,1,22,female,mixed,at home,2021-07-01_11h24.21.266,ImageRatingTask_S1,2021.1.4,MacIntel,66.66666667,,,,,,,,,,,,,,,,,,,,,0,1,1,1,1,,,,,,,,,
,,,,,,,,,,,,,,,third,1,22,female,mixed,at home,2021-07-01_11h24.21.266,ImageRatingTask_S1,2021.1.4,MacIntel,66.66666667,,,,,,,,,,,,,,,,,,,,,0,2,2,2,1,,,,,,,,,
,,,,,,,,,,,,,,,fourth,1,22,female,mixed,at home,2021-07-01_11h24.21.266,ImageRatingTask_S1,2021.1.4,MacIntel,66.66666667,,,,,,,,,,,,,,,,,,,,,0,3,3,3,1,,,,,,,,,
,,,,,,,,,,,,,,,fifth,1,22,female,mixed,at home,2021-07-01_11h24.21.266,ImageRatingTask_S1,2021.1.4,MacIntel,66.66666667,,,,,,,,,,,,,,,,,,,,,0,4,4,4,1,,,,,,,,,
,,,,,,,,,,,,,,,sixth,1,22,female,mixed,at home,2021-07-01_11h24.21.266,ImageRatingTask_S1,2021.1.4,MacIntel,66.66666667,,,,,,,,,,,,,,,,,,,,,0,5,5,5,1,,,,,,,,,
,,,,,,,,,,,,,,,seventh,1,22,female,mixed,at home,2021-07-01_11h24.21.266,ImageRatingTask_S1,2021.1.4,MacIntel,66.66666667,,,,,,,,,,,,,,,,,,,,,0,6,6,6,1,,,,,,,,,
,,,,,,,,,,,,,,,last,1,22,female,mixed,at home,2021-07-01_11h24.21.266,ImageRatingTask_S1,2021.1.4,MacIntel,66.66666667,,,,,,,,,,,,,,,,,,,,,0,7,7,7,1,,,,,,,,,
,,,,,,,,,,,,,,,,1,22,female,mixed,at home,2021-07-01_11h24.21.266,ImageRatingTask_S1,2021.1.4,MacIntel,66.66666667,,,,,,,,,,,,,,,,,,,,,,,,,,0,11,11,140,1,DreamStudyImages_rs1000x750g/Houses/Landscapes_001_h.jpg,,,
,,,,,,,,,,,,,,,main,1,22,female,mixed,at home,2021-07-01_11h24.21.266,ImageRatingTask_S1,2021.1.4,MacIntel,66.66666667,,,,,,,,,,,6,3.046,2,2.008,7,2.32,1,5.148,5,1.255,0,0,0,0,1,,,,,,,,,
,,,,,,,,,,,,,,,second,1,22,female,mixed,at home,2021-07-01_11h24.21.266,ImageRatingTask_S1,2021.1.4,MacIntel,66.66666667,,,,,,,,,,,,,,,,,,,,,0,1,1,1,1,,,,,,,,,
,,,,,,,,,,,,,,,third,1,22,female,mixed,at home,2021-07-01_11h24.21.266,ImageRatingTask_S1,2021.1.4,MacIntel,66.66666667,,,,,,,,,,,,,,,,,,,,,0,2,2,2,1,,,,,,,,,
,,,,,,,,,,,,,,,fourth,1,22,female,mixed,at home,2021-07-01_11h24.21.266,ImageRatingTask_S1,2021.1.4,MacIntel,66.66666667,,,,,,,,,,,,,,,,,,,,,0,3,3,3,1,,,,,,,,,
,,,,,,,,,,,,,,,fifth,1,22,female,mixed,at home,2021-07-01_11h24.21.266,ImageRatingTask_S1,2021.1.4,MacIntel,66.66666667,,,,,,,,,,,,,,,,,,,,,0,4,4,4,1,,,,,,,,,
,,,,,,,,,,,,,,,sixth,1,22,female,mixed,at home,2021-07-01_11h24.21.266,ImageRatingTask_S1,2021.1.4,MacIntel,66.66666667,,,,,,,,,,,,,,,,,,,,,0,5,5,5,1,,,,,,,,,
,,,,,,,,,,,,,,,seventh,1,22,female,mixed,at home,2021-07-01_11h24.21.266,ImageRatingTask_S1,2021.1.4,MacIntel,66.66666667,,,,,,,,,,,,,,,,,,,,,0,6,6,6,1,,,,,,,,,
,,,,,,,,,,,,,,,last,1,22,female,mixed,at home,2021-07-01_11h24.21.266,ImageRatingTask_S1,2021.1.4,MacIntel,66.66666667,,,,,,,,,,,,,,,,,,,,,0,7,7,7,1,,,,,,,,,
,,,,,,,,,,,,,,,,1,22,female,mixed,at home,2021-07-01_11h24.21.266,ImageRatingTask_S1,2021.1.4,MacIntel,66.66666667,,,,,,,,,,,,,,,,,,,,,,,,,,0,12,12,145,1,DreamStudyImages_rs1000x750g/Food/Objects_049_h.jpg,,,
,,,,,,,,,,,,,,,main,1,22,female,mixed,at home,2021-07-01_11h24.21.266,ImageRatingTask_S1,2021.1.4,MacIntel,66.66666667,,,,,,,,,,,5,3.952,1,4.046,9,1.57,1,2.991,2,0.907,0,0,0,0,1,,,,,,,,,
,,,,,,,,,,,,,,,second,1,22,female,mixed,at home,2021-07-01_11h24.21.266,ImageRatingTask_S1,2021.1.4,MacIntel,66.66666667,,,,,,,,,,,,,,,,,,,,,0,1,1,1,1,,,,,,,,,
,,,,,,,,,,,,,,,third,1,22,female,mixed,at home,2021-07-01_11h24.21.266,ImageRatingTask_S1,2021.1.4,MacIntel,66.66666667,,,,,,,,,,,,,,,,,,,,,0,2,2,2,1,,,,,,,,,
,,,,,,,,,,,,,,,fourth,1,22,female,mixed,at home,2021-07-01_11h24.21.266,ImageRatingTask_S1,2021.1.4,MacIntel,66.66666667,,,,,,,,,,,,,,,,,,,,,0,3,3,3,1,,,,,,,,,
,,,,,,,,,,,,,,,fifth,1,22,female,mixed,at home,2021-07-01_11h24.21.266,ImageRatingTask_S1,2021.1.4,MacIntel,66.66666667,,,,,,,,,,,,,,,,,,,,,0,4,4,4,1,,,,,,,,,
,,,,,,,,,,,,,,,sixth,1,22,female,mixed,at home,2021-07-01_11h24.21.266,ImageRatingTask_S1,2021.1.4,MacIntel,66.66666667,,,,,,,,,,,,,,,,,,,,,0,5,5,5,1,,,,,,,,,
,,,,,,,,,,,,,,,seventh,1,22,female,mixed,at home,2021-07-01_11h24.21.266,ImageRatingTask_S1,2021.1.4,MacIntel,66.66666667,,,,,,,,,,,,,,,,,,,,,0,6,6,6,1,,,,,,,,,
,,,,,,,,,,,,,,,last,1,22,female,mixed,at home,2021-07-01_11h24.21.266,ImageRatingTask_S1,2021.1.4,MacIntel,66.66666667,,,,,,,,,,,,,,,,,,,,,0,7,7,7,1,,,,,,,,,
,,,,,,,,,,,,,,,,1,22,female,mixed,at home,2021-07-01_11h24.21.266,ImageRatingTask_S1,2021.1.4,MacIntel,66.66666667,,,,,,,,,,,,,,,,,,,,,,,,,,0,13,13,108,1,DreamStudyImages_rs1000x750g/Children/Faces_075_v.jpg,,,
,,,,,,,,,,,,,,,main,1,22,female,mixed,at home,2021-07-01_11h24.21.266,ImageRatingTask_S1,2021.1.4,MacIntel,66.66666667,,,,,,,,,,,5,6.377,1,1.71,7,3.352,1,5.074,3,1.149,0,0,0,0,1,,,,,,,,,
,,,,,,,,,,,,,,,second,1,22,female,mixed,at home,2021-07-01_11h24.21.266,ImageRatingTask_S1,2021.1.4,MacIntel,66.66666667,,,,,,,,,,,,,,,,,,,,,0,1,1,1,1,,,,,,,,,
,,,,,,,,,,,,,,,third,1,22,female,mixed,at home,2021-07-01_11h24.21.266,ImageRatingTask_S1,2021.1.4,MacIntel,66.66666667,,,,,,,,,,,,,,,,,,,,,0,2,2,2,1,,,,,,,,,
,,,,,,,,,,,,,,,fourth,1,22,female,mixed,at home,2021-07-01_11h24.21.266,ImageRatingTask_S1,2021.1.4,MacIntel,66.66666667,,,,,,,,,,,,,,,,,,,,,0,3,3,3,1,,,,,,,,,
,,,,,,,,,,,,,,,fifth,1,22,female,mixed,at home,2021-07-01_11h24.21.266,ImageRatingTask_S1,2021.1.4,MacIntel,66.66666667,,,,,,,,,,,,,,,,,,,,,0,4,4,4,1,,,,,,,,,
,,,,,,,,,,,,,,,sixth,1,22,female,mixed,at home,2021-07-01_11h24.21.266,ImageRatingTask_S1,2021.1.4,MacIntel,66.66666667,,,,,,,,,,,,,,,,,,,,,0,5,5,5,1,,,,,,,,,
,,,,,,,,,,,,,,,seventh,1,22,female,mixed,at home,2021-07-01_11h24.21.266,ImageRatingTask_S1,2021.1.4,MacIntel,66.66666667,,,,,,,,,,,,,,,,,,,,,0,6,6,6,1,,,,,,,,,
,,,,,,,,,,,,,,,last,1,22,female,mixed,at home,2021-07-01_11h24.21.266,ImageRatingTask_S1,2021.1.4,MacIntel,66.66666667,,,,,,,,,,,,,,,,,,,,,0,7,7,7,1,,,,,,,,,
,,,,,,,,,,,,,,,,1,22,female,mixed,at home,2021-07-01_11h24.21.266,ImageRatingTask_S1,2021.1.4,MacIntel,66.66666667,,,,,,,,,,,,,,,,,,,,,,,,,,0,14,14,5,1,DreamStudyImages_rs1000x750g/Mammals/Animals_102_h.jpg,,,
,,,,,,,,,,,,,,,main,1,22,female,mixed,at home,2021-07-01_11h24.21.266,ImageRatingTask_S1,2021.1.4,MacIntel,66.66666667,,,,,,,,,,,7,3.099,2,2.365,8,3.18,1,5.213,3,1.386,0,0,0,0,1,,,,,,,,,
,,,,,,,,,,,,,,,second,1,22,female,mixed,at home,2021-07-01_11h24.21.266,ImageRatingTask_S1,2021.1.4,MacIntel,66.66666667,,,,,,,,,,,,,,,,,,,,,0,1,1,1,1,,,,,,,,,
,,,,,,,,,,,,,,,third,1,22,female,mixed,at home,2021-07-01_11h24.21.266,ImageRatingTask_S1,2021.1.4,MacIntel,66.66666667,,,,,,,,,,,,,,,,,,,,,0,2,2,2,1,,,,,,,,,
,,,,,,,,,,,,,,,fourth,1,22,female,mixed,at home,2021-07-01_11h24.21.266,ImageRatingTask_S1,2021.1.4,MacIntel,66.66666667,,,,,,,,,,,,,,,,,,,,,0,3,3,3,1,,,,,,,,,
,,,,,,,,,,,,,,,fifth,1,22,female,mixed,at home,2021-07-01_11h24.21.266,ImageRatingTask_S1,2021.1.4,MacIntel,66.66666667,,,,,,,,,,,,,,,,,,,,,0,4,4,4,1,,,,,,,,,
,,,,,,,,,,,,,,,sixth,1,22,female,mixed,at home,2021-07-01_11h24.21.266,ImageRatingTask_S1,2021.1.4,MacIntel,66.66666667,,,,,,,,,,,,,,,,,,,,,0,5,5,5,1,,,,,,,,,
,,,,,,,,,,,,,,,seventh,1,22,female,mixed,at home,2021-07-01_11h24.21.266,ImageRatingTask_S1,2021.1.4,MacIntel,66.66666667,,,,,,,,,,,,,,,,,,,,,0,6,6,6,1,,,,,,,,,
,,,,,,,,,,,,,,,last,1,22,female,mixed,at home,2021-07-01_11h24.21.266,ImageRatingTask_S1,2021.1.4,MacIntel,66.66666667,,,,,,,,,,,,,,,,,,,,,0,7,7,7,1,,,,,,,,,
,,,,,,,,,,,,,,,,1,22,female,mixed,at home,2021-07-01_11h24.21.266,ImageRatingTask_S1,2021.1.4,MacIntel,66.66666667,,,,,,,,,,,,,,,,,,,,,,,,,,0,15,15,158,1,DreamStudyImages_rs1000x750g/Mammals/1440.jpg,,,
,,,,,,,,,,,,,,,main,1,22,female,mixed,at home,2021-07-01_11h24.21.266,ImageRatingTask_S1,2021.1.4,MacIntel,66.66666667,,,,,,,,,,,5,3.136,1,1.656,8,6.051,1,3.459,6,1.543,0,0,0,0,1,,,,,,,,,
,,,,,,,,,,,,,,,second,1,22,female,mixed,at home,2021-07-01_11h24.21.266,ImageRatingTask_S1,2021.1.4,MacIntel,66.66666667,,,,,,,,,,,,,,,,,,,,,0,1,1,1,1,,,,,,,,,
,,,,,,,,,,,,,,,third,1,22,female,mixed,at home,2021-07-01_11h24.21.266,ImageRatingTask_S1,2021.1.4,MacIntel,66.66666667,,,,,,,,,,,,,,,,,,,,,0,2,2,2,1,,,,,,,,,
,,,,,,,,,,,,,,,fourth,1,22,female,mixed,at home,2021-07-01_11h24.21.266,ImageRatingTask_S1,2021.1.4,MacIntel,66.66666667,,,,,,,,,,,,,,,,,,,,,0,3,3,3,1,,,,,,,,,
,,,,,,,,,,,,,,,fifth,1,22,female,mixed,at home,2021-07-01_11h24.21.266,ImageRatingTask_S1,2021.1.4,MacIntel,66.66666667,,,,,,,,,,,,,,,,,,,,,0,4,4,4,1,,,,,,,,,
,,,,,,,,,,,,,,,sixth,1,22,female,mixed,at home,2021-07-01_11h24.21.266,ImageRatingTask_S1,2021.1.4,MacIntel,66.66666667,,,,,,,,,,,,,,,,,,,,,0,5,5,5,1,,,,,,,,,
,,,,,,,,,,,,,,,seventh,1,22,female,mixed,at home,2021-07-01_11h24.21.266,ImageRatingTask_S1,2021.1.4,MacIntel,66.66666667,,,,,,,,,,,,,,,,,,,,,0,6,6,6,1,,,,,,,,,
,,,,,,,,,,,,,,,last,1,22,female,mixed,at home,2021-07-01_11h24.21.266,ImageRatingTask_S1,2021.1.4,MacIntel,66.66666667,,,,,,,,,,,,,,,,,,,,,0,7,7,7,1,,,,,,,,,
,,,,,,,,,,,,,,,,1,22,female,mixed,at home,2021-07-01_11h24.21.266,ImageRatingTask_S1,2021.1.4,MacIntel,66.66666667,,,,,,,,,,,,,,,,,,,,,,,,,,0,16,16,62,1,DreamStudyImages_rs1000x750g/Houses/Landscapes_088_v.jpg,,,
,,,,,,,,,,,,,,,main,1,22,female,mixed,at home,2021-07-01_11h24.21.266,ImageRatingTask_S1,2021.1.4,MacIntel,66.66666667,,,,,,,,,,,4,6.781,1,1.995,8,2.155,1,4.666,7,1.041,0,0,0,0,1,,,,,,,,,
,,,,,,,,,,,,,,,second,1,22,female,mixed,at home,2021-07-01_11h24.21.266,ImageRatingTask_S1,2021.1.4,MacIntel,66.66666667,,,,,,,,,,,,,,,,,,,,,0,1,1,1,1,,,,,,,,,
,,,,,,,,,,,,,,,third,1,22,female,mixed,at home,2021-07-01_11h24.21.266,ImageRatingTask_S1,2021.1.4,MacIntel,66.66666667,,,,,,,,,,,,,,,,,,,,,0,2,2,2,1,,,,,,,,,
,,,,,,,,,,,,,,,fourth,1,22,female,mixed,at home,2021-07-01_11h24.21.266,ImageRatingTask_S1,2021.1.4,MacIntel,66.66666667,,,,,,,,,,,,,,,,,,,,,0,3,3,3,1,,,,,,,,,
,,,,,,,,,,,,,,,fifth,1,22,female,mixed,at home,2021-07-01_11h24.21.266,ImageRatingTask_S1,2021.1.4,MacIntel,66.66666667,,,,,,,,,,,,,,,,,,,,,0,4,4,4,1,,,,,,,,,
,,,,,,,,,,,,,,,sixth,1,22,female,mixed,at home,2021-07-01_11h24.21.266,ImageRatingTask_S1,2021.1.4,MacIntel,66.66666667,,,,,,,,,,,,,,,,,,,,,0,5,5,5,1,,,,,,,,,
,,,,,,,,,,,,,,,seventh,1,22,female,mixed,at home,2021-07-01_11h24.21.266,ImageRatingTask_S1,2021.1.4,MacIntel,66.66666667,,,,,,,,,,,,,,,,,,,,,0,6,6,6,1,,,,,,,,,
,,,,,,,,,,,,,,,last,1,22,female,mixed,at home,2021-07-01_11h24.21.266,ImageRatingTask_S1,2021.1.4,MacIntel,66.66666667,,,,,,,,,,,,,,,,,,,,,0,7,7,7,1,,,,,,,,,
,,,,,,,,,,,,,,,,1,22,female,mixed,at home,2021-07-01_11h24.21.266,ImageRatingTask_S1,2021.1.4,MacIntel,66.66666667,,,,,,,,,,,,,,,,,,,,,,,,,,0,17,17,121,1,DreamStudyImages_rs1000x750g/Vehicles/Objects_282_h.jpg,,,
,,,,,,,,,,,,,,,main,1,22,female,mixed,at home,2021-07-01_11h24.21.266,ImageRatingTask_S1,2021.1.4,MacIntel,66.66666667,,,,,,,,,,,3,5.997,2,1.467,9,2.079,1,4.314,2,1.272,0,0,0,0,1,,,,,,,,,
,,,,,,,,,,,,,,,second,1,22,female,mixed,at home,2021-07-01_11h24.21.266,ImageRatingTask_S1,2021.1.4,MacIntel,66.66666667,,,,,,,,,,,,,,,,,,,,,0,1,1,1,1,,,,,,,,,
,,,,,,,,,,,,,,,third,1,22,female,mixed,at home,2021-07-01_11h24.21.266,ImageRatingTask_S1,2021.1.4,MacIntel,66.66666667,,,,,,,,,,,,,,,,,,,,,0,2,2,2,1,,,,,,,,,
,,,,,,,,,,,,,,,fourth,1,22,female,mixed,at home,2021-07-01_11h24.21.266,ImageRatingTask_S1,2021.1.4,MacIntel,66.66666667,,,,,,,,,,,,,,,,,,,,,0,3,3,3,1,,,,,,,,,
,,,,,,,,,,,,,,,fifth,1,22,female,mixed,at home,2021-07-01_11h24.21.266,ImageRatingTask_S1,2021.1.4,MacIntel,66.66666667,,,,,,,,,,,,,,,,,,,,,0,4,4,4,1,,,,,,,,,
,,,,,,,,,,,,,,,sixth,1,22,female,mixed,at home,2021-07-01_11h24.21.266,ImageRatingTask_S1,2021.1.4,MacIntel,66.66666667,,,,,,,,,,,,,,,,,,,,,0,5,5,5,1,,,,,,,,,
,,,,,,,,,,,,,,,seventh,1,22,female,mixed,at home,2021-07-01_11h24.21.266,ImageRatingTask_S1,2021.1.4,MacIntel,66.66666667,,,,,,,,,,,,,,,,,,,,,0,6,6,6,1,,,,,,,,,
,,,,,,,,,,,,,,,last,1,22,female,mixed,at home,2021-07-01_11h24.21.266,ImageRatingTask_S1,2021.1.4,MacIntel,66.66666667,,,,,,,,,,,,,,,,,,,,,0,7,7,7,1,,,,,,,,,
,,,,,,,,,,,,,,,,1,22,female,mixed,at home,2021-07-01_11h24.21.266,ImageRatingTask_S1,2021.1.4,MacIntel,66.66666667,,,,,,,,,,,,,,,,,,,,,,,,,,0,18,18,154,1,DreamStudyImages_rs1000x750g/Children/Sad face 7.jpg,,,
,,,,,,,,,,,,,,,main,1,22,female,mixed,at home,2021-07-01_11h24.21.266,ImageRatingTask_S1,2021.1.4,MacIntel,66.66666667,,,,,,,,,,,6,4.511,2,3.619,6,2.901,1,3.602,5,1.81,0,0,0,0,1,,,,,,,,,
,,,,,,,,,,,,,,,second,1,22,female,mixed,at home,2021-07-01_11h24.21.266,ImageRatingTask_S1,2021.1.4,MacIntel,66.66666667,,,,,,,,,,,,,,,,,,,,,0,1,1,1,1,,,,,,,,,
,,,,,,,,,,,,,,,third,1,22,female,mixed,at home,2021-07-01_11h24.21.266,ImageRatingTask_S1,2021.1.4,MacIntel,66.66666667,,,,,,,,,,,,,,,,,,,,,0,2,2,2,1,,,,,,,,,
,,,,,,,,,,,,,,,fourth,1,22,female,mixed,at home,2021-07-01_11h24.21.266,ImageRatingTask_S1,2021.1.4,MacIntel,66.66666667,,,,,,,,,,,,,,,,,,,,,0,3,3,3,1,,,,,,,,,
,,,,,,,,,,,,,,,fifth,1,22,female,mixed,at home,2021-07-01_11h24.21.266,ImageRatingTask_S1,2021.1.4,MacIntel,66.66666667,,,,,,,,,,,,,,,,,,,,,0,4,4,4,1,,,,,,,,,
,,,,,,,,,,,,,,,sixth,1,22,female,mixed,at home,2021-07-01_11h24.21.266,ImageRatingTask_S1,2021.1.4,MacIntel,66.66666667,,,,,,,,,,,,,,,,,,,,,0,5,5,5,1,,,,,,,,,
,,,,,,,,,,,,,,,seventh,1,22,female,mixed,at home,2021-07-01_11h24.21.266,ImageRatingTask_S1,2021.1.4,MacIntel,66.66666667,,,,,,,,,,,,,,,,,,,,,0,6,6,6,1,,,,,,,,,
,,,,,,,,,,,,,,,last,1,22,female,mixed,at home,2021-07-01_11h24.21.266,ImageRatingTask_S1,2021.1.4,MacIntel,66.66666667,,,,,,,,,,,,,,,,,,,,,0,7,7,7,1,,,,,,,,,
,,,,,,,,,,,,,,,,1,22,female,mixed,at home,2021-07-01_11h24.21.266,ImageRatingTask_S1,2021.1.4,MacIntel,66.66666667,,,,,,,,,,,,,,,,,,,,,,,,,,0,19,19,129,1,DreamStudyImages_rs1000x750g/Food/IAPS7220_pastries.jpg,,,
,,,,,,,,,,,,,,,main,1,22,female,mixed,at home,2021-07-01_11h24.21.266,ImageRatingTask_S1,2021.1.4,MacIntel,66.66666667,,,,,,,,,,,5,4.692,1,2.148,8,3.502,1,2.916,3,1.431,0,0,0,0,1,,,,,,,,,
,,,,,,,,,,,,,,,second,1,22,female,mixed,at home,2021-07-01_11h24.21.266,ImageRatingTask_S1,2021.1.4,MacIntel,66.66666667,,,,,,,,,,,,,,,,,,,,,0,1,1,1,1,,,,,,,,,
,,,,,,,,,,,,,,,third,1,22,female,mixed,at home,2021-07-01_11h24.21.266,ImageRatingTask_S1,2021.1.4,MacIntel,66.66666667,,,,,,,,,,,,,,,,,,,,,0,2,2,2,1,,,,,,,,,
,,,,,,,,,,,,,,,fourth,1,22,female,mixed,at home,2021-07-01_11h24.21.266,ImageRatingTask_S1,2021.1.4,MacIntel,66.66666667,,,,,,,,,,,,,,,,,,,,,0,3,3,3,1,,,,,,,,,
,,,,,,,,,,,,,,,fifth,1,22,female,mixed,at home,2021-07-01_11h24.21.266,ImageRatingTask_S1,2021.1.4,MacIntel,66.66666667,,,,,,,,,,,,,,,,,,,,,0,4,4,4,1,,,,,,,,,
,,,,,,,,,,,,,,,sixth,1,22,female,mixed,at home,2021-07-01_11h24.21.266,ImageRatingTask_S1,2021.1.4,MacIntel,66.66666667,,,,,,,,,,,,,,,,,,,,,0,5,5,5,1,,,,,,,,,
,,,,,,,,,,,,,,,seventh,1,22,female,mixed,at home,2021-07-01_11h24.21.266,ImageRatingTask_S1,2021.1.4,MacIntel,66.66666667,,,,,,,,,,,,,,,,,,,,,0,6,6,6,1,,,,,,,,,
,,,,,,,,,,,,,,,last,1,22,female,mixed,at home,2021-07-01_11h24.21.266,ImageRatingTask_S1,2021.1.4,MacIntel,66.66666667,,,,,,,,,,,,,,,,,,,,,0,7,7,7,1,,,,,,,,,
,,,,,,,,,,,,,,,,1,22,female,mixed,at home,2021-07-01_11h24.21.266,ImageRatingTask_S1,2021.1.4,MacIntel,66.66666667,,,,,,,,,,,,,,,,,,,,,,,,,,0,20,20,4,1,DreamStudyImages_rs1000x750g/Mammals/Animals_199_h.jpg,,,
,,,,,,,,,,,,,,,main,1,22,female,mixed,at home,2021-07-01_11h24.21.266,ImageRatingTask_S1,2021.1.4,MacIntel,66.66666667,,,,,,,,,,,5,5.475,1,3.713,7,3.262,1,2.535,3,1.004,0,0,0,0,1,,,,,,,,,
,,,,,,,,,,,,,,,second,1,22,female,mixed,at home,2021-07-01_11h24.21.266,ImageRatingTask_S1,2021.1.4,MacIntel,66.66666667,,,,,,,,,,,,,,,,,,,,,0,1,1,1,1,,,,,,,,,
,,,,,,,,,,,,,,,third,1,22,female,mixed,at home,2021-07-01_11h24.21.266,ImageRatingTask_S1,2021.1.4,MacIntel,66.66666667,,,,,,,,,,,,,,,,,,,,,0,2,2,2,1,,,,,,,,,
,,,,,,,,,,,,,,,fourth,1,22,female,mixed,at home,2021-07-01_11h24.21.266,ImageRatingTask_S1,2021.1.4,MacIntel,66.66666667,,,,,,,,,,,,,,,,,,,,,0,3,3,3,1,,,,,,,,,
,,,,,,,,,,,,,,,fifth,1,22,female,mixed,at home,2021-07-01_11h24.21.266,ImageRatingTask_S1,2021.1.4,MacIntel,66.66666667,,,,,,,,,,,,,,,,,,,,,0,4,4,4,1,,,,,,,,,
,,,,,,,,,,,,,,,sixth,1,22,female,mixed,at home,2021-07-01_11h24.21.266,ImageRatingTask_S1,2021.1.4,MacIntel,66.66666667,,,,,,,,,,,,,,,,,,,,,0,5,5,5,1,,,,,,,,,
,,,,,,,,,,,,,,,seventh,1,22,female,mixed,at home,2021-07-01_11h24.21.266,ImageRatingTask_S1,2021.1.4,MacIntel,66.66666667,,,,,,,,,,,,,,,,,,,,,0,6,6,6,1,,,,,,,,,
,,,,,,,,,,,,,,,last,1,22,female,mixed,at home,2021-07-01_11h24.21.266,ImageRatingTask_S1,2021.1.4,MacIntel,66.66666667,,,,,,,,,,,,,,,,,,,,,0,7,7,7,1,,,,,,,,,
,,,,,,,,,,,,,,,,1,22,female,mixed,at home,2021-07-01_11h24.21.266,ImageRatingTask_S1,2021.1.4,MacIntel,66.66666667,,,,,,,,,,,,,,,,,,,,,,,,,,0,21,21,104,1,DreamStudyImages_rs1000x750g/Mammals/Dog 3.jpg,,,
,,,,,,,,,,,,,,,main,1,22,female,mixed,at home,2021-07-01_11h24.21.266,ImageRatingTask_S1,2021.1.4,MacIntel,66.66666667,,,,,,,,,,,5,14.065,2,2.395,9,3.52,3,6.409,2,4.005,0,0,0,0,1,,,,,,,,,
,,,,,,,,,,,,,,,second,1,22,female,mixed,at home,2021-07-01_11h24.21.266,ImageRatingTask_S1,2021.1.4,MacIntel,66.66666667,,,,,,,,,,,,,,,,,,,6,6.1,0,1,1,1,1,,,,,,,,,
,,,,,,,,,,,,,,,third,1,22,female,mixed,at home,2021-07-01_11h24.21.266,ImageRatingTask_S1,2021.1.4,MacIntel,66.66666667,,,,,,,,,,,,,,,,,,,1,1.368,0,2,2,2,1,,,,,,,,,
,,,,,,,,,,,,,,,fourth,1,22,female,mixed,at home,2021-07-01_11h24.21.266,ImageRatingTask_S1,2021.1.4,MacIntel,66.66666667,,,,,,,,,,,,,,,,,,,,,0,3,3,3,1,,,,,,,,,
,,,,,,,,,,,,,,,fifth,1,22,female,mixed,at home,2021-07-01_11h24.21.266,ImageRatingTask_S1,2021.1.4,MacIntel,66.66666667,,,,,,,,,,,,,,,,,,,,,0,4,4,4,1,,,,,,,,,
,,,,,,,,,,,,,,,sixth,1,22,female,mixed,at home,2021-07-01_11h24.21.266,ImageRatingTask_S1,2021.1.4,MacIntel,66.66666667,,,,,,,,,,,,,,,,,,,,,0,5,5,5,1,,,,,,,,,
,,,,,,,,,,,,,,,seventh,1,22,female,mixed,at home,2021-07-01_11h24.21.266,ImageRatingTask_S1,2021.1.4,MacIntel,66.66666667,,,,,,,,,,,,,,,,,,,,,0,6,6,6,1,,,,,,,,,
,,,,,,,,,,,,,,,last,1,22,female,mixed,at home,2021-07-01_11h24.21.266,ImageRatingTask_S1,2021.1.4,MacIntel,66.66666667,,,,,,,,,,,,,,,,,,,,,0,7,7,7,1,,,,,,,,,
,,,,,,,,,,,,,,,,1,22,female,mixed,at home,2021-07-01_11h24.21.266,ImageRatingTask_S1,2021.1.4,MacIntel,66.66666667,,,,,,,,,,,,,,,,,,,,,,,,,,0,22,22,66,1,DreamStudyImages_rs1000x750g/Children/Faces_119_v.jpg,,,
,,,,,,,,,,,,,,,main,1,22,female,mixed,at home,2021-07-01_11h24.21.266,ImageRatingTask_S1,2021.1.4,MacIntel,66.66666667,,,,,,,,,,,5,3.562,1,1.415,9,2.585,1,5.444,2,1.551,0,0,0,0,1,,,,,,,,,
,,,,,,,,,,,,,,,second,1,22,female,mixed,at home,2021-07-01_11h24.21.266,ImageRatingTask_S1,2021.1.4,MacIntel,66.66666667,,,,,,,,,,,,,,,,,,,,,0,1,1,1,1,,,,,,,,,
,,,,,,,,,,,,,,,third,1,22,female,mixed,at home,2021-07-01_11h24.21.266,ImageRatingTask_S1,2021.1.4,MacIntel,66.66666667,,,,,,,,,,,,,,,,,,,,,0,2,2,2,1,,,,,,,,,
,,,,,,,,,,,,,,,fourth,1,22,female,mixed,at home,2021-07-01_11h24.21.266,ImageRatingTask_S1,2021.1.4,MacIntel,66.66666667,,,,,,,,,,,,,,,,,,,,,0,3,3,3,1,,,,,,,,,
,,,,,,,,,,,,,,,fifth,1,22,female,mixed,at home,2021-07-01_11h24.21.266,ImageRatingTask_S1,2021.1.4,MacIntel,66.66666667,,,,,,,,,,,,,,,,,,,,,0,4,4,4,1,,,,,,,,,
,,,,,,,,,,,,,,,sixth,1,22,female,mixed,at home,2021-07-01_11h24.21.266,ImageRatingTask_S1,2021.1.4,MacIntel,66.66666667,,,,,,,,,,,,,,,,,,,,,0,5,5,5,1,,,,,,,,,
,,,,,,,,,,,,,,,seventh,1,22,female,mixed,at home,2021-07-01_11h24.21.266,ImageRatingTask_S1,2021.1.4,MacIntel,66.66666667,,,,,,,,,,,,,,,,,,,,,0,6,6,6,1,,,,,,,,,
,,,,,,,,,,,,,,,last,1,22,female,mixed,at home,2021-07-01_11h24.21.266,ImageRatingTask_S1,2021.1.4,MacIntel,66.66666667,,,,,,,,,,,,,,,,,,,,,0,7,7,7,1,,,,,,,,,
,,,,,,,,,,,,,,,,1,22,female,mixed,at home,2021-07-01_11h24.21.266,ImageRatingTask_S1,2021.1.4,MacIntel,66.66666667,,,,,,,,,,,,,,,,,,,,,,,,,,0,23,23,9,1,DreamStudyImages_rs1000x750g/Children/Faces_128_h.jpg,,,
,,,,,,,,,,,,,,,main,1,22,female,mixed,at home,2021-07-01_11h24.21.266,ImageRatingTask_S1,2021.1.4,MacIntel,66.66666667,,,,,,,,,,,5,6.149,1,1.829,9,5.334,1,4.223,8,1.065,0,0,0,0,1,,,,,,,,,
,,,,,,,,,,,,,,,second,1,22,female,mixed,at home,2021-07-01_11h24.21.266,ImageRatingTask_S1,2021.1.4,MacIntel,66.66666667,,,,,,,,,,,,,,,,,,,,,0,1,1,1,1,,,,,,,,,
,,,,,,,,,,,,,,,third,1,22,female,mixed,at home,2021-07-01_11h24.21.266,ImageRatingTask_S1,2021.1.4,MacIntel,66.66666667,,,,,,,,,,,,,,,,,,,,,0,2,2,2,1,,,,,,,,,
,,,,,,,,,,,,,,,fourth,1,22,female,mixed,at home,2021-07-01_11h24.21.266,ImageRatingTask_S1,2021.1.4,MacIntel,66.66666667,,,,,,,,,,,,,,,,,,,,,0,3,3,3,1,,,,,,,,,
,,,,,,,,,,,,,,,fifth,1,22,female,mixed,at home,2021-07-01_11h24.21.266,ImageRatingTask_S1,2021.1.4,MacIntel,66.66666667,,,,,,,,,,,,,,,,,,,,,0,4,4,4,1,,,,,,,,,
,,,,,,,,,,,,,,,sixth,1,22,female,mixed,at home,2021-07-01_11h24.21.266,ImageRatingTask_S1,2021.1.4,MacIntel,66.66666667,,,,,,,,,,,,,,,,,,,,,0,5,5,5,1,,,,,,,,,
,,,,,,,,,,,,,,,seventh,1,22,female,mixed,at home,2021-07-01_11h24.21.266,ImageRatingTask_S1,2021.1.4,MacIntel,66.66666667,,,,,,,,,,,,,,,,,,,,,0,6,6,6,1,,,,,,,,,
,,,,,,,,,,,,,,,last,1,22,female,mixed,at home,2021-07-01_11h24.21.266,ImageRatingTask_S1,2021.1.4,MacIntel,66.66666667,,,,,,,,,,,,,,,,,,,,,0,7,7,7,1,,,,,,,,,
,,,,,,,,,,,,,,,,1,22,female,mixed,at home,2021-07-01_11h24.21.266,ImageRatingTask_S1,2021.1.4,MacIntel,66.66666667,,,,,,,,,,,,,,,,,,,,,,,,,,0,24,24,11,1,DreamStudyImages_rs1000x750g/Water/Landscapes_100_h_CHECK.jpg,,,
,,,,,,,,,,,,,,,main,1,22,female,mixed,at home,2021-07-01_11h24.21.266,ImageRatingTask_S1,2021.1.4,MacIntel,66.66666667,,,,,,,,,,,4,12.124,1,2.233,9,1.639,1,1.852,6,1.196,0,0,0,0,1,,,,,,,,,
,,,,,,,,,,,,,,,second,1,22,female,mixed,at home,2021-07-01_11h24.21.266,ImageRatingTask_S1,2021.1.4,MacIntel,66.66666667,,,,,,,,,,,,,,,,,,,,,0,1,1,1,1,,,,,,,,,
,,,,,,,,,,,,,,,third,1,22,female,mixed,at home,2021-07-01_11h24.21.266,ImageRatingTask_S1,2021.1.4,MacIntel,66.66666667,,,,,,,,,,,,,,,,,,,,,0,2,2,2,1,,,,,,,,,
,,,,,,,,,,,,,,,fourth,1,22,female,mixed,at home,2021-07-01_11h24.21.266,ImageRatingTask_S1,2021.1.4,MacIntel,66.66666667,,,,,,,,,,,,,,,,,,,,,0,3,3,3,1,,,,,,,,,
,,,,,,,,,,,,,,,fifth,1,22,female,mixed,at home,2021-07-01_11h24.21.266,ImageRatingTask_S1,2021.1.4,MacIntel,66.66666667,,,,,,,,,,,,,,,,,,,,,0,4,4,4,1,,,,,,,,,
,,,,,,,,,,,,,,,sixth,1,22,female,mixed,at home,2021-07-01_11h24.21.266,ImageRatingTask_S1,2021.1.4,MacIntel,66.66666667,,,,,,,,,,,,,,,,,,,,,0,5,5,5,1,,,,,,,,,
,,,,,,,,,,,,,,,seventh,1,22,female,mixed,at home,2021-07-01_11h24.21.266,ImageRatingTask_S1,2021.1.4,MacIntel,66.66666667,,,,,,,,,,,,,,,,,,,,,0,6,6,6,1,,,,,,,,,
,,,,,,,,,,,,,,,last,1,22,female,mixed,at home,2021-07-01_11h24.21.266,ImageRatingTask_S1,2021.1.4,MacIntel,66.66666667,,,,,,,,,,,,,,,,,,,,,0,7,7,7,1,,,,,,,,,
,,,,,,,,,,,,,,,,1,22,female,mixed,at home,2021-07-01_11h24.21.266,ImageRatingTask_S1,2021.1.4,MacIntel,66.66666667,,,,,,,,,,,,,,,,,,,,,,,,,,0,25,25,139,1,DreamStudyImages_rs1000x750g/Houses/abandonedhouse.jpg,,,
,,,,,,,,,,,,,,,main,1,22,female,mixed,at home,2021-07-01_11h24.21.266,ImageRatingTask_S1,2021.1.4,MacIntel,66.66666667,,,,,,,,,,,5,4.894,1,0.798,9,4.886,1,3.451,3,0.994,0,0,0,0,1,,,,,,,,,
,,,,,,,,,,,,,,,second,1,22,female,mixed,at home,2021-07-01_11h24.21.266,ImageRatingTask_S1,2021.1.4,MacIntel,66.66666667,,,,,,,,,,,,,,,,,,,,,0,1,1,1,1,,,,,,,,,
,,,,,,,,,,,,,,,third,1,22,female,mixed,at home,2021-07-01_11h24.21.266,ImageRatingTask_S1,2021.1.4,MacIntel,66.66666667,,,,,,,,,,,,,,,,,,,,,0,2,2,2,1,,,,,,,,,
,,,,,,,,,,,,,,,fourth,1,22,female,mixed,at home,2021-07-01_11h24.21.266,ImageRatingTask_S1,2021.1.4,MacIntel,66.66666667,,,,,,,,,,,,,,,,,,,,,0,3,3,3,1,,,,,,,,,
,,,,,,,,,,,,,,,fifth,1,22,female,mixed,at home,2021-07-01_11h24.21.266,ImageRatingTask_S1,2021.1.4,MacIntel,66.66666667,,,,,,,,,,,,,,,,,,,,,0,4,4,4,1,,,,,,,,,
,,,,,,,,,,,,,,,sixth,1,22,female,mixed,at home,2021-07-01_11h24.21.266,ImageRatingTask_S1,2021.1.4,MacIntel,66.66666667,,,,,,,,,,,,,,,,,,,,,0,5,5,5,1,,,,,,,,,
,,,,,,,,,,,,,,,seventh,1,22,female,mixed,at home,2021-07-01_11h24.21.266,ImageRatingTask_S1,2021.1.4,MacIntel,66.66666667,,,,,,,,,,,,,,,,,,,,,0,6,6,6,1,,,,,,,,,
,,,,,,,,,,,,,,,last,1,22,female,mixed,at home,2021-07-01_11h24.21.266,ImageRatingTask_S1,2021.1.4,MacIntel,66.66666667,,,,,,,,,,,,,,,,,,,,,0,7,7,7,1,,,,,,,,,
,,,,,,,,,,,,,,,,1,22,female,mixed,at home,2021-07-01_11h24.21.266,ImageRatingTask_S1,2021.1.4,MacIntel,66.66666667,,,,,,,,,,,,,,,,,,,,,,,,,,0,26,26,135,1,DreamStudyImages_rs1000x750g/Mammals/Couple 5.jpg,,,
,,,,,,,,,,,,,,,main,1,22,female,mixed,at home,2021-07-01_11h24.21.266,ImageRatingTask_S1,2021.1.4,MacIntel,66.66666667,,,,,,,,,,,5,6.777,1,1.63,9,1.6,1,1.237,8,0.849,0,0,0,0,1,,,,,,,,,
,,,,,,,,,,,,,,,second,1,22,female,mixed,at home,2021-07-01_11h24.21.266,ImageRatingTask_S1,2021.1.4,MacIntel,66.66666667,,,,,,,,,,,,,,,,,,,,,0,1,1,1,1,,,,,,,,,
,,,,,,,,,,,,,,,third,1,22,female,mixed,at home,2021-07-01_11h24.21.266,ImageRatingTask_S1,2021.1.4,MacIntel,66.66666667,,,,,,,,,,,,,,,,,,,,,0,2,2,2,1,,,,,,,,,
,,,,,,,,,,,,,,,fourth,1,22,female,mixed,at home,2021-07-01_11h24.21.266,ImageRatingTask_S1,2021.1.4,MacIntel,66.66666667,,,,,,,,,,,,,,,,,,,,,0,3,3,3,1,,,,,,,,,
,,,,,,,,,,,,,,,fifth,1,22,female,mixed,at home,2021-07-01_11h24.21.266,ImageRatingTask_S1,2021.1.4,MacIntel,66.66666667,,,,,,,,,,,,,,,,,,,,,0,4,4,4,1,,,,,,,,,
,,,,,,,,,,,,,,,sixth,1,22,female,mixed,at home,2021-07-01_11h24.21.266,ImageRatingTask_S1,2021.1.4,MacIntel,66.66666667,,,,,,,,,,,,,,,,,,,,,0,5,5,5,1,,,,,,,,,
,,,,,,,,,,,,,,,seventh,1,22,female,mixed,at home,2021-07-01_11h24.21.266,ImageRatingTask_S1,2021.1.4,MacIntel,66.66666667,,,,,,,,,,,,,,,,,,,,,0,6,6,6,1,,,,,,,,,
,,,,,,,,,,,,,,,last,1,22,female,mixed,at home,2021-07-01_11h24.21.266,ImageRatingTask_S1,2021.1.4,MacIntel,66.66666667,,,,,,,,,,,,,,,,,,,,,0,7,7,7,1,,,,,,,,,
,,,,,,,,,,,,,,,,1,22,female,mixed,at home,2021-07-01_11h24.21.266,ImageRatingTask_S1,2021.1.4,MacIntel,66.66666667,,,,,,,,,,,,,,,,,,,,,,,,,,0,27,27,120,1,DreamStudyImages_rs1000x750g/Water/Bottle 1.jpg,,,
,,,,,,,,,,,,,,,main,1,22,female,mixed,at home,2021-07-01_11h24.21.266,ImageRatingTask_S1,2021.1.4,MacIntel,66.66666667,,,,,,,,,,,5,5.825,1,1.613,6,4.5,1,2.65,5,1.092,0,0,0,0,1,,,,,,,,,
,,,,,,,,,,,,,,,second,1,22,female,mixed,at home,2021-07-01_11h24.21.266,ImageRatingTask_S1,2021.1.4,MacIntel,66.66666667,,,,,,,,,,,,,,,,,,,,,0,1,1,1,1,,,,,,,,,
,,,,,,,,,,,,,,,third,1,22,female,mixed,at home,2021-07-01_11h24.21.266,ImageRatingTask_S1,2021.1.4,MacIntel,66.66666667,,,,,,,,,,,,,,,,,,,,,0,2,2,2,1,,,,,,,,,
,,,,,,,,,,,,,,,fourth,1,22,female,mixed,at home,2021-07-01_11h24.21.266,ImageRatingTask_S1,2021.1.4,MacIntel,66.66666667,,,,,,,,,,,,,,,,,,,,,0,3,3,3,1,,,,,,,,,
,,,,,,,,,,,,,,,fifth,1,22,female,mixed,at home,2021-07-01_11h24.21.266,ImageRatingTask_S1,2021.1.4,MacIntel,66.66666667,,,,,,,,,,,,,,,,,,,,,0,4,4,4,1,,,,,,,,,
,,,,,,,,,,,,,,,sixth,1,22,female,mixed,at home,2021-07-01_11h24.21.266,ImageRatingTask_S1,2021.1.4,MacIntel,66.66666667,,,,,,,,,,,,,,,,,,,,,0,5,5,5,1,,,,,,,,,
,,,,,,,,,,,,,,,seventh,1,22,female,mixed,at home,2021-07-01_11h24.21.266,ImageRatingTask_S1,2021.1.4,MacIntel,66.66666667,,,,,,,,,,,,,,,,,,,,,0,6,6,6,1,,,,,,,,,
,,,,,,,,,,,,,,,last,1,22,female,mixed,at home,2021-07-01_11h24.21.266,ImageRatingTask_S1,2021.1.4,MacIntel,66.66666667,,,,,,,,,,,,,,,,,,,,,0,7,7,7,1,,,,,,,,,
,,,,,,,,,,,,,,,,1,22,female,mixed,at home,2021-07-01_11h24.21.266,ImageRatingTask_S1,2021.1.4,MacIntel,66.66666667,,,,,,,,,,,,,,,,,,,,,,,,,,0,28,28,106,1,DreamStudyImages_rs1000x750g/Food/IAPS7289_diner2.jpg,,,
,,,,,,,,,,,,,,,main,1,22,female,mixed,at home,2021-07-01_11h24.21.266,ImageRatingTask_S1,2021.1.4,MacIntel,66.66666667,,,,,,,,,,,5,5.605,2,6.173,7,2.797,1,3.304,7,0.935,0,0,0,0,1,,,,,,,,,
,,,,,,,,,,,,,,,second,1,22,female,mixed,at home,2021-07-01_11h24.21.266,ImageRatingTask_S1,2021.1.4,MacIntel,66.66666667,,,,,,,,,,,,,,,,,,,,,0,1,1,1,1,,,,,,,,,
,,,,,,,,,,,,,,,third,1,22,female,mixed,at home,2021-07-01_11h24.21.266,ImageRatingTask_S1,2021.1.4,MacIntel,66.66666667,,,,,,,,,,,,,,,,,,,,,0,2,2,2,1,,,,,,,,,
,,,,,,,,,,,,,,,fourth,1,22,female,mixed,at home,2021-07-01_11h24.21.266,ImageRatingTask_S1,2021.1.4,MacIntel,66.66666667,,,,,,,,,,,,,,,,,,,,,0,3,3,3,1,,,,,,,,,
,,,,,,,,,,,,,,,fifth,1,22,female,mixed,at home,2021-07-01_11h24.21.266,ImageRatingTask_S1,2021.1.4,MacIntel,66.66666667,,,,,,,,,,,,,,,,,,,,,0,4,4,4,1,,,,,,,,,
,,,,,,,,,,,,,,,sixth,1,22,female,mixed,at home,2021-07-01_11h24.21.266,ImageRatingTask_S1,2021.1.4,MacIntel,66.66666667,,,,,,,,,,,,,,,,,,,,,0,5,5,5,1,,,,,,,,,
,,,,,,,,,,,,,,,seventh,1,22,female,mixed,at home,2021-07-01_11h24.21.266,ImageRatingTask_S1,2021.1.4,MacIntel,66.66666667,,,,,,,,,,,,,,,,,,,,,0,6,6,6,1,,,,,,,,,
,,,,,,,,,,,,,,,last,1,22,female,mixed,at home,2021-07-01_11h24.21.266,ImageRatingTask_S1,2021.1.4,MacIntel,66.66666667,,,,,,,,,,,,,,,,,,,,,0,7,7,7,1,,,,,,,,,
,,,,,,,,,,,,,,,,1,22,female,mixed,at home,2021-07-01_11h24.21.266,ImageRatingTask_S1,2021.1.4,MacIntel,66.66666667,,,,,,,,,,,,,,,,,,,,,,,,,,0,29,29,47,1,DreamStudyImages_rs1000x750g/Vehicles/Car race 1.jpg,,,
,,,,,,,,,,,,,,,main,1,22,female,mixed,at home,2021-07-01_11h24.21.266,ImageRatingTask_S1,2021.1.4,MacIntel,66.66666667,,,,,,,,,,,3,11.225,3,2.154,8,2.326,2,3.672,3,3.356,0,0,0,0,1,,,,,,,,,
,,,,,,,,,,,,,,,second,1,22,female,mixed,at home,2021-07-01_11h24.21.266,ImageRatingTask_S1,2021.1.4,MacIntel,66.66666667,,,,,,,,,,,,,,,,,,,8,2.188,0,1,1,1,1,,,,,,,,,
,,,,,,,,,,,,,,,third,1,22,female,mixed,at home,2021-07-01_11h24.21.266,ImageRatingTask_S1,2021.1.4,MacIntel,66.66666667,,,,,,,,,,,,,,,,,,,,,0,2,2,2,1,,,,,,,,,
,,,,,,,,,,,,,,,fourth,1,22,female,mixed,at home,2021-07-01_11h24.21.266,ImageRatingTask_S1,2021.1.4,MacIntel,66.66666667,,,,,,,,,,,,,,,,,,,,,0,3,3,3,1,,,,,,,,,
,,,,,,,,,,,,,,,fifth,1,22,female,mixed,at home,2021-07-01_11h24.21.266,ImageRatingTask_S1,2021.1.4,MacIntel,66.66666667,,,,,,,,,,,,,,,,,,,,,0,4,4,4,1,,,,,,,,,
,,,,,,,,,,,,,,,sixth,1,22,female,mixed,at home,2021-07-01_11h24.21.266,ImageRatingTask_S1,2021.1.4,MacIntel,66.66666667,,,,,,,,,,,,,,,,,,,,,0,5,5,5,1,,,,,,,,,
,,,,,,,,,,,,,,,seventh,1,22,female,mixed,at home,2021-07-01_11h24.21.266,ImageRatingTask_S1,2021.1.4,MacIntel,66.66666667,,,,,,,,,,,,,,,,,,,,,0,6,6,6,1,,,,,,,,,
,,,,,,,,,,,,,,,last,1,22,female,mixed,at home,2021-07-01_11h24.21.266,ImageRatingTask_S1,2021.1.4,MacIntel,66.66666667,,,,,,,,,,,,,,,,,,,,,0,7,7,7,1,,,,,,,,,
,,,,,,,,,,,,,,,,1,22,female,mixed,at home,2021-07-01_11h24.21.266,ImageRatingTask_S1,2021.1.4,MacIntel,66.66666667,,,,,,,,,,,,,,,,,,,,,,,,,,0,30,30,117,1,DreamStudyImages_rs1000x750g/Mammals/Animals_067_h.jpg,,,
,,,,,,,,,,,,,,,main,1,22,female,mixed,at home,2021-07-01_11h24.21.266,ImageRatingTask_S1,2021.1.4,MacIntel,66.66666667,,,,,,,,,,,6,4.991,1,1.812,9,1.522,1,2.981,2,1.496,0,0,0,0,1,,,,,,,,,
,,,,,,,,,,,,,,,second,1,22,female,mixed,at home,2021-07-01_11h24.21.266,ImageRatingTask_S1,2021.1.4,MacIntel,66.66666667,,,,,,,,,,,,,,,,,,,,,0,1,1,1,1,,,,,,,,,
,,,,,,,,,,,,,,,third,1,22,female,mixed,at home,2021-07-01_11h24.21.266,ImageRatingTask_S1,2021.1.4,MacIntel,66.66666667,,,,,,,,,,,,,,,,,,,,,0,2,2,2,1,,,,,,,,,
,,,,,,,,,,,,,,,fourth,1,22,female,mixed,at home,2021-07-01_11h24.21.266,ImageRatingTask_S1,2021.1.4,MacIntel,66.66666667,,,,,,,,,,,,,,,,,,,,,0,3,3,3,1,,,,,,,,,
,,,,,,,,,,,,,,,fifth,1,22,female,mixed,at home,2021-07-01_11h24.21.266,ImageRatingTask_S1,2021.1.4,MacIntel,66.66666667,,,,,,,,,,,,,,,,,,,,,0,4,4,4,1,,,,,,,,,
,,,,,,,,,,,,,,,sixth,1,22,female,mixed,at home,2021-07-01_11h24.21.266,ImageRatingTask_S1,2021.1.4,MacIntel,66.66666667,,,,,,,,,,,,,,,,,,,,,0,5,5,5,1,,,,,,,,,
,,,,,,,,,,,,,,,seventh,1,22,female,mixed,at home,2021-07-01_11h24.21.266,ImageRatingTask_S1,2021.1.4,MacIntel,66.66666667,,,,,,,,,,,,,,,,,,,,,0,6,6,6,1,,,,,,,,,
,,,,,,,,,,,,,,,last,1,22,female,mixed,at home,2021-07-01_11h24.21.266,ImageRatingTask_S1,2021.1.4,MacIntel,66.66666667,,,,,,,,,,,,,,,,,,,,,0,7,7,7,1,,,,,,,,,
,,,,,,,,,,,,,,,,1,22,female,mixed,at home,2021-07-01_11h24.21.266,ImageRatingTask_S1,2021.1.4,MacIntel,66.66666667,,,,,,,,,,,,,,,,,,,,,,,,,,0,31,31,155,1,DreamStudyImages_rs1000x750g/Children/IAPS2060_baby7.jpg,,,
,,,,,,,,,,,,,,,main,1,22,female,mixed,at home,2021-07-01_11h24.21.266,ImageRatingTask_S1,2021.1.4,MacIntel,66.66666667,,,,,,,,,,,3,5.39,2,2.018,7,5.983,2,13.376,2,1.975,0,0,0,0,1,,,,,,,,,
,,,,,,,,,,,,,,,second,1,22,female,mixed,at home,2021-07-01_11h24.21.266,ImageRatingTask_S1,2021.1.4,MacIntel,66.66666667,,,,,,,,,,,,,,,,,,,7,2.357,0,1,1,1,1,,,,,,,,,
,,,,,,,,,,,,,,,third,1,22,female,mixed,at home,2021-07-01_11h24.21.266,ImageRatingTask_S1,2021.1.4,MacIntel,66.66666667,,,,,,,,,,,,,,,,,,,,,0,2,2,2,1,,,,,,,,,
,,,,,,,,,,,,,,,fourth,1,22,female,mixed,at home,2021-07-01_11h24.21.266,ImageRatingTask_S1,2021.1.4,MacIntel,66.66666667,,,,,,,,,,,,,,,,,,,,,0,3,3,3,1,,,,,,,,,
,,,,,,,,,,,,,,,fifth,1,22,female,mixed,at home,2021-07-01_11h24.21.266,ImageRatingTask_S1,2021.1.4,MacIntel,66.66666667,,,,,,,,,,,,,,,,,,,,,0,4,4,4,1,,,,,,,,,
,,,,,,,,,,,,,,,sixth,1,22,female,mixed,at home,2021-07-01_11h24.21.266,ImageRatingTask_S1,2021.1.4,MacIntel,66.66666667,,,,,,,,,,,,,,,,,,,,,0,5,5,5,1,,,,,,,,,
,,,,,,,,,,,,,,,seventh,1,22,female,mixed,at home,2021-07-01_11h24.21.266,ImageRatingTask_S1,2021.1.4,MacIntel,66.66666667,,,,,,,,,,,,,,,,,,,,,0,6,6,6,1,,,,,,,,,
,,,,,,,,,,,,,,,last,1,22,female,mixed,at home,2021-07-01_11h24.21.266,ImageRatingTask_S1,2021.1.4,MacIntel,66.66666667,,,,,,,,,,,,,,,,,,,,,0,7,7,7,1,,,,,,,,,
,,,,,,,,,,,,,,,,1,22,female,mixed,at home,2021-07-01_11h24.21.266,ImageRatingTask_S1,2021.1.4,MacIntel,66.66666667,,,,,,,,,,,,,,,,,,,,,,,,,,0,32,32,141,1,DreamStudyImages_rs1000x750g/Children/Faces_012_v.jpg,,,
,,,,,,,,,,,,,,,main,1,22,female,mixed,at home,2021-07-01_11h24.21.266,ImageRatingTask_S1,2021.1.4,MacIntel,66.66666667,,,,,,,,,,,5,4.84,1,1.882,3,5.282,1,8.278,6,1.236,0,0,0,0,1,,,,,,,,,
,,,,,,,,,,,,,,,second,1,22,female,mixed,at home,2021-07-01_11h24.21.266,ImageRatingTask_S1,2021.1.4,MacIntel,66.66666667,,,,,,,,,,,,,,,,,,,,,0,1,1,1,1,,,,,,,,,
,,,,,,,,,,,,,,,third,1,22,female,mixed,at home,2021-07-01_11h24.21.266,ImageRatingTask_S1,2021.1.4,MacIntel,66.66666667,,,,,,,,,,,,,,,,,,,,,0,2,2,2,1,,,,,,,,,
,,,,,,,,,,,,,,,fourth,1,22,female,mixed,at home,2021-07-01_11h24.21.266,ImageRatingTask_S1,2021.1.4,MacIntel,66.66666667,,,,,,,,,,,,,,,,,,,,,0,3,3,3,1,,,,,,,,,
,,,,,,,,,,,,,,,fifth,1,22,female,mixed,at home,2021-07-01_11h24.21.266,ImageRatingTask_S1,2021.1.4,MacIntel,66.66666667,,,,,,,,,,,,,,,,,,,,,0,4,4,4,1,,,,,,,,,
,,,,,,,,,,,,,,,sixth,1,22,female,mixed,at home,2021-07-01_11h24.21.266,ImageRatingTask_S1,2021.1.4,MacIntel,66.66666667,,,,,,,,,,,,,,,,,,,,,0,5,5,5,1,,,,,,,,,
,,,,,,,,,,,,,,,seventh,1,22,female,mixed,at home,2021-07-01_11h24.21.266,ImageRatingTask_S1,2021.1.4,MacIntel,66.66666667,,,,,,,,,,,,,,,,,,,,,0,6,6,6,1,,,,,,,,,
,,,,,,,,,,,,,,,last,1,22,female,mixed,at home,2021-07-01_11h24.21.266,ImageRatingTask_S1,2021.1.4,MacIntel,66.66666667,,,,,,,,,,,,,,,,,,,,,0,7,7,7,1,,,,,,,,,
,,,,,,,,,,,,,,,,1,22,female,mixed,at home,2021-07-01_11h24.21.266,ImageRatingTask_S1,2021.1.4,MacIntel,66.66666667,,,,,,,,,,,,,,,,,,,,,,,,,,0,33,33,3,1,DreamStudyImages_rs1000x750g/Houses/Skyscraper 2_CROPPED.jpg,,,
,,,,,,,,,,,,,,,main,1,22,female,mixed,at home,2021-07-01_11h24.21.266,ImageRatingTask_S1,2021.1.4,MacIntel,66.66666667,,,,,,,,,,,5,11.008,1,9.213,6,3.963,2,2.509,8,3.104,0,0,0,0,1,,,,,,,,,
,,,,,,,,,,,,,,,second,1,22,female,mixed,at home,2021-07-01_11h24.21.266,ImageRatingTask_S1,2021.1.4,MacIntel,66.66666667,,,,,,,,,,,,,,,,,,,6,2.232,0,1,1,1,1,,,,,,,,,
,,,,,,,,,,,,,,,third,1,22,female,mixed,at home,2021-07-01_11h24.21.266,ImageRatingTask_S1,2021.1.4,MacIntel,66.66666667,,,,,,,,,,,,,,,,,,,,,0,2,2,2,1,,,,,,,,,
,,,,,,,,,,,,,,,fourth,1,22,female,mixed,at home,2021-07-01_11h24.21.266,ImageRatingTask_S1,2021.1.4,MacIntel,66.66666667,,,,,,,,,,,,,,,,,,,,,0,3,3,3,1,,,,,,,,,
,,,,,,,,,,,,,,,fifth,1,22,female,mixed,at home,2021-07-01_11h24.21.266,ImageRatingTask_S1,2021.1.4,MacIntel,66.66666667,,,,,,,,,,,,,,,,,,,,,0,4,4,4,1,,,,,,,,,
,,,,,,,,,,,,,,,sixth,1,22,female,mixed,at home,2021-07-01_11h24.21.266,ImageRatingTask_S1,2021.1.4,MacIntel,66.66666667,,,,,,,,,,,,,,,,,,,,,0,5,5,5,1,,,,,,,,,
,,,,,,,,,,,,,,,seventh,1,22,female,mixed,at home,2021-07-01_11h24.21.266,ImageRatingTask_S1,2021.1.4,MacIntel,66.66666667,,,,,,,,,,,,,,,,,,,,,0,6,6,6,1,,,,,,,,,
,,,,,,,,,,,,,,,last,1,22,female,mixed,at home,2021-07-01_11h24.21.266,ImageRatingTask_S1,2021.1.4,MacIntel,66.66666667,,,,,,,,,,,,,,,,,,,,,0,7,7,7,1,,,,,,,,,
,,,,,,,,,,,,,,,,1,22,female,mixed,at home,2021-07-01_11h24.21.266,ImageRatingTask_S1,2021.1.4,MacIntel,66.66666667,,,,,,,,,,,,,,,,,,,,,,,,,,0,34,34,83,1,DreamStudyImages_rs1000x750g/Water/cityfountain.jpg,,,
,,,,,,,,,,,,,,,main,1,22,female,mixed,at home,2021-07-01_11h24.21.266,ImageRatingTask_S1,2021.1.4,MacIntel,66.66666667,,,,,,,,,,,4,2.936,1,1.11,9,2.276,1,3.437,6,1.09,0,0,0,0,1,,,,,,,,,
,,,,,,,,,,,,,,,second,1,22,female,mixed,at home,2021-07-01_11h24.21.266,ImageRatingTask_S1,2021.1.4,MacIntel,66.66666667,,,,,,,,,,,,,,,,,,,,,0,1,1,1,1,,,,,,,,,
,,,,,,,,,,,,,,,third,1,22,female,mixed,at home,2021-07-01_11h24.21.266,ImageRatingTask_S1,2021.1.4,MacIntel,66.66666667,,,,,,,,,,,,,,,,,,,,,0,2,2,2,1,,,,,,,,,
,,,,,,,,,,,,,,,fourth,1,22,female,mixed,at home,2021-07-01_11h24.21.266,ImageRatingTask_S1,2021.1.4,MacIntel,66.66666667,,,,,,,,,,,,,,,,,,,,,0,3,3,3,1,,,,,,,,,
,,,,,,,,,,,,,,,fifth,1,22,female,mixed,at home,2021-07-01_11h24.21.266,ImageRatingTask_S1,2021.1.4,MacIntel,66.66666667,,,,,,,,,,,,,,,,,,,,,0,4,4,4,1,,,,,,,,,
,,,,,,,,,,,,,,,sixth,1,22,female,mixed,at home,2021-07-01_11h24.21.266,ImageRatingTask_S1,2021.1.4,MacIntel,66.66666667,,,,,,,,,,,,,,,,,,,,,0,5,5,5,1,,,,,,,,,
,,,,,,,,,,,,,,,seventh,1,22,female,mixed,at home,2021-07-01_11h24.21.266,ImageRatingTask_S1,2021.1.4,MacIntel,66.66666667,,,,,,,,,,,,,,,,,,,,,0,6,6,6,1,,,,,,,,,
,,,,,,,,,,,,,,,last,1,22,female,mixed,at home,2021-07-01_11h24.21.266,ImageRatingTask_S1,2021.1.4,MacIntel,66.66666667,,,,,,,,,,,,,,,,,,,,,0,7,7,7,1,,,,,,,,,
,,,,,,,,,,,,,,,,1,22,female,mixed,at home,2021-07-01_11h24.21.266,ImageRatingTask_S1,2021.1.4,MacIntel,66.66666667,,,,,,,,,,,,,,,,,,,,,,,,,,0,35,35,100,1,DreamStudyImages_rs1000x750g/Houses/Landscapes_044_h.jpg,,,
,,,,,,,,,,,,,,,main,1,22,female,mixed,at home,2021-07-01_11h24.21.266,ImageRatingTask_S1,2021.1.4,MacIntel,66.66666667,,,,,,,,,,,4,4.182,2,3.807,9,2.576,1,3.407,3,1.959,0,0,0,0,1,,,,,,,,,
,,,,,,,,,,,,,,,second,1,22,female,mixed,at home,2021-07-01_11h24.21.266,ImageRatingTask_S1,2021.1.4,MacIntel,66.66666667,,,,,,,,,,,,,,,,,,,,,0,1,1,1,1,,,,,,,,,
,,,,,,,,,,,,,,,third,1,22,female,mixed,at home,2021-07-01_11h24.21.266,ImageRatingTask_S1,2021.1.4,MacIntel,66.66666667,,,,,,,,,,,,,,,,,,,,,0,2,2,2,1,,,,,,,,,
,,,,,,,,,,,,,,,fourth,1,22,female,mixed,at home,2021-07-01_11h24.21.266,ImageRatingTask_S1,2021.1.4,MacIntel,66.66666667,,,,,,,,,,,,,,,,,,,,,0,3,3,3,1,,,,,,,,,
,,,,,,,,,,,,,,,fifth,1,22,female,mixed,at home,2021-07-01_11h24.21.266,ImageRatingTask_S1,2021.1.4,MacIntel,66.66666667,,,,,,,,,,,,,,,,,,,,,0,4,4,4,1,,,,,,,,,
,,,,,,,,,,,,,,,sixth,1,22,female,mixed,at home,2021-07-01_11h24.21.266,ImageRatingTask_S1,2021.1.4,MacIntel,66.66666667,,,,,,,,,,,,,,,,,,,,,0,5,5,5,1,,,,,,,,,
,,,,,,,,,,,,,,,seventh,1,22,female,mixed,at home,2021-07-01_11h24.21.266,ImageRatingTask_S1,2021.1.4,MacIntel,66.66666667,,,,,,,,,,,,,,,,,,,,,0,6,6,6,1,,,,,,,,,
,,,,,,,,,,,,,,,last,1,22,female,mixed,at home,2021-07-01_11h24.21.266,ImageRatingTask_S1,2021.1.4,MacIntel,66.66666667,,,,,,,,,,,,,,,,,,,,,0,7,7,7,1,,,,,,,,,
,,,,,,,,,,,,,,,,1,22,female,mixed,at home,2021-07-01_11h24.21.266,ImageRatingTask_S1,2021.1.4,MacIntel,66.66666667,,,,,,,,,,,,,,,,,,,,,,,,,,0,36,36,29,1,DreamStudyImages_rs1000x750g/Mammals/Animals_053_h.jpg,,,
,,,,,,,,,,,,,,,main,1,22,female,mixed,at home,2021-07-01_11h24.21.266,ImageRatingTask_S1,2021.1.4,MacIntel,66.66666667,,,,,,,,,,,6,9.089,1,1.416,8,2.077,1,2.801,3,1.467,0,0,0,0,1,,,,,,,,,
,,,,,,,,,,,,,,,second,1,22,female,mixed,at home,2021-07-01_11h24.21.266,ImageRatingTask_S1,2021.1.4,MacIntel,66.66666667,,,,,,,,,,,,,,,,,,,,,0,1,1,1,1,,,,,,,,,
,,,,,,,,,,,,,,,third,1,22,female,mixed,at home,2021-07-01_11h24.21.266,ImageRatingTask_S1,2021.1.4,MacIntel,66.66666667,,,,,,,,,,,,,,,,,,,,,0,2,2,2,1,,,,,,,,,
,,,,,,,,,,,,,,,fourth,1,22,female,mixed,at home,2021-07-01_11h24.21.266,ImageRatingTask_S1,2021.1.4,MacIntel,66.66666667,,,,,,,,,,,,,,,,,,,,,0,3,3,3,1,,,,,,,,,
,,,,,,,,,,,,,,,fifth,1,22,female,mixed,at home,2021-07-01_11h24.21.266,ImageRatingTask_S1,2021.1.4,MacIntel,66.66666667,,,,,,,,,,,,,,,,,,,,,0,4,4,4,1,,,,,,,,,
,,,,,,,,,,,,,,,sixth,1,22,female,mixed,at home,2021-07-01_11h24.21.266,ImageRatingTask_S1,2021.1.4,MacIntel,66.66666667,,,,,,,,,,,,,,,,,,,,,0,5,5,5,1,,,,,,,,,
,,,,,,,,,,,,,,,seventh,1,22,female,mixed,at home,2021-07-01_11h24.21.266,ImageRatingTask_S1,2021.1.4,MacIntel,66.66666667,,,,,,,,,,,,,,,,,,,,,0,6,6,6,1,,,,,,,,,
,,,,,,,,,,,,,,,last,1,22,female,mixed,at home,2021-07-01_11h24.21.266,ImageRatingTask_S1,2021.1.4,MacIntel,66.66666667,,,,,,,,,,,,,,,,,,,,,0,7,7,7,1,,,,,,,,,
,,,,,,,,,,,,,,,,1,22,female,mixed,at home,2021-07-01_11h24.21.266,ImageRatingTask_S1,2021.1.4,MacIntel,66.66666667,,,,,,,,,,,,,,,,,,,,,,,,,,0,37,37,6,1,DreamStudyImages_rs1000x750g/Mammals/Pig 2.jpg,,,
,,,,,,,,,,,,,,,main,1,22,female,mixed,at home,2021-07-01_11h24.21.266,ImageRatingTask_S1,2021.1.4,MacIntel,66.66666667,,,,,,,,,,,3,10.928,2,1.755,8,3.507,1,5.621,5,1.202,0,0,0,0,1,,,,,,,,,
,,,,,,,,,,,,,,,second,1,22,female,mixed,at home,2021-07-01_11h24.21.266,ImageRatingTask_S1,2021.1.4,MacIntel,66.66666667,,,,,,,,,,,,,,,,,,,,,0,1,1,1,1,,,,,,,,,
,,,,,,,,,,,,,,,third,1,22,female,mixed,at home,2021-07-01_11h24.21.266,ImageRatingTask_S1,2021.1.4,MacIntel,66.66666667,,,,,,,,,,,,,,,,,,,,,0,2,2,2,1,,,,,,,,,
,,,,,,,,,,,,,,,fourth,1,22,female,mixed,at home,2021-07-01_11h24.21.266,ImageRatingTask_S1,2021.1.4,MacIntel,66.66666667,,,,,,,,,,,,,,,,,,,,,0,3,3,3,1,,,,,,,,,
,,,,,,,,,,,,,,,fifth,1,22,female,mixed,at home,2021-07-01_11h24.21.266,ImageRatingTask_S1,2021.1.4,MacIntel,66.66666667,,,,,,,,,,,,,,,,,,,,,0,4,4,4,1,,,,,,,,,
,,,,,,,,,,,,,,,sixth,1,22,female,mixed,at home,2021-07-01_11h24.21.266,ImageRatingTask_S1,2021.1.4,MacIntel,66.66666667,,,,,,,,,,,,,,,,,,,,,0,5,5,5,1,,,,,,,,,
,,,,,,,,,,,,,,,seventh,1,22,female,mixed,at home,2021-07-01_11h24.21.266,ImageRatingTask_S1,2021.1.4,MacIntel,66.66666667,,,,,,,,,,,,,,,,,,,,,0,6,6,6,1,,,,,,,,,
,,,,,,,,,,,,,,,last,1,22,female,mixed,at home,2021-07-01_11h24.21.266,ImageRatingTask_S1,2021.1.4,MacIntel,66.66666667,,,,,,,,,,,,,,,,,,,,,0,7,7,7,1,,,,,,,,,
,,,,,,,,,,,,,,,,1,22,female,mixed,at home,2021-07-01_11h24.21.266,ImageRatingTask_S1,2021.1.4,MacIntel,66.66666667,,,,,,,,,,,,,,,,,,,,,,,,,,0,38,38,65,1,DreamStudyImages_rs1000x750g/Food/food_neg_3bis.jpg,,,
,,,,,,,,,,,,,,,main,1,22,female,mixed,at home,2021-07-01_11h24.21.266,ImageRatingTask_S1,2021.1.4,MacIntel,66.66666667,,,,,,,,,,,5,3.875,1,1.582,7,4.922,1,2.414,7,1.022,0,0,0,0,1,,,,,,,,,
,,,,,,,,,,,,,,,second,1,22,female,mixed,at home,2021-07-01_11h24.21.266,ImageRatingTask_S1,2021.1.4,MacIntel,66.66666667,,,,,,,,,,,,,,,,,,,,,0,1,1,1,1,,,,,,,,,
,,,,,,,,,,,,,,,third,1,22,female,mixed,at home,2021-07-01_11h24.21.266,ImageRatingTask_S1,2021.1.4,MacIntel,66.66666667,,,,,,,,,,,,,,,,,,,,,0,2,2,2,1,,,,,,,,,
,,,,,,,,,,,,,,,fourth,1,22,female,mixed,at home,2021-07-01_11h24.21.266,ImageRatingTask_S1,2021.1.4,MacIntel,66.66666667,,,,,,,,,,,,,,,,,,,,,0,3,3,3,1,,,,,,,,,
,,,,,,,,,,,,,,,fifth,1,22,female,mixed,at home,2021-07-01_11h24.21.266,ImageRatingTask_S1,2021.1.4,MacIntel,66.66666667,,,,,,,,,,,,,,,,,,,,,0,4,4,4,1,,,,,,,,,
,,,,,,,,,,,,,,,sixth,1,22,female,mixed,at home,2021-07-01_11h24.21.266,ImageRatingTask_S1,2021.1.4,MacIntel,66.66666667,,,,,,,,,,,,,,,,,,,,,0,5,5,5,1,,,,,,,,,
,,,,,,,,,,,,,,,seventh,1,22,female,mixed,at home,2021-07-01_11h24.21.266,ImageRatingTask_S1,2021.1.4,MacIntel,66.66666667,,,,,,,,,,,,,,,,,,,,,0,6,6,6,1,,,,,,,,,
,,,,,,,,,,,,,,,last,1,22,female,mixed,at home,2021-07-01_11h24.21.266,ImageRatingTask_S1,2021.1.4,MacIntel,66.66666667,,,,,,,,,,,,,,,,,,,,,0,7,7,7,1,,,,,,,,,
,,,,,,,,,,,,,,,,1,22,female,mixed,at home,2021-07-01_11h24.21.266,ImageRatingTask_S1,2021.1.4,MacIntel,66.66666667,,,,,,,,,,,,,,,,,,,,,,,,,,0,39,39,148,1,DreamStudyImages_rs1000x750g/Vehicles/Objects_294_h.jpg,,,
,,,,,,,,,,,,,,,main,1,22,female,mixed,at home,2021-07-01_11h24.21.266,ImageRatingTask_S1,2021.1.4,MacIntel,66.66666667,,,,,,,,,,,6,7.743,2,2.066,7,3.267,1,6.052,5,3.663,0,0,0,0,1,,,,,,,,,
,,,,,,,,,,,,,,,second,1,22,female,mixed,at home,2021-07-01_11h24.21.266,ImageRatingTask_S1,2021.1.4,MacIntel,66.66666667,,,,,,,,,,,,,,,,,,,,,0,1,1,1,1,,,,,,,,,
,,,,,,,,,,,,,,,third,1,22,female,mixed,at home,2021-07-01_11h24.21.266,ImageRatingTask_S1,2021.1.4,MacIntel,66.66666667,,,,,,,,,,,,,,,,,,,,,0,2,2,2,1,,,,,,,,,
,,,,,,,,,,,,,,,fourth,1,22,female,mixed,at home,2021-07-01_11h24.21.266,ImageRatingTask_S1,2021.1.4,MacIntel,66.66666667,,,,,,,,,,,,,,,,,,,,,0,3,3,3,1,,,,,,,,,
,,,,,,,,,,,,,,,fifth,1,22,female,mixed,at home,2021-07-01_11h24.21.266,ImageRatingTask_S1,2021.1.4,MacIntel,66.66666667,,,,,,,,,,,,,,,,,,,,,0,4,4,4,1,,,,,,,,,
,,,,,,,,,,,,,,,sixth,1,22,female,mixed,at home,2021-07-01_11h24.21.266,ImageRatingTask_S1,2021.1.4,MacIntel,66.66666667,,,,,,,,,,,,,,,,,,,,,0,5,5,5,1,,,,,,,,,
,,,,,,,,,,,,,,,seventh,1,22,female,mixed,at home,2021-07-01_11h24.21.266,ImageRatingTask_S1,2021.1.4,MacIntel,66.66666667,,,,,,,,,,,,,,,,,,,,,0,6,6,6,1,,,,,,,,,
,,,,,,,,,,,,,,,last,1,22,female,mixed,at home,2021-07-01_11h24.21.266,ImageRatingTask_S1,2021.1.4,MacIntel,66.66666667,,,,,,,,,,,,,,,,,,,,,0,7,7,7,1,,,,,,,,,
,,,,,,,,,,,,,,,,1,22,female,mixed,at home,2021-07-01_11h24.21.266,ImageRatingTask_S1,2021.1.4,MacIntel,66.66666667,,,,,,,,,,,,,,,,,,,,,,,,,,0,40,40,101,1,DreamStudyImages_rs1000x750g/Food/Objects_077_h.jpg,,,
,,,,,,,,,,,,,,,main,1,22,female,mixed,at home,2021-07-01_11h24.21.266,ImageRatingTask_S1,2021.1.4,MacIntel,66.66666667,,,,,,,,,,,6,4.516,2,1.442,8,2.344,1,3.772,3,0.992,0,0,0,0,1,,,,,,,,,
,,,,,,,,,,,,,,,second,1,22,female,mixed,at home,2021-07-01_11h24.21.266,ImageRatingTask_S1,2021.1.4,MacIntel,66.66666667,,,,,,,,,,,,,,,,,,,,,0,1,1,1,1,,,,,,,,,
,,,,,,,,,,,,,,,third,1,22,female,mixed,at home,2021-07-01_11h24.21.266,ImageRatingTask_S1,2021.1.4,MacIntel,66.66666667,,,,,,,,,,,,,,,,,,,,,0,2,2,2,1,,,,,,,,,
,,,,,,,,,,,,,,,fourth,1,22,female,mixed,at home,2021-07-01_11h24.21.266,ImageRatingTask_S1,2021.1.4,MacIntel,66.66666667,,,,,,,,,,,,,,,,,,,,,0,3,3,3,1,,,,,,,,,
,,,,,,,,,,,,,,,fifth,1,22,female,mixed,at home,2021-07-01_11h24.21.266,ImageRatingTask_S1,2021.1.4,MacIntel,66.66666667,,,,,,,,,,,,,,,,,,,,,0,4,4,4,1,,,,,,,,,
,,,,,,,,,,,,,,,sixth,1,22,female,mixed,at home,2021-07-01_11h24.21.266,ImageRatingTask_S1,2021.1.4,MacIntel,66.66666667,,,,,,,,,,,,,,,,,,,,,0,5,5,5,1,,,,,,,,,
,,,,,,,,,,,,,,,seventh,1,22,female,mixed,at home,2021-07-01_11h24.21.266,ImageRatingTask_S1,2021.1.4,MacIntel,66.66666667,,,,,,,,,,,,,,,,,,,,,0,6,6,6,1,,,,,,,,,
,,,,,,,,,,,,,,,last,1,22,female,mixed,at home,2021-07-01_11h24.21.266,ImageRatingTask_S1,2021.1.4,MacIntel,66.66666667,,,,,,,,,,,,,,,,,,,,,0,7,7,7,1,,,,,,,,,
,,,,,,,,,,,,,,,,1,22,female,mixed,at home,2021-07-01_11h24.21.266,ImageRatingTask_S1,2021.1.4,MacIntel,66.66666667,,,,,,,,,,,,,,,,,,,,,,,,,,0,41,41,81,1,DreamStudyImages_rs1000x750g/Mammals/Animals_191_h.jpg,,,
,,,,,,,,,,,,,,,main,1,22,female,mixed,at home,2021-07-01_11h24.21.266,ImageRatingTask_S1,2021.1.4,MacIntel,66.66666667,,,,,,,,,,,4,6.764,2,1.828,7,2.51,0,6.202,,,0,0,0,0,1,,,,,,,,,
,,,,,,,,,,,,,,,second,1,22,female,mixed,at home,2021-07-01_11h24.21.266,ImageRatingTask_S1,2021.1.4,MacIntel,66.66666667,,,,,,,,,,,,,,,,,,,,,0,1,1,1,1,,,,,,,,,
,,,,,,,,,,,,,,,third,1,22,female,mixed,at home,2021-07-01_11h24.21.266,ImageRatingTask_S1,2021.1.4,MacIntel,66.66666667,,,,,,,,,,,,,,,,,,,,,0,2,2,2,1,,,,,,,,,
,,,,,,,,,,,,,,,fourth,1,22,female,mixed,at home,2021-07-01_11h24.21.266,ImageRatingTask_S1,2021.1.4,MacIntel,66.66666667,,,,,,,,,,,,,,,,,,,,,0,3,3,3,1,,,,,,,,,
,,,,,,,,,,,,,,,fifth,1,22,female,mixed,at home,2021-07-01_11h24.21.266,ImageRatingTask_S1,2021.1.4,MacIntel,66.66666667,,,,,,,,,,,,,,,,,,,,,0,4,4,4,1,,,,,,,,,
,,,,,,,,,,,,,,,sixth,1,22,female,mixed,at home,2021-07-01_11h24.21.266,ImageRatingTask_S1,2021.1.4,MacIntel,66.66666667,,,,,,,,,,,,,,,,,,,,,0,5,5,5,1,,,,,,,,,
,,,,,,,,,,,,,,,seventh,1,22,female,mixed,at home,2021-07-01_11h24.21.266,ImageRatingTask_S1,2021.1.4,MacIntel,66.66666667,,,,,,,,,,,,,,,,,,,,,0,6,6,6,1,,,,,,,,,
,,,,,,,,,,,,,,,last,1,22,female,mixed,at home,2021-07-01_11h24.21.266,ImageRatingTask_S1,2021.1.4,MacIntel,66.66666667,,,,,,,,,,,,,,,,,,,,,0,7,7,7,1,,,,,,,,,
,,,,,,,,,,,,,,,,1,22,female,mixed,at home,2021-07-01_11h24.21.266,ImageRatingTask_S1,2021.1.4,MacIntel,66.66666667,,,,,,,,,,,,,,,,,,,,,,,,,,0,42,42,116,1,DreamStudyImages_rs1000x750g/Houses/Jail 5.jpg,,,
,,,,,,,,,,,,,,,main,1,22,female,mixed,at home,2021-07-01_11h24.21.266,ImageRatingTask_S1,2021.1.4,MacIntel,66.66666667,,,,,,,,,,,5,3.386,1,2.72,5,3.017,1,3.356,3,2.79,0,0,0,0,1,,,,,,,,,
,,,,,,,,,,,,,,,second,1,22,female,mixed,at home,2021-07-01_11h24.21.266,ImageRatingTask_S1,2021.1.4,MacIntel,66.66666667,,,,,,,,,,,,,,,,,,,,,0,1,1,1,1,,,,,,,,,
,,,,,,,,,,,,,,,third,1,22,female,mixed,at home,2021-07-01_11h24.21.266,ImageRatingTask_S1,2021.1.4,MacIntel,66.66666667,,,,,,,,,,,,,,,,,,,,,0,2,2,2,1,,,,,,,,,
,,,,,,,,,,,,,,,fourth,1,22,female,mixed,at home,2021-07-01_11h24.21.266,ImageRatingTask_S1,2021.1.4,MacIntel,66.66666667,,,,,,,,,,,,,,,,,,,,,0,3,3,3,1,,,,,,,,,
,,,,,,,,,,,,,,,fifth,1,22,female,mixed,at home,2021-07-01_11h24.21.266,ImageRatingTask_S1,2021.1.4,MacIntel,66.66666667,,,,,,,,,,,,,,,,,,,,,0,4,4,4,1,,,,,,,,,
,,,,,,,,,,,,,,,sixth,1,22,female,mixed,at home,2021-07-01_11h24.21.266,ImageRatingTask_S1,2021.1.4,MacIntel,66.66666667,,,,,,,,,,,,,,,,,,,,,0,5,5,5,1,,,,,,,,,
,,,,,,,,,,,,,,,seventh,1,22,female,mixed,at home,2021-07-01_11h24.21.266,ImageRatingTask_S1,2021.1.4,MacIntel,66.66666667,,,,,,,,,,,,,,,,,,,,,0,6,6,6,1,,,,,,,,,
,,,,,,,,,,,,,,,last,1,22,female,mixed,at home,2021-07-01_11h24.21.266,ImageRatingTask_S1,2021.1.4,MacIntel,66.66666667,,,,,,,,,,,,,,,,,,,,,0,7,7,7,1,,,,,,,,,
,,,,,,,,,,,,,,,,1,22,female,mixed,at home,2021-07-01_11h24.21.266,ImageRatingTask_S1,2021.1.4,MacIntel,66.66666667,,,,,,,,,,,,,,,,,,,,,,,,,,0,43,43,156,1,DreamStudyImages_rs1000x750g/Mammals/IAPS1540_cat.jpg,,,
,,,,,,,,,,,,,,,main,1,22,female,mixed,at home,2021-07-01_11h24.21.266,ImageRatingTask_S1,2021.1.4,MacIntel,66.66666667,,,,,,,,,,,4,4.594,3,3.281,8,2.725,1,2.872,2,0.94,0,0,0,0,1,,,,,,,,,
,,,,,,,,,,,,,,,second,1,22,female,mixed,at home,2021-07-01_11h24.21.266,ImageRatingTask_S1,2021.1.4,MacIntel,66.66666667,,,,,,,,,,,,,,,,,,,,,0,1,1,1,1,,,,,,,,,
,,,,,,,,,,,,,,,third,1,22,female,mixed,at home,2021-07-01_11h24.21.266,ImageRatingTask_S1,2021.1.4,MacIntel,66.66666667,,,,,,,,,,,,,,,,,,,,,0,2,2,2,1,,,,,,,,,
,,,,,,,,,,,,,,,fourth,1,22,female,mixed,at home,2021-07-01_11h24.21.266,ImageRatingTask_S1,2021.1.4,MacIntel,66.66666667,,,,,,,,,,,,,,,,,,,,,0,3,3,3,1,,,,,,,,,
,,,,,,,,,,,,,,,fifth,1,22,female,mixed,at home,2021-07-01_11h24.21.266,ImageRatingTask_S1,2021.1.4,MacIntel,66.66666667,,,,,,,,,,,,,,,,,,,,,0,4,4,4,1,,,,,,,,,
,,,,,,,,,,,,,,,sixth,1,22,female,mixed,at home,2021-07-01_11h24.21.266,ImageRatingTask_S1,2021.1.4,MacIntel,66.66666667,,,,,,,,,,,,,,,,,,,,,0,5,5,5,1,,,,,,,,,
,,,,,,,,,,,,,,,seventh,1,22,female,mixed,at home,2021-07-01_11h24.21.266,ImageRatingTask_S1,2021.1.4,MacIntel,66.66666667,,,,,,,,,,,,,,,,,,,,,0,6,6,6,1,,,,,,,,,
,,,,,,,,,,,,,,,last,1,22,female,mixed,at home,2021-07-01_11h24.21.266,ImageRatingTask_S1,2021.1.4,MacIntel,66.66666667,,,,,,,,,,,,,,,,,,,,,0,7,7,7,1,,,,,,,,,
,,,,,,,,,,,,,,,,1,22,female,mixed,at home,2021-07-01_11h24.21.266,ImageRatingTask_S1,2021.1.4,MacIntel,66.66666667,,,,,,,,,,,,,,,,,,,,,,,,,,0,44,44,63,1,DreamStudyImages_rs1000x750g/Children/IAPS2345.1_boy7.jpg,,,
,,,,,,,,,,,,,,,main,1,22,female,mixed,at home,2021-07-01_11h24.21.266,ImageRatingTask_S1,2021.1.4,MacIntel,66.66666667,,,,,,,,,,,5,5.874,2,2.066,7,2.022,1,3.421,5,1.09,0,0,0,0,1,,,,,,,,,
,,,,,,,,,,,,,,,second,1,22,female,mixed,at home,2021-07-01_11h24.21.266,ImageRatingTask_S1,2021.1.4,MacIntel,66.66666667,,,,,,,,,,,,,,,,,,,,,0,1,1,1,1,,,,,,,,,
,,,,,,,,,,,,,,,third,1,22,female,mixed,at home,2021-07-01_11h24.21.266,ImageRatingTask_S1,2021.1.4,MacIntel,66.66666667,,,,,,,,,,,,,,,,,,,,,0,2,2,2,1,,,,,,,,,
,,,,,,,,,,,,,,,fourth,1,22,female,mixed,at home,2021-07-01_11h24.21.266,ImageRatingTask_S1,2021.1.4,MacIntel,66.66666667,,,,,,,,,,,,,,,,,,,,,0,3,3,3,1,,,,,,,,,
,,,,,,,,,,,,,,,fifth,1,22,female,mixed,at home,2021-07-01_11h24.21.266,ImageRatingTask_S1,2021.1.4,MacIntel,66.66666667,,,,,,,,,,,,,,,,,,,,,0,4,4,4,1,,,,,,,,,
,,,,,,,,,,,,,,,sixth,1,22,female,mixed,at home,2021-07-01_11h24.21.266,ImageRatingTask_S1,2021.1.4,MacIntel,66.66666667,,,,,,,,,,,,,,,,,,,,,0,5,5,5,1,,,,,,,,,
,,,,,,,,,,,,,,,seventh,1,22,female,mixed,at home,2021-07-01_11h24.21.266,ImageRatingTask_S1,2021.1.4,MacIntel,66.66666667,,,,,,,,,,,,,,,,,,,,,0,6,6,6,1,,,,,,,,,
,,,,,,,,,,,,,,,last,1,22,female,mixed,at home,2021-07-01_11h24.21.266,ImageRatingTask_S1,2021.1.4,MacIntel,66.66666667,,,,,,,,,,,,,,,,,,,,,0,7,7,7,1,,,,,,,,,
,,,,,,,,,,,,,,,,1,22,female,mixed,at home,2021-07-01_11h24.21.266,ImageRatingTask_S1,2021.1.4,MacIntel,66.66666667,,,,,,,,,,,,,,,,,,,,,,,,,,0,45,45,71,1,DreamStudyImages_rs1000x750g/Food/IAPS7281_skewers.jpg,,,
,,,,,,,,,,,,,,,main,1,22,female,mixed,at home,2021-07-01_11h24.21.266,ImageRatingTask_S1,2021.1.4,MacIntel,66.66666667,,,,,,,,,,,4,3.619,1,1.972,8,1.964,1,3.322,6,1.092,0,0,0,0,1,,,,,,,,,
,,,,,,,,,,,,,,,second,1,22,female,mixed,at home,2021-07-01_11h24.21.266,ImageRatingTask_S1,2021.1.4,MacIntel,66.66666667,,,,,,,,,,,,,,,,,,,,,0,1,1,1,1,,,,,,,,,
,,,,,,,,,,,,,,,third,1,22,female,mixed,at home,2021-07-01_11h24.21.266,ImageRatingTask_S1,2021.1.4,MacIntel,66.66666667,,,,,,,,,,,,,,,,,,,,,0,2,2,2,1,,,,,,,,,
,,,,,,,,,,,,,,,fourth,1,22,female,mixed,at home,2021-07-01_11h24.21.266,ImageRatingTask_S1,2021.1.4,MacIntel,66.66666667,,,,,,,,,,,,,,,,,,,,,0,3,3,3,1,,,,,,,,,
,,,,,,,,,,,,,,,fifth,1,22,female,mixed,at home,2021-07-01_11h24.21.266,ImageRatingTask_S1,2021.1.4,MacIntel,66.66666667,,,,,,,,,,,,,,,,,,,,,0,4,4,4,1,,,,,,,,,
,,,,,,,,,,,,,,,sixth,1,22,female,mixed,at home,2021-07-01_11h24.21.266,ImageRatingTask_S1,2021.1.4,MacIntel,66.66666667,,,,,,,,,,,,,,,,,,,,,0,5,5,5,1,,,,,,,,,
,,,,,,,,,,,,,,,seventh,1,22,female,mixed,at home,2021-07-01_11h24.21.266,ImageRatingTask_S1,2021.1.4,MacIntel,66.66666667,,,,,,,,,,,,,,,,,,,,,0,6,6,6,1,,,,,,,,,
,,,,,,,,,,,,,,,last,1,22,female,mixed,at home,2021-07-01_11h24.21.266,ImageRatingTask_S1,2021.1.4,MacIntel,66.66666667,,,,,,,,,,,,,,,,,,,,,0,7,7,7,1,,,,,,,,,
,,,,,,,,,,,,,,,,1,22,female,mixed,at home,2021-07-01_11h24.21.266,ImageRatingTask_S1,2021.1.4,MacIntel,66.66666667,,,,,,,,,,,,,,,,,,,,,,,,,,0,46,46,28,1,DreamStudyImages_rs1000x750g/Houses/IAPS9469_ruins.jpg,,,
,,,,,,,,,,,,,,,main,1,22,female,mixed,at home,2021-07-01_11h24.21.266,ImageRatingTask_S1,2021.1.4,MacIntel,66.66666667,,,,,,,,,,,5,5.903,1,3.238,6,4.42,0,2.044,,,0,0,0,0,1,,,,,,,,,
,,,,,,,,,,,,,,,second,1,22,female,mixed,at home,2021-07-01_11h24.21.266,ImageRatingTask_S1,2021.1.4,MacIntel,66.66666667,,,,,,,,,,,,,,,,,,,,,0,1,1,1,1,,,,,,,,,
,,,,,,,,,,,,,,,third,1,22,female,mixed,at home,2021-07-01_11h24.21.266,ImageRatingTask_S1,2021.1.4,MacIntel,66.66666667,,,,,,,,,,,,,,,,,,,,,0,2,2,2,1,,,,,,,,,
,,,,,,,,,,,,,,,fourth,1,22,female,mixed,at home,2021-07-01_11h24.21.266,ImageRatingTask_S1,2021.1.4,MacIntel,66.66666667,,,,,,,,,,,,,,,,,,,,,0,3,3,3,1,,,,,,,,,
,,,,,,,,,,,,,,,fifth,1,22,female,mixed,at home,2021-07-01_11h24.21.266,ImageRatingTask_S1,2021.1.4,MacIntel,66.66666667,,,,,,,,,,,,,,,,,,,,,0,4,4,4,1,,,,,,,,,
,,,,,,,,,,,,,,,sixth,1,22,female,mixed,at home,2021-07-01_11h24.21.266,ImageRatingTask_S1,2021.1.4,MacIntel,66.66666667,,,,,,,,,,,,,,,,,,,,,0,5,5,5,1,,,,,,,,,
,,,,,,,,,,,,,,,seventh,1,22,female,mixed,at home,2021-07-01_11h24.21.266,ImageRatingTask_S1,2021.1.4,MacIntel,66.66666667,,,,,,,,,,,,,,,,,,,,,0,6,6,6,1,,,,,,,,,
,,,,,,,,,,,,,,,last,1,22,female,mixed,at home,2021-07-01_11h24.21.266,ImageRatingTask_S1,2021.1.4,MacIntel,66.66666667,,,,,,,,,,,,,,,,,,,,,0,7,7,7,1,,,,,,,,,
,,,,,,,,,,,,,,,,1,22,female,mixed,at home,2021-07-01_11h24.21.266,ImageRatingTask_S1,2021.1.4,MacIntel,66.66666667,,,,,,,,,,,,,,,,,,,,,,,,,,0,47,47,153,1,DreamStudyImages_rs1000x750g/Houses/IAPS5665_house.jpg,,,
,,,,,,,,,,,,,,,main,1,22,female,mixed,at home,2021-07-01_11h24.21.266,ImageRatingTask_S1,2021.1.4,MacIntel,66.66666667,,,,,,,,,,,4,7.283,2,0.995,7,4.144,1,3.054,6,1.283,0,0,0,0,1,,,,,,,,,
,,,,,,,,,,,,,,,second,1,22,female,mixed,at home,2021-07-01_11h24.21.266,ImageRatingTask_S1,2021.1.4,MacIntel,66.66666667,,,,,,,,,,,,,,,,,,,,,0,1,1,1,1,,,,,,,,,
,,,,,,,,,,,,,,,third,1,22,female,mixed,at home,2021-07-01_11h24.21.266,ImageRatingTask_S1,2021.1.4,MacIntel,66.66666667,,,,,,,,,,,,,,,,,,,,,0,2,2,2,1,,,,,,,,,
,,,,,,,,,,,,,,,fourth,1,22,female,mixed,at home,2021-07-01_11h24.21.266,ImageRatingTask_S1,2021.1.4,MacIntel,66.66666667,,,,,,,,,,,,,,,,,,,,,0,3,3,3,1,,,,,,,,,
,,,,,,,,,,,,,,,fifth,1,22,female,mixed,at home,2021-07-01_11h24.21.266,ImageRatingTask_S1,2021.1.4,MacIntel,66.66666667,,,,,,,,,,,,,,,,,,,,,0,4,4,4,1,,,,,,,,,
,,,,,,,,,,,,,,,sixth,1,22,female,mixed,at home,2021-07-01_11h24.21.266,ImageRatingTask_S1,2021.1.4,MacIntel,66.66666667,,,,,,,,,,,,,,,,,,,,,0,5,5,5,1,,,,,,,,,
,,,,,,,,,,,,,,,seventh,1,22,female,mixed,at home,2021-07-01_11h24.21.266,ImageRatingTask_S1,2021.1.4,MacIntel,66.66666667,,,,,,,,,,,,,,,,,,,,,0,6,6,6,1,,,,,,,,,
,,,,,,,,,,,,,,,last,1,22,female,mixed,at home,2021-07-01_11h24.21.266,ImageRatingTask_S1,2021.1.4,MacIntel,66.66666667,,,,,,,,,,,,,,,,,,,,,0,7,7,7,1,,,,,,,,,
,,,,,,,,,,,,,,,,1,22,female,mixed,at home,2021-07-01_11h24.21.266,ImageRatingTask_S1,2021.1.4,MacIntel,66.66666667,,,,,,,,,,,,,,,,,,,,,,,,,,0,48,48,36,1,DreamStudyImages_rs1000x750g/Houses/Landscapes_002_h.jpg,,,
,,,,,,,,,,,,,,,main,1,22,female,mixed,at home,2021-07-01_11h24.21.266,ImageRatingTask_S1,2021.1.4,MacIntel,66.66666667,,,,,,,,,,,5,3.091,2,1.644,6,2.387,2,4.52,7,0.938,0,0,0,0,1,,,,,,,,,
,,,,,,,,,,,,,,,second,1,22,female,mixed,at home,2021-07-01_11h24.21.266,ImageRatingTask_S1,2021.1.4,MacIntel,66.66666667,,,,,,,,,,,,,,,,,,,1,0.898,0,1,1,1,1,,,,,,,,,
,,,,,,,,,,,,,,,third,1,22,female,mixed,at home,2021-07-01_11h24.21.266,ImageRatingTask_S1,2021.1.4,MacIntel,66.66666667,,,,,,,,,,,,,,,,,,,,,0,2,2,2,1,,,,,,,,,
,,,,,,,,,,,,,,,fourth,1,22,female,mixed,at home,2021-07-01_11h24.21.266,ImageRatingTask_S1,2021.1.4,MacIntel,66.66666667,,,,,,,,,,,,,,,,,,,,,0,3,3,3,1,,,,,,,,,
,,,,,,,,,,,,,,,fifth,1,22,female,mixed,at home,2021-07-01_11h24.21.266,ImageRatingTask_S1,2021.1.4,MacIntel,66.66666667,,,,,,,,,,,,,,,,,,,,,0,4,4,4,1,,,,,,,,,
,,,,,,,,,,,,,,,sixth,1,22,female,mixed,at home,2021-07-01_11h24.21.266,ImageRatingTask_S1,2021.1.4,MacIntel,66.66666667,,,,,,,,,,,,,,,,,,,,,0,5,5,5,1,,,,,,,,,
,,,,,,,,,,,,,,,seventh,1,22,female,mixed,at home,2021-07-01_11h24.21.266,ImageRatingTask_S1,2021.1.4,MacIntel,66.66666667,,,,,,,,,,,,,,,,,,,,,0,6,6,6,1,,,,,,,,,
,,,,,,,,,,,,,,,last,1,22,female,mixed,at home,2021-07-01_11h24.21.266,ImageRatingTask_S1,2021.1.4,MacIntel,66.66666667,,,,,,,,,,,,,,,,,,,,,0,7,7,7,1,,,,,,,,,
,,,,,,,,,,,,,,,,1,22,female,mixed,at home,2021-07-01_11h24.21.266,ImageRatingTask_S1,2021.1.4,MacIntel,66.66666667,,,,,,,,,,,,,,,,,,,,,,,,,,0,49,49,39,1,DreamStudyImages_rs1000x750g/Vehicles/Car race 3.jpg,,,
,,,,,,,,,,,,,,,main,1,22,female,mixed,at home,2021-07-01_11h24.21.266,ImageRatingTask_S1,2021.1.4,MacIntel,66.66666667,,,,,,,,,,,5,8.765,1,2.065,6,6.127,1,2.982,8,0.986,0,0,0,0,1,,,,,,,,,
,,,,,,,,,,,,,,,second,1,22,female,mixed,at home,2021-07-01_11h24.21.266,ImageRatingTask_S1,2021.1.4,MacIntel,66.66666667,,,,,,,,,,,,,,,,,,,,,0,1,1,1,1,,,,,,,,,
,,,,,,,,,,,,,,,third,1,22,female,mixed,at home,2021-07-01_11h24.21.266,ImageRatingTask_S1,2021.1.4,MacIntel,66.66666667,,,,,,,,,,,,,,,,,,,,,0,2,2,2,1,,,,,,,,,
,,,,,,,,,,,,,,,fourth,1,22,female,mixed,at home,2021-07-01_11h24.21.266,ImageRatingTask_S1,2021.1.4,MacIntel,66.66666667,,,,,,,,,,,,,,,,,,,,,0,3,3,3,1,,,,,,,,,
,,,,,,,,,,,,,,,fifth,1,22,female,mixed,at home,2021-07-01_11h24.21.266,ImageRatingTask_S1,2021.1.4,MacIntel,66.66666667,,,,,,,,,,,,,,,,,,,,,0,4,4,4,1,,,,,,,,,
,,,,,,,,,,,,,,,sixth,1,22,female,mixed,at home,2021-07-01_11h24.21.266,ImageRatingTask_S1,2021.1.4,MacIntel,66.66666667,,,,,,,,,,,,,,,,,,,,,0,5,5,5,1,,,,,,,,,
,,,,,,,,,,,,,,,seventh,1,22,female,mixed,at home,2021-07-01_11h24.21.266,ImageRatingTask_S1,2021.1.4,MacIntel,66.66666667,,,,,,,,,,,,,,,,,,,,,0,6,6,6,1,,,,,,,,,
,,,,,,,,,,,,,,,last,1,22,female,mixed,at home,2021-07-01_11h24.21.266,ImageRatingTask_S1,2021.1.4,MacIntel,66.66666667,,,,,,,,,,,,,,,,,,,,,0,7,7,7,1,,,,,,,,,
,,,,,,,,,,,,,,,,1,22,female,mixed,at home,2021-07-01_11h24.21.266,ImageRatingTask_S1,2021.1.4,MacIntel,66.66666667,,,,,,,,,,,,,,,,,,,,,,,,,,0,50,50,14,1,DreamStudyImages_rs1000x750g/Water/Bridge 1.jpg,,,
,,,,,,,,,,,,,,,main,1,22,female,mixed,at home,2021-07-01_11h24.21.266,ImageRatingTask_S1,2021.1.4,MacIntel,66.66666667,,,,,,,,,,,2,4.373,5,6.482,7,2.846,1,3.289,2,0.889,0,0,0,0,1,,,,,,,,,
,,,,,,,,,,,,,,,second,1,22,female,mixed,at home,2021-07-01_11h24.21.266,ImageRatingTask_S1,2021.1.4,MacIntel,66.66666667,,,,,,,,,,,,,,,,,,,,,0,1,1,1,1,,,,,,,,,
,,,,,,,,,,,,,,,third,1,22,female,mixed,at home,2021-07-01_11h24.21.266,ImageRatingTask_S1,2021.1.4,MacIntel,66.66666667,,,,,,,,,,,,,,,,,,,,,0,2,2,2,1,,,,,,,,,
,,,,,,,,,,,,,,,fourth,1,22,female,mixed,at home,2021-07-01_11h24.21.266,ImageRatingTask_S1,2021.1.4,MacIntel,66.66666667,,,,,,,,,,,,,,,,,,,,,0,3,3,3,1,,,,,,,,,
,,,,,,,,,,,,,,,fifth,1,22,female,mixed,at home,2021-07-01_11h24.21.266,ImageRatingTask_S1,2021.1.4,MacIntel,66.66666667,,,,,,,,,,,,,,,,,,,,,0,4,4,4,1,,,,,,,,,
,,,,,,,,,,,,,,,sixth,1,22,female,mixed,at home,2021-07-01_11h24.21.266,ImageRatingTask_S1,2021.1.4,MacIntel,66.66666667,,,,,,,,,,,,,,,,,,,,,0,5,5,5,1,,,,,,,,,
,,,,,,,,,,,,,,,seventh,1,22,female,mixed,at home,2021-07-01_11h24.21.266,ImageRatingTask_S1,2021.1.4,MacIntel,66.66666667,,,,,,,,,,,,,,,,,,,,,0,6,6,6,1,,,,,,,,,
,,,,,,,,,,,,,,,last,1,22,female,mixed,at home,2021-07-01_11h24.21.266,ImageRatingTask_S1,2021.1.4,MacIntel,66.66666667,,,,,,,,,,,,,,,,,,,,,0,7,7,7,1,,,,,,,,,
,,,,,,,,,,,,,,,,1,22,female,mixed,at home,2021-07-01_11h24.21.266,ImageRatingTask_S1,2021.1.4,MacIntel,66.66666667,,,,,,,,,,,,,,,,,,,,,,,,,,0,51,51,89,1,DreamStudyImages_rs1000x750g/Children/IAPS3350_baby28.jpg,,,
,,,,,,,,,,,,,,,main,1,22,female,mixed,at home,2021-07-01_11h24.21.266,ImageRatingTask_S1,2021.1.4,MacIntel,66.66666667,,,,,,,,,,,4,9.986,2,1.998,9,2.294,0,2.985,,,0,0,0,0,1,,,,,,,,,
,,,,,,,,,,,,,,,second,1,22,female,mixed,at home,2021-07-01_11h24.21.266,ImageRatingTask_S1,2021.1.4,MacIntel,66.66666667,,,,,,,,,,,,,,,,,,,,,0,1,1,1,1,,,,,,,,,
,,,,,,,,,,,,,,,third,1,22,female,mixed,at home,2021-07-01_11h24.21.266,ImageRatingTask_S1,2021.1.4,MacIntel,66.66666667,,,,,,,,,,,,,,,,,,,,,0,2,2,2,1,,,,,,,,,
,,,,,,,,,,,,,,,fourth,1,22,female,mixed,at home,2021-07-01_11h24.21.266,ImageRatingTask_S1,2021.1.4,MacIntel,66.66666667,,,,,,,,,,,,,,,,,,,,,0,3,3,3,1,,,,,,,,,
,,,,,,,,,,,,,,,fifth,1,22,female,mixed,at home,2021-07-01_11h24.21.266,ImageRatingTask_S1,2021.1.4,MacIntel,66.66666667,,,,,,,,,,,,,,,,,,,,,0,4,4,4,1,,,,,,,,,
,,,,,,,,,,,,,,,sixth,1,22,female,mixed,at home,2021-07-01_11h24.21.266,ImageRatingTask_S1,2021.1.4,MacIntel,66.66666667,,,,,,,,,,,,,,,,,,,,,0,5,5,5,1,,,,,,,,,
,,,,,,,,,,,,,,,seventh,1,22,female,mixed,at home,2021-07-01_11h24.21.266,ImageRatingTask_S1,2021.1.4,MacIntel,66.66666667,,,,,,,,,,,,,,,,,,,,,0,6,6,6,1,,,,,,,,,
,,,,,,,,,,,,,,,last,1,22,female,mixed,at home,2021-07-01_11h24.21.266,ImageRatingTask_S1,2021.1.4,MacIntel,66.66666667,,,,,,,,,,,,,,,,,,,,,0,7,7,7,1,,,,,,,,,
,,,,,,,,,,,,,,,,1,22,female,mixed,at home,2021-07-01_11h24.21.266,ImageRatingTask_S1,2021.1.4,MacIntel,66.66666667,,,,,,,,,,,,,,,,,,,,,,,,,,0,52,52,20,1,DreamStudyImages_rs1000x750g/Food/Objects_093_h.jpg,,,
,,,,,,,,,,,,,,,main,1,22,female,mixed,at home,2021-07-01_11h24.21.266,ImageRatingTask_S1,2021.1.4,MacIntel,66.66666667,,,,,,,,,,,6,2.537,1,3.419,8,5.241,1,3.538,2,0.766,0,0,0,0,1,,,,,,,,,
,,,,,,,,,,,,,,,second,1,22,female,mixed,at home,2021-07-01_11h24.21.266,ImageRatingTask_S1,2021.1.4,MacIntel,66.66666667,,,,,,,,,,,,,,,,,,,,,0,1,1,1,1,,,,,,,,,
,,,,,,,,,,,,,,,third,1,22,female,mixed,at home,2021-07-01_11h24.21.266,ImageRatingTask_S1,2021.1.4,MacIntel,66.66666667,,,,,,,,,,,,,,,,,,,,,0,2,2,2,1,,,,,,,,,
,,,,,,,,,,,,,,,fourth,1,22,female,mixed,at home,2021-07-01_11h24.21.266,ImageRatingTask_S1,2021.1.4,MacIntel,66.66666667,,,,,,,,,,,,,,,,,,,,,0,3,3,3,1,,,,,,,,,
,,,,,,,,,,,,,,,fifth,1,22,female,mixed,at home,2021-07-01_11h24.21.266,ImageRatingTask_S1,2021.1.4,MacIntel,66.66666667,,,,,,,,,,,,,,,,,,,,,0,4,4,4,1,,,,,,,,,
,,,,,,,,,,,,,,,sixth,1,22,female,mixed,at home,2021-07-01_11h24.21.266,ImageRatingTask_S1,2021.1.4,MacIntel,66.66666667,,,,,,,,,,,,,,,,,,,,,0,5,5,5,1,,,,,,,,,
,,,,,,,,,,,,,,,seventh,1,22,female,mixed,at home,2021-07-01_11h24.21.266,ImageRatingTask_S1,2021.1.4,MacIntel,66.66666667,,,,,,,,,,,,,,,,,,,,,0,6,6,6,1,,,,,,,,,
,,,,,,,,,,,,,,,last,1,22,female,mixed,at home,2021-07-01_11h24.21.266,ImageRatingTask_S1,2021.1.4,MacIntel,66.66666667,,,,,,,,,,,,,,,,,,,,,0,7,7,7,1,,,,,,,,,
,,,,,,,,,,,,,,,,1,22,female,mixed,at home,2021-07-01_11h24.21.266,ImageRatingTask_S1,2021.1.4,MacIntel,66.66666667,,,,,,,,,,,,,,,,,,,,,,,,,,0,53,53,41,1,DreamStudyImages_rs1000x750g/Children/Siblings 1.jpg,,,
,,,,,,,,,,,,,,,main,1,22,female,mixed,at home,2021-07-01_11h24.21.266,ImageRatingTask_S1,2021.1.4,MacIntel,66.66666667,,,,,,,,,,,6,4.1,1,4.163,7,2.422,1,1.767,8,1.6,0,0,0,0,1,,,,,,,,,
,,,,,,,,,,,,,,,second,1,22,female,mixed,at home,2021-07-01_11h24.21.266,ImageRatingTask_S1,2021.1.4,MacIntel,66.66666667,,,,,,,,,,,,,,,,,,,,,0,1,1,1,1,,,,,,,,,
,,,,,,,,,,,,,,,third,1,22,female,mixed,at home,2021-07-01_11h24.21.266,ImageRatingTask_S1,2021.1.4,MacIntel,66.66666667,,,,,,,,,,,,,,,,,,,,,0,2,2,2,1,,,,,,,,,
,,,,,,,,,,,,,,,fourth,1,22,female,mixed,at home,2021-07-01_11h24.21.266,ImageRatingTask_S1,2021.1.4,MacIntel,66.66666667,,,,,,,,,,,,,,,,,,,,,0,3,3,3,1,,,,,,,,,
,,,,,,,,,,,,,,,fifth,1,22,female,mixed,at home,2021-07-01_11h24.21.266,ImageRatingTask_S1,2021.1.4,MacIntel,66.66666667,,,,,,,,,,,,,,,,,,,,,0,4,4,4,1,,,,,,,,,
,,,,,,,,,,,,,,,sixth,1,22,female,mixed,at home,2021-07-01_11h24.21.266,ImageRatingTask_S1,2021.1.4,MacIntel,66.66666667,,,,,,,,,,,,,,,,,,,,,0,5,5,5,1,,,,,,,,,
,,,,,,,,,,,,,,,seventh,1,22,female,mixed,at home,2021-07-01_11h24.21.266,ImageRatingTask_S1,2021.1.4,MacIntel,66.66666667,,,,,,,,,,,,,,,,,,,,,0,6,6,6,1,,,,,,,,,
,,,,,,,,,,,,,,,last,1,22,female,mixed,at home,2021-07-01_11h24.21.266,ImageRatingTask_S1,2021.1.4,MacIntel,66.66666667,,,,,,,,,,,,,,,,,,,,,0,7,7,7,1,,,,,,,,,
,,,,,,,,,,,,,,,,1,22,female,mixed,at home,2021-07-01_11h24.21.266,ImageRatingTask_S1,2021.1.4,MacIntel,66.66666667,,,,,,,,,,,,,,,,,,,,,,,,,,0,54,54,35,1,DreamStudyImages_rs1000x750g/Water/seacliff.jpg,,,
,,,,,,,,,,,,,,,main,1,22,female,mixed,at home,2021-07-01_11h24.21.266,ImageRatingTask_S1,2021.1.4,MacIntel,66.66666667,,,,,,,,,,,5,2.147,1,0.927,9,3.167,1,1.652,2,1.107,0,0,0,0,1,,,,,,,,,
,,,,,,,,,,,,,,,second,1,22,female,mixed,at home,2021-07-01_11h24.21.266,ImageRatingTask_S1,2021.1.4,MacIntel,66.66666667,,,,,,,,,,,,,,,,,,,,,0,1,1,1,1,,,,,,,,,
,,,,,,,,,,,,,,,third,1,22,female,mixed,at home,2021-07-01_11h24.21.266,ImageRatingTask_S1,2021.1.4,MacIntel,66.66666667,,,,,,,,,,,,,,,,,,,,,0,2,2,2,1,,,,,,,,,
,,,,,,,,,,,,,,,fourth,1,22,female,mixed,at home,2021-07-01_11h24.21.266,ImageRatingTask_S1,2021.1.4,MacIntel,66.66666667,,,,,,,,,,,,,,,,,,,,,0,3,3,3,1,,,,,,,,,
,,,,,,,,,,,,,,,fifth,1,22,female,mixed,at home,2021-07-01_11h24.21.266,ImageRatingTask_S1,2021.1.4,MacIntel,66.66666667,,,,,,,,,,,,,,,,,,,,,0,4,4,4,1,,,,,,,,,
,,,,,,,,,,,,,,,sixth,1,22,female,mixed,at home,2021-07-01_11h24.21.266,ImageRatingTask_S1,2021.1.4,MacIntel,66.66666667,,,,,,,,,,,,,,,,,,,,,0,5,5,5,1,,,,,,,,,
,,,,,,,,,,,,,,,seventh,1,22,female,mixed,at home,2021-07-01_11h24.21.266,ImageRatingTask_S1,2021.1.4,MacIntel,66.66666667,,,,,,,,,,,,,,,,,,,,,0,6,6,6,1,,,,,,,,,
,,,,,,,,,,,,,,,last,1,22,female,mixed,at home,2021-07-01_11h24.21.266,ImageRatingTask_S1,2021.1.4,MacIntel,66.66666667,,,,,,,,,,,,,,,,,,,,,0,7,7,7,1,,,,,,,,,
,,,,,,,,,,,,,,,,1,22,female,mixed,at home,2021-07-01_11h24.21.266,ImageRatingTask_S1,2021.1.4,MacIntel,66.66666667,,,,,,,,,,,,,,,,,,,,,,,,,,0,55,55,73,1,DreamStudyImages_rs1000x750g/Children/Baby 2.jpg,,,
,,,,,,,,,,,,,,,main,1,22,female,mixed,at home,2021-07-01_11h24.21.266,ImageRatingTask_S1,2021.1.4,MacIntel,66.66666667,,,,,,,,,,,7,6.734,2,1.899,9,2.376,2,5.584,2,1.829,0,0,0,0,1,,,,,,,,,
,,,,,,,,,,,,,,,second,1,22,female,mixed,at home,2021-07-01_11h24.21.266,ImageRatingTask_S1,2021.1.4,MacIntel,66.66666667,,,,,,,,,,,,,,,,,,,1,2.429,0,1,1,1,1,,,,,,,,,
,,,,,,,,,,,,,,,third,1,22,female,mixed,at home,2021-07-01_11h24.21.266,ImageRatingTask_S1,2021.1.4,MacIntel,66.66666667,,,,,,,,,,,,,,,,,,,,,0,2,2,2,1,,,,,,,,,
,,,,,,,,,,,,,,,fourth,1,22,female,mixed,at home,2021-07-01_11h24.21.266,ImageRatingTask_S1,2021.1.4,MacIntel,66.66666667,,,,,,,,,,,,,,,,,,,,,0,3,3,3,1,,,,,,,,,
,,,,,,,,,,,,,,,fifth,1,22,female,mixed,at home,2021-07-01_11h24.21.266,ImageRatingTask_S1,2021.1.4,MacIntel,66.66666667,,,,,,,,,,,,,,,,,,,,,0,4,4,4,1,,,,,,,,,
,,,,,,,,,,,,,,,sixth,1,22,female,mixed,at home,2021-07-01_11h24.21.266,ImageRatingTask_S1,2021.1.4,MacIntel,66.66666667,,,,,,,,,,,,,,,,,,,,,0,5,5,5,1,,,,,,,,,
,,,,,,,,,,,,,,,seventh,1,22,female,mixed,at home,2021-07-01_11h24.21.266,ImageRatingTask_S1,2021.1.4,MacIntel,66.66666667,,,,,,,,,,,,,,,,,,,,,0,6,6,6,1,,,,,,,,,
,,,,,,,,,,,,,,,last,1,22,female,mixed,at home,2021-07-01_11h24.21.266,ImageRatingTask_S1,2021.1.4,MacIntel,66.66666667,,,,,,,,,,,,,,,,,,,,,0,7,7,7,1,,,,,,,,,
,,,,,,,,,,,,,,,,1,22,female,mixed,at home,2021-07-01_11h24.21.266,ImageRatingTask_S1,2021.1.4,MacIntel,66.66666667,,,,,,,,,,,,,,,,,,,,,,,,,,0,56,56,79,1,DreamStudyImages_rs1000x750g/Children/Faces_116_h.jpg,,,
,,,,,,,,,,,,,,,main,1,22,female,mixed,at home,2021-07-01_11h24.21.266,ImageRatingTask_S1,2021.1.4,MacIntel,66.66666667,,,,,,,,,,,5,4.819,1,0.891,6,3.216,1,1.845,8,2.91,0,0,0,0,1,,,,,,,,,
,,,,,,,,,,,,,,,second,1,22,female,mixed,at home,2021-07-01_11h24.21.266,ImageRatingTask_S1,2021.1.4,MacIntel,66.66666667,,,,,,,,,,,,,,,,,,,,,0,1,1,1,1,,,,,,,,,
,,,,,,,,,,,,,,,third,1,22,female,mixed,at home,2021-07-01_11h24.21.266,ImageRatingTask_S1,2021.1.4,MacIntel,66.66666667,,,,,,,,,,,,,,,,,,,,,0,2,2,2,1,,,,,,,,,
,,,,,,,,,,,,,,,fourth,1,22,female,mixed,at home,2021-07-01_11h24.21.266,ImageRatingTask_S1,2021.1.4,MacIntel,66.66666667,,,,,,,,,,,,,,,,,,,,,0,3,3,3,1,,,,,,,,,
,,,,,,,,,,,,,,,fifth,1,22,female,mixed,at home,2021-07-01_11h24.21.266,ImageRatingTask_S1,2021.1.4,MacIntel,66.66666667,,,,,,,,,,,,,,,,,,,,,0,4,4,4,1,,,,,,,,,
,,,,,,,,,,,,,,,sixth,1,22,female,mixed,at home,2021-07-01_11h24.21.266,ImageRatingTask_S1,2021.1.4,MacIntel,66.66666667,,,,,,,,,,,,,,,,,,,,,0,5,5,5,1,,,,,,,,,
,,,,,,,,,,,,,,,seventh,1,22,female,mixed,at home,2021-07-01_11h24.21.266,ImageRatingTask_S1,2021.1.4,MacIntel,66.66666667,,,,,,,,,,,,,,,,,,,,,0,6,6,6,1,,,,,,,,,
,,,,,,,,,,,,,,,last,1,22,female,mixed,at home,2021-07-01_11h24.21.266,ImageRatingTask_S1,2021.1.4,MacIntel,66.66666667,,,,,,,,,,,,,,,,,,,,,0,7,7,7,1,,,,,,,,,
,,,,,,,,,,,,,,,,1,22,female,mixed,at home,2021-07-01_11h24.21.266,ImageRatingTask_S1,2021.1.4,MacIntel,66.66666667,,,,,,,,,,,,,,,,,,,,,,,,,,0,57,57,147,1,DreamStudyImages_rs1000x750g/Water/Lake 11.jpg,,,
,,,,,,,,,,,,,,,main,1,22,female,mixed,at home,2021-07-01_11h24.21.266,ImageRatingTask_S1,2021.1.4,MacIntel,66.66666667,,,,,,,,,,,4,16.161,2,1.172,9,2.801,1,9.831,3,1.487,0,0,0,0,1,,,,,,,,,
,,,,,,,,,,,,,,,second,1,22,female,mixed,at home,2021-07-01_11h24.21.266,ImageRatingTask_S1,2021.1.4,MacIntel,66.66666667,,,,,,,,,,,,,,,,,,,,,0,1,1,1,1,,,,,,,,,
,,,,,,,,,,,,,,,third,1,22,female,mixed,at home,2021-07-01_11h24.21.266,ImageRatingTask_S1,2021.1.4,MacIntel,66.66666667,,,,,,,,,,,,,,,,,,,,,0,2,2,2,1,,,,,,,,,
,,,,,,,,,,,,,,,fourth,1,22,female,mixed,at home,2021-07-01_11h24.21.266,ImageRatingTask_S1,2021.1.4,MacIntel,66.66666667,,,,,,,,,,,,,,,,,,,,,0,3,3,3,1,,,,,,,,,
,,,,,,,,,,,,,,,fifth,1,22,female,mixed,at home,2021-07-01_11h24.21.266,ImageRatingTask_S1,2021.1.4,MacIntel,66.66666667,,,,,,,,,,,,,,,,,,,,,0,4,4,4,1,,,,,,,,,
,,,,,,,,,,,,,,,sixth,1,22,female,mixed,at home,2021-07-01_11h24.21.266,ImageRatingTask_S1,2021.1.4,MacIntel,66.66666667,,,,,,,,,,,,,,,,,,,,,0,5,5,5,1,,,,,,,,,
,,,,,,,,,,,,,,,seventh,1,22,female,mixed,at home,2021-07-01_11h24.21.266,ImageRatingTask_S1,2021.1.4,MacIntel,66.66666667,,,,,,,,,,,,,,,,,,,,,0,6,6,6,1,,,,,,,,,
,,,,,,,,,,,,,,,last,1,22,female,mixed,at home,2021-07-01_11h24.21.266,ImageRatingTask_S1,2021.1.4,MacIntel,66.66666667,,,,,,,,,,,,,,,,,,,,,0,7,7,7,1,,,,,,,,,
,,,,,,,,,,,,,,,,1,22,female,mixed,at home,2021-07-01_11h24.21.266,ImageRatingTask_S1,2021.1.4,MacIntel,66.66666667,,,,,,,,,,,,,,,,,,,,,,,,,,0,58,58,32,1,DreamStudyImages_rs1000x750g/Mammals/Animals_110_h.jpg,,,
,,,,,,,,,,,,,,,main,1,22,female,mixed,at home,2021-07-01_11h24.21.266,ImageRatingTask_S1,2021.1.4,MacIntel,66.66666667,,,,,,,,,,,4,5.334,1,1.366,7,2.227,1,3.086,8,6.597,0,0,0,0,1,,,,,,,,,
,,,,,,,,,,,,,,,second,1,22,female,mixed,at home,2021-07-01_11h24.21.266,ImageRatingTask_S1,2021.1.4,MacIntel,66.66666667,,,,,,,,,,,,,,,,,,,,,0,1,1,1,1,,,,,,,,,
,,,,,,,,,,,,,,,third,1,22,female,mixed,at home,2021-07-01_11h24.21.266,ImageRatingTask_S1,2021.1.4,MacIntel,66.66666667,,,,,,,,,,,,,,,,,,,,,0,2,2,2,1,,,,,,,,,
