slider_pre.response,slider_pre.rt,key_val.keys,key_val.rt,key_aro.keys,key_aro.rt,key_qual.keys,key_qual.rt,key_ncat.keys,key_ncat.rt,key_cats.keys,key_cats.rt,ncat_order.thisRepN,ncat_order.thisTrialN,ncat_order.thisN,ncat_order.thisIndex,ncat_order.ran,cond_cat,participant,age,gender,handedness (L/R),site (IMT/Donders),date,expName,psychopyVersion,OS,frameRate,img_trials.thisRepN,img_trials.thisTrialN,img_trials.thisN,img_trials.thisIndex,img_trials.ran,filename,slider_post.response,slider_post.rt,textbox_openfb.text
6,3.922,4,2.201,2,3.819,6,1.825,1,1.189,3,0.912,0,0,0,0,1,main,1,22,female,mixed,at home,2021-07-01_14h56.07.244,ImageRatingTask_S3,2021.1.4,MacIntel,76.92307692,,,,,,,,,
,,,,,,,,,,,,0,1,1,1,1,second,1,22,female,mixed,at home,2021-07-01_14h56.07.244,ImageRatingTask_S3,2021.1.4,MacIntel,76.92307692,,,,,,,,,
,,,,,,,,,,,,0,2,2,2,1,third,1,22,female,mixed,at home,2021-07-01_14h56.07.244,ImageRatingTask_S3,2021.1.4,MacIntel,76.92307692,,,,,,,,,
,,,,,,,,,,,,0,3,3,3,1,fourth,1,22,female,mixed,at home,2021-07-01_14h56.07.244,ImageRatingTask_S3,2021.1.4,MacIntel,76.92307692,,,,,,,,,
,,,,,,,,,,,,0,4,4,4,1,fifth,1,22,female,mixed,at home,2021-07-01_14h56.07.244,ImageRatingTask_S3,2021.1.4,MacIntel,76.92307692,,,,,,,,,
,,,,,,,,,,,,0,5,5,5,1,sixth,1,22,female,mixed,at home,2021-07-01_14h56.07.244,ImageRatingTask_S3,2021.1.4,MacIntel,76.92307692,,,,,,,,,
,,,,,,,,,,,,0,6,6,6,1,seventh,1,22,female,mixed,at home,2021-07-01_14h56.07.244,ImageRatingTask_S3,2021.1.4,MacIntel,76.92307692,,,,,,,,,
,,,,,,,,,,,,0,7,7,7,1,last,1,22,female,mixed,at home,2021-07-01_14h56.07.244,ImageRatingTask_S3,2021.1.4,MacIntel,76.92307692,,,,,,,,,
,,,,,,,,,,,,,,,,,,1,22,female,mixed,at home,2021-07-01_14h56.07.244,ImageRatingTask_S3,2021.1.4,MacIntel,76.92307692,0,0,0,140,1,DreamStudyImages_rs1000x750g/Mammals/Bear 2.jpg,,,
,,5,2.744,1,0.787,5,4.184,1,2.128,8,1.306,0,0,0,0,1,main,1,22,female,mixed,at home,2021-07-01_14h56.07.244,ImageRatingTask_S3,2021.1.4,MacIntel,76.92307692,,,,,,,,,
,,,,,,,,,,,,0,1,1,1,1,second,1,22,female,mixed,at home,2021-07-01_14h56.07.244,ImageRatingTask_S3,2021.1.4,MacIntel,76.92307692,,,,,,,,,
,,,,,,,,,,,,0,2,2,2,1,third,1,22,female,mixed,at home,2021-07-01_14h56.07.244,ImageRatingTask_S3,2021.1.4,MacIntel,76.92307692,,,,,,,,,
,,,,,,,,,,,,0,3,3,3,1,fourth,1,22,female,mixed,at home,2021-07-01_14h56.07.244,ImageRatingTask_S3,2021.1.4,MacIntel,76.92307692,,,,,,,,,
,,,,,,,,,,,,0,4,4,4,1,fifth,1,22,female,mixed,at home,2021-07-01_14h56.07.244,ImageRatingTask_S3,2021.1.4,MacIntel,76.92307692,,,,,,,,,
,,,,,,,,,,,,0,5,5,5,1,sixth,1,22,female,mixed,at home,2021-07-01_14h56.07.244,ImageRatingTask_S3,2021.1.4,MacIntel,76.92307692,,,,,,,,,
,,,,,,,,,,,,0,6,6,6,1,seventh,1,22,female,mixed,at home,2021-07-01_14h56.07.244,ImageRatingTask_S3,2021.1.4,MacIntel,76.92307692,,,,,,,,,
,,,,,,,,,,,,0,7,7,7,1,last,1,22,female,mixed,at home,2021-07-01_14h56.07.244,ImageRatingTask_S3,2021.1.4,MacIntel,76.92307692,,,,,,,,,
,,,,,,,,,,,,,,,,,,1,22,female,mixed,at home,2021-07-01_14h56.07.244,ImageRatingTask_S3,2021.1.4,MacIntel,76.92307692,0,1,1,98,1,DreamStudyImages_rs1000x750g/Water/Lake 1.jpg,,,
,,4,1.839,2,2.068,8,1.746,1,1.061,2,0.641,0,0,0,0,1,main,1,22,female,mixed,at home,2021-07-01_14h56.07.244,ImageRatingTask_S3,2021.1.4,MacIntel,76.92307692,,,,,,,,,
,,,,,,,,,,,,0,1,1,1,1,second,1,22,female,mixed,at home,2021-07-01_14h56.07.244,ImageRatingTask_S3,2021.1.4,MacIntel,76.92307692,,,,,,,,,
,,,,,,,,,,,,0,2,2,2,1,third,1,22,female,mixed,at home,2021-07-01_14h56.07.244,ImageRatingTask_S3,2021.1.4,MacIntel,76.92307692,,,,,,,,,
,,,,,,,,,,,,0,3,3,3,1,fourth,1,22,female,mixed,at home,2021-07-01_14h56.07.244,ImageRatingTask_S3,2021.1.4,MacIntel,76.92307692,,,,,,,,,
,,,,,,,,,,,,0,4,4,4,1,fifth,1,22,female,mixed,at home,2021-07-01_14h56.07.244,ImageRatingTask_S3,2021.1.4,MacIntel,76.92307692,,,,,,,,,
,,,,,,,,,,,,0,5,5,5,1,sixth,1,22,female,mixed,at home,2021-07-01_14h56.07.244,ImageRatingTask_S3,2021.1.4,MacIntel,76.92307692,,,,,,,,,
,,,,,,,,,,,,0,6,6,6,1,seventh,1,22,female,mixed,at home,2021-07-01_14h56.07.244,ImageRatingTask_S3,2021.1.4,MacIntel,76.92307692,,,,,,,,,
,,,,,,,,,,,,0,7,7,7,1,last,1,22,female,mixed,at home,2021-07-01_14h56.07.244,ImageRatingTask_S3,2021.1.4,MacIntel,76.92307692,,,,,,,,,
,,,,,,,,,,,,,,,,,,1,22,female,mixed,at home,2021-07-01_14h56.07.244,ImageRatingTask_S3,2021.1.4,MacIntel,76.92307692,0,2,2,126,1,DreamStudyImages_rs1000x750g/Children/Baby 7.jpg,,,
,,7,4.694,3,1.769,6,4.385,1,1.574,5,1.041,0,0,0,0,1,main,1,22,female,mixed,at home,2021-07-01_14h56.07.244,ImageRatingTask_S3,2021.1.4,MacIntel,76.92307692,,,,,,,,,
,,,,,,,,,,,,0,1,1,1,1,second,1,22,female,mixed,at home,2021-07-01_14h56.07.244,ImageRatingTask_S3,2021.1.4,MacIntel,76.92307692,,,,,,,,,
,,,,,,,,,,,,0,2,2,2,1,third,1,22,female,mixed,at home,2021-07-01_14h56.07.244,ImageRatingTask_S3,2021.1.4,MacIntel,76.92307692,,,,,,,,,
,,,,,,,,,,,,0,3,3,3,1,fourth,1,22,female,mixed,at home,2021-07-01_14h56.07.244,ImageRatingTask_S3,2021.1.4,MacIntel,76.92307692,,,,,,,,,
,,,,,,,,,,,,0,4,4,4,1,fifth,1,22,female,mixed,at home,2021-07-01_14h56.07.244,ImageRatingTask_S3,2021.1.4,MacIntel,76.92307692,,,,,,,,,
,,,,,,,,,,,,0,5,5,5,1,sixth,1,22,female,mixed,at home,2021-07-01_14h56.07.244,ImageRatingTask_S3,2021.1.4,MacIntel,76.92307692,,,,,,,,,
,,,,,,,,,,,,0,6,6,6,1,seventh,1,22,female,mixed,at home,2021-07-01_14h56.07.244,ImageRatingTask_S3,2021.1.4,MacIntel,76.92307692,,,,,,,,,
,,,,,,,,,,,,0,7,7,7,1,last,1,22,female,mixed,at home,2021-07-01_14h56.07.244,ImageRatingTask_S3,2021.1.4,MacIntel,76.92307692,,,,,,,,,
,,,,,,,,,,,,,,,,,,1,22,female,mixed,at home,2021-07-01_14h56.07.244,ImageRatingTask_S3,2021.1.4,MacIntel,76.92307692,0,3,3,28,1,DreamStudyImages_rs1000x750g/Food/IAPS7350_pizza.jpg,,,
,,6,2.723,1,0.538,9,2.38,1,0.864,8,0.861,0,0,0,0,1,main,1,22,female,mixed,at home,2021-07-01_14h56.07.244,ImageRatingTask_S3,2021.1.4,MacIntel,76.92307692,,,,,,,,,
,,,,,,,,,,,,0,1,1,1,1,second,1,22,female,mixed,at home,2021-07-01_14h56.07.244,ImageRatingTask_S3,2021.1.4,MacIntel,76.92307692,,,,,,,,,
,,,,,,,,,,,,0,2,2,2,1,third,1,22,female,mixed,at home,2021-07-01_14h56.07.244,ImageRatingTask_S3,2021.1.4,MacIntel,76.92307692,,,,,,,,,
,,,,,,,,,,,,0,3,3,3,1,fourth,1,22,female,mixed,at home,2021-07-01_14h56.07.244,ImageRatingTask_S3,2021.1.4,MacIntel,76.92307692,,,,,,,,,
,,,,,,,,,,,,0,4,4,4,1,fifth,1,22,female,mixed,at home,2021-07-01_14h56.07.244,ImageRatingTask_S3,2021.1.4,MacIntel,76.92307692,,,,,,,,,
,,,,,,,,,,,,0,5,5,5,1,sixth,1,22,female,mixed,at home,2021-07-01_14h56.07.244,ImageRatingTask_S3,2021.1.4,MacIntel,76.92307692,,,,,,,,,
,,,,,,,,,,,,0,6,6,6,1,seventh,1,22,female,mixed,at home,2021-07-01_14h56.07.244,ImageRatingTask_S3,2021.1.4,MacIntel,76.92307692,,,,,,,,,
,,,,,,,,,,,,0,7,7,7,1,last,1,22,female,mixed,at home,2021-07-01_14h56.07.244,ImageRatingTask_S3,2021.1.4,MacIntel,76.92307692,,,,,,,,,
,,,,,,,,,,,,,,,,,,1,22,female,mixed,at home,2021-07-01_14h56.07.244,ImageRatingTask_S3,2021.1.4,MacIntel,76.92307692,0,4,4,19,1,DreamStudyImages_rs1000x750g/Water/lake_CROPPED.jpg,,,
,,5,2.495,1,0.813,7,1.432,1,0.97,8,1.887,0,0,0,0,1,main,1,22,female,mixed,at home,2021-07-01_14h56.07.244,ImageRatingTask_S3,2021.1.4,MacIntel,76.92307692,,,,,,,,,
,,,,,,,,,,,,0,1,1,1,1,second,1,22,female,mixed,at home,2021-07-01_14h56.07.244,ImageRatingTask_S3,2021.1.4,MacIntel,76.92307692,,,,,,,,,
,,,,,,,,,,,,0,2,2,2,1,third,1,22,female,mixed,at home,2021-07-01_14h56.07.244,ImageRatingTask_S3,2021.1.4,MacIntel,76.92307692,,,,,,,,,
,,,,,,,,,,,,0,3,3,3,1,fourth,1,22,female,mixed,at home,2021-07-01_14h56.07.244,ImageRatingTask_S3,2021.1.4,MacIntel,76.92307692,,,,,,,,,
,,,,,,,,,,,,0,4,4,4,1,fifth,1,22,female,mixed,at home,2021-07-01_14h56.07.244,ImageRatingTask_S3,2021.1.4,MacIntel,76.92307692,,,,,,,,,
,,,,,,,,,,,,0,5,5,5,1,sixth,1,22,female,mixed,at home,2021-07-01_14h56.07.244,ImageRatingTask_S3,2021.1.4,MacIntel,76.92307692,,,,,,,,,
,,,,,,,,,,,,0,6,6,6,1,seventh,1,22,female,mixed,at home,2021-07-01_14h56.07.244,ImageRatingTask_S3,2021.1.4,MacIntel,76.92307692,,,,,,,,,
,,,,,,,,,,,,0,7,7,7,1,last,1,22,female,mixed,at home,2021-07-01_14h56.07.244,ImageRatingTask_S3,2021.1.4,MacIntel,76.92307692,,,,,,,,,
,,,,,,,,,,,,,,,,,,1,22,female,mixed,at home,2021-07-01_14h56.07.244,ImageRatingTask_S3,2021.1.4,MacIntel,76.92307692,0,5,5,44,1,DreamStudyImages_rs1000x750g/Water/lakepontoon_CROPPED.jpg,,,
,,3,2.775,3,1.67,8,1.908,1,1.455,6,1.655,0,0,0,0,1,main,1,22,female,mixed,at home,2021-07-01_14h56.07.244,ImageRatingTask_S3,2021.1.4,MacIntel,76.92307692,,,,,,,,,
,,,,,,,,,,,,0,1,1,1,1,second,1,22,female,mixed,at home,2021-07-01_14h56.07.244,ImageRatingTask_S3,2021.1.4,MacIntel,76.92307692,,,,,,,,,
,,,,,,,,,,,,0,2,2,2,1,third,1,22,female,mixed,at home,2021-07-01_14h56.07.244,ImageRatingTask_S3,2021.1.4,MacIntel,76.92307692,,,,,,,,,
,,,,,,,,,,,,0,3,3,3,1,fourth,1,22,female,mixed,at home,2021-07-01_14h56.07.244,ImageRatingTask_S3,2021.1.4,MacIntel,76.92307692,,,,,,,,,
,,,,,,,,,,,,0,4,4,4,1,fifth,1,22,female,mixed,at home,2021-07-01_14h56.07.244,ImageRatingTask_S3,2021.1.4,MacIntel,76.92307692,,,,,,,,,
,,,,,,,,,,,,0,5,5,5,1,sixth,1,22,female,mixed,at home,2021-07-01_14h56.07.244,ImageRatingTask_S3,2021.1.4,MacIntel,76.92307692,,,,,,,,,
,,,,,,,,,,,,0,6,6,6,1,seventh,1,22,female,mixed,at home,2021-07-01_14h56.07.244,ImageRatingTask_S3,2021.1.4,MacIntel,76.92307692,,,,,,,,,
,,,,,,,,,,,,0,7,7,7,1,last,1,22,female,mixed,at home,2021-07-01_14h56.07.244,ImageRatingTask_S3,2021.1.4,MacIntel,76.92307692,,,,,,,,,
,,,,,,,,,,,,,,,,,,1,22,female,mixed,at home,2021-07-01_14h56.07.244,ImageRatingTask_S3,2021.1.4,MacIntel,76.92307692,0,6,6,106,1,DreamStudyImages_rs1000x750g/Houses/NDPS108_houses6.jpg,,,
,,3,2.778,2,2.406,6,2.7,1,1.035,2,1.041,0,0,0,0,1,main,1,22,female,mixed,at home,2021-07-01_14h56.07.244,ImageRatingTask_S3,2021.1.4,MacIntel,76.92307692,,,,,,,,,
,,,,,,,,,,,,0,1,1,1,1,second,1,22,female,mixed,at home,2021-07-01_14h56.07.244,ImageRatingTask_S3,2021.1.4,MacIntel,76.92307692,,,,,,,,,
,,,,,,,,,,,,0,2,2,2,1,third,1,22,female,mixed,at home,2021-07-01_14h56.07.244,ImageRatingTask_S3,2021.1.4,MacIntel,76.92307692,,,,,,,,,
,,,,,,,,,,,,0,3,3,3,1,fourth,1,22,female,mixed,at home,2021-07-01_14h56.07.244,ImageRatingTask_S3,2021.1.4,MacIntel,76.92307692,,,,,,,,,
,,,,,,,,,,,,0,4,4,4,1,fifth,1,22,female,mixed,at home,2021-07-01_14h56.07.244,ImageRatingTask_S3,2021.1.4,MacIntel,76.92307692,,,,,,,,,
,,,,,,,,,,,,0,5,5,5,1,sixth,1,22,female,mixed,at home,2021-07-01_14h56.07.244,ImageRatingTask_S3,2021.1.4,MacIntel,76.92307692,,,,,,,,,
,,,,,,,,,,,,0,6,6,6,1,seventh,1,22,female,mixed,at home,2021-07-01_14h56.07.244,ImageRatingTask_S3,2021.1.4,MacIntel,76.92307692,,,,,,,,,
,,,,,,,,,,,,0,7,7,7,1,last,1,22,female,mixed,at home,2021-07-01_14h56.07.244,ImageRatingTask_S3,2021.1.4,MacIntel,76.92307692,,,,,,,,,
,,,,,,,,,,,,,,,,,,1,22,female,mixed,at home,2021-07-01_14h56.07.244,ImageRatingTask_S3,2021.1.4,MacIntel,76.92307692,0,7,7,130,1,DreamStudyImages_rs1000x750g/Children/Faces_025_h.jpg,,,
,,3,3.579,3,1.196,8,3.191,1,1.178,8,0.854,0,0,0,0,1,main,1,22,female,mixed,at home,2021-07-01_14h56.07.244,ImageRatingTask_S3,2021.1.4,MacIntel,76.92307692,,,,,,,,,
,,,,,,,,,,,,0,1,1,1,1,second,1,22,female,mixed,at home,2021-07-01_14h56.07.244,ImageRatingTask_S3,2021.1.4,MacIntel,76.92307692,,,,,,,,,
,,,,,,,,,,,,0,2,2,2,1,third,1,22,female,mixed,at home,2021-07-01_14h56.07.244,ImageRatingTask_S3,2021.1.4,MacIntel,76.92307692,,,,,,,,,
,,,,,,,,,,,,0,3,3,3,1,fourth,1,22,female,mixed,at home,2021-07-01_14h56.07.244,ImageRatingTask_S3,2021.1.4,MacIntel,76.92307692,,,,,,,,,
,,,,,,,,,,,,0,4,4,4,1,fifth,1,22,female,mixed,at home,2021-07-01_14h56.07.244,ImageRatingTask_S3,2021.1.4,MacIntel,76.92307692,,,,,,,,,
,,,,,,,,,,,,0,5,5,5,1,sixth,1,22,female,mixed,at home,2021-07-01_14h56.07.244,ImageRatingTask_S3,2021.1.4,MacIntel,76.92307692,,,,,,,,,
,,,,,,,,,,,,0,6,6,6,1,seventh,1,22,female,mixed,at home,2021-07-01_14h56.07.244,ImageRatingTask_S3,2021.1.4,MacIntel,76.92307692,,,,,,,,,
,,,,,,,,,,,,0,7,7,7,1,last,1,22,female,mixed,at home,2021-07-01_14h56.07.244,ImageRatingTask_S3,2021.1.4,MacIntel,76.92307692,,,,,,,,,
,,,,,,,,,,,,,,,,,,1,22,female,mixed,at home,2021-07-01_14h56.07.244,ImageRatingTask_S3,2021.1.4,MacIntel,76.92307692,0,8,8,60,1,DreamStudyImages_rs1000x750g/Water/Landscapes_004_h.jpg,,,
,,6,5.292,2,1.915,7,1.649,1,1.235,5,0.996,0,0,0,0,1,main,1,22,female,mixed,at home,2021-07-01_14h56.07.244,ImageRatingTask_S3,2021.1.4,MacIntel,76.92307692,,,,,,,,,
,,,,,,,,,,,,0,1,1,1,1,second,1,22,female,mixed,at home,2021-07-01_14h56.07.244,ImageRatingTask_S3,2021.1.4,MacIntel,76.92307692,,,,,,,,,
,,,,,,,,,,,,0,2,2,2,1,third,1,22,female,mixed,at home,2021-07-01_14h56.07.244,ImageRatingTask_S3,2021.1.4,MacIntel,76.92307692,,,,,,,,,
,,,,,,,,,,,,0,3,3,3,1,fourth,1,22,female,mixed,at home,2021-07-01_14h56.07.244,ImageRatingTask_S3,2021.1.4,MacIntel,76.92307692,,,,,,,,,
,,,,,,,,,,,,0,4,4,4,1,fifth,1,22,female,mixed,at home,2021-07-01_14h56.07.244,ImageRatingTask_S3,2021.1.4,MacIntel,76.92307692,,,,,,,,,
,,,,,,,,,,,,0,5,5,5,1,sixth,1,22,female,mixed,at home,2021-07-01_14h56.07.244,ImageRatingTask_S3,2021.1.4,MacIntel,76.92307692,,,,,,,,,
,,,,,,,,,,,,0,6,6,6,1,seventh,1,22,female,mixed,at home,2021-07-01_14h56.07.244,ImageRatingTask_S3,2021.1.4,MacIntel,76.92307692,,,,,,,,,
,,,,,,,,,,,,0,7,7,7,1,last,1,22,female,mixed,at home,2021-07-01_14h56.07.244,ImageRatingTask_S3,2021.1.4,MacIntel,76.92307692,,,,,,,,,
,,,,,,,,,,,,,,,,,,1,22,female,mixed,at home,2021-07-01_14h56.07.244,ImageRatingTask_S3,2021.1.4,MacIntel,76.92307692,0,9,9,46,1,DreamStudyImages_rs1000x750g/Food/Food 6.jpg,,,
,,5,5.56,1,2.236,3,1.039,1,2.118,6,1.646,0,0,0,0,1,main,1,22,female,mixed,at home,2021-07-01_14h56.07.244,ImageRatingTask_S3,2021.1.4,MacIntel,76.92307692,,,,,,,,,
,,,,,,,,,,,,0,1,1,1,1,second,1,22,female,mixed,at home,2021-07-01_14h56.07.244,ImageRatingTask_S3,2021.1.4,MacIntel,76.92307692,,,,,,,,,
,,,,,,,,,,,,0,2,2,2,1,third,1,22,female,mixed,at home,2021-07-01_14h56.07.244,ImageRatingTask_S3,2021.1.4,MacIntel,76.92307692,,,,,,,,,
,,,,,,,,,,,,0,3,3,3,1,fourth,1,22,female,mixed,at home,2021-07-01_14h56.07.244,ImageRatingTask_S3,2021.1.4,MacIntel,76.92307692,,,,,,,,,
,,,,,,,,,,,,0,4,4,4,1,fifth,1,22,female,mixed,at home,2021-07-01_14h56.07.244,ImageRatingTask_S3,2021.1.4,MacIntel,76.92307692,,,,,,,,,
,,,,,,,,,,,,0,5,5,5,1,sixth,1,22,female,mixed,at home,2021-07-01_14h56.07.244,ImageRatingTask_S3,2021.1.4,MacIntel,76.92307692,,,,,,,,,
,,,,,,,,,,,,0,6,6,6,1,seventh,1,22,female,mixed,at home,2021-07-01_14h56.07.244,ImageRatingTask_S3,2021.1.4,MacIntel,76.92307692,,,,,,,,,
,,,,,,,,,,,,0,7,7,7,1,last,1,22,female,mixed,at home,2021-07-01_14h56.07.244,ImageRatingTask_S3,2021.1.4,MacIntel,76.92307692,,,,,,,,,
,,,,,,,,,,,,,,,,,,1,22,female,mixed,at home,2021-07-01_14h56.07.244,ImageRatingTask_S3,2021.1.4,MacIntel,76.92307692,0,10,10,124,1,DreamStudyImages_rs1000x750g/Houses/IAPS5994_hotels_CROPPED.jpg,,,
,,5,2.076,1,1.081,6,2.034,1,0.924,7,1.199,0,0,0,0,1,main,1,22,female,mixed,at home,2021-07-01_14h56.07.244,ImageRatingTask_S3,2021.1.4,MacIntel,76.92307692,,,,,,,,,
,,,,,,,,,,,,0,1,1,1,1,second,1,22,female,mixed,at home,2021-07-01_14h56.07.244,ImageRatingTask_S3,2021.1.4,MacIntel,76.92307692,,,,,,,,,
,,,,,,,,,,,,0,2,2,2,1,third,1,22,female,mixed,at home,2021-07-01_14h56.07.244,ImageRatingTask_S3,2021.1.4,MacIntel,76.92307692,,,,,,,,,
,,,,,,,,,,,,0,3,3,3,1,fourth,1,22,female,mixed,at home,2021-07-01_14h56.07.244,ImageRatingTask_S3,2021.1.4,MacIntel,76.92307692,,,,,,,,,
,,,,,,,,,,,,0,4,4,4,1,fifth,1,22,female,mixed,at home,2021-07-01_14h56.07.244,ImageRatingTask_S3,2021.1.4,MacIntel,76.92307692,,,,,,,,,
,,,,,,,,,,,,0,5,5,5,1,sixth,1,22,female,mixed,at home,2021-07-01_14h56.07.244,ImageRatingTask_S3,2021.1.4,MacIntel,76.92307692,,,,,,,,,
,,,,,,,,,,,,0,6,6,6,1,seventh,1,22,female,mixed,at home,2021-07-01_14h56.07.244,ImageRatingTask_S3,2021.1.4,MacIntel,76.92307692,,,,,,,,,
,,,,,,,,,,,,0,7,7,7,1,last,1,22,female,mixed,at home,2021-07-01_14h56.07.244,ImageRatingTask_S3,2021.1.4,MacIntel,76.92307692,,,,,,,,,
,,,,,,,,,,,,,,,,,,1,22,female,mixed,at home,2021-07-01_14h56.07.244,ImageRatingTask_S3,2021.1.4,MacIntel,76.92307692,0,11,11,1,1,DreamStudyImages_rs1000x750g/Vehicles/IAPS7095_carlight.jpg,,,
,,4,5.021,3,1.469,8,4.121,2,1.186,1,1.016,0,0,0,0,1,main,1,22,female,mixed,at home,2021-07-01_14h56.07.244,ImageRatingTask_S3,2021.1.4,MacIntel,76.92307692,,,,,,,,,
,,,,,,,,,,8,1.084,0,1,1,1,1,second,1,22,female,mixed,at home,2021-07-01_14h56.07.244,ImageRatingTask_S3,2021.1.4,MacIntel,76.92307692,,,,,,,,,
,,,,,,,,,,,,0,2,2,2,1,third,1,22,female,mixed,at home,2021-07-01_14h56.07.244,ImageRatingTask_S3,2021.1.4,MacIntel,76.92307692,,,,,,,,,
,,,,,,,,,,,,0,3,3,3,1,fourth,1,22,female,mixed,at home,2021-07-01_14h56.07.244,ImageRatingTask_S3,2021.1.4,MacIntel,76.92307692,,,,,,,,,
,,,,,,,,,,,,0,4,4,4,1,fifth,1,22,female,mixed,at home,2021-07-01_14h56.07.244,ImageRatingTask_S3,2021.1.4,MacIntel,76.92307692,,,,,,,,,
,,,,,,,,,,,,0,5,5,5,1,sixth,1,22,female,mixed,at home,2021-07-01_14h56.07.244,ImageRatingTask_S3,2021.1.4,MacIntel,76.92307692,,,,,,,,,
,,,,,,,,,,,,0,6,6,6,1,seventh,1,22,female,mixed,at home,2021-07-01_14h56.07.244,ImageRatingTask_S3,2021.1.4,MacIntel,76.92307692,,,,,,,,,
,,,,,,,,,,,,0,7,7,7,1,last,1,22,female,mixed,at home,2021-07-01_14h56.07.244,ImageRatingTask_S3,2021.1.4,MacIntel,76.92307692,,,,,,,,,
,,,,,,,,,,,,,,,,,,1,22,female,mixed,at home,2021-07-01_14h56.07.244,ImageRatingTask_S3,2021.1.4,MacIntel,76.92307692,0,12,12,12,1,DreamStudyImages_rs1000x750g/Water/water_neg_bis.jpg,,,
,,4,3.699,2,1.772,5,2.651,1,1.238,7,0.942,0,0,0,0,1,main,1,22,female,mixed,at home,2021-07-01_14h56.07.244,ImageRatingTask_S3,2021.1.4,MacIntel,76.92307692,,,,,,,,,
,,,,,,,,,,,,0,1,1,1,1,second,1,22,female,mixed,at home,2021-07-01_14h56.07.244,ImageRatingTask_S3,2021.1.4,MacIntel,76.92307692,,,,,,,,,
,,,,,,,,,,,,0,2,2,2,1,third,1,22,female,mixed,at home,2021-07-01_14h56.07.244,ImageRatingTask_S3,2021.1.4,MacIntel,76.92307692,,,,,,,,,
,,,,,,,,,,,,0,3,3,3,1,fourth,1,22,female,mixed,at home,2021-07-01_14h56.07.244,ImageRatingTask_S3,2021.1.4,MacIntel,76.92307692,,,,,,,,,
,,,,,,,,,,,,0,4,4,4,1,fifth,1,22,female,mixed,at home,2021-07-01_14h56.07.244,ImageRatingTask_S3,2021.1.4,MacIntel,76.92307692,,,,,,,,,
,,,,,,,,,,,,0,5,5,5,1,sixth,1,22,female,mixed,at home,2021-07-01_14h56.07.244,ImageRatingTask_S3,2021.1.4,MacIntel,76.92307692,,,,,,,,,
,,,,,,,,,,,,0,6,6,6,1,seventh,1,22,female,mixed,at home,2021-07-01_14h56.07.244,ImageRatingTask_S3,2021.1.4,MacIntel,76.92307692,,,,,,,,,
,,,,,,,,,,,,0,7,7,7,1,last,1,22,female,mixed,at home,2021-07-01_14h56.07.244,ImageRatingTask_S3,2021.1.4,MacIntel,76.92307692,,,,,,,,,
,,,,,,,,,,,,,,,,,,1,22,female,mixed,at home,2021-07-01_14h56.07.244,ImageRatingTask_S3,2021.1.4,MacIntel,76.92307692,0,13,13,42,1,DreamStudyImages_rs1000x750g/Vehicles/7590.jpg,,,
,,2,4.142,3,2.617,9,2.035,1,1.021,6,1.779,0,0,0,0,1,main,1,22,female,mixed,at home,2021-07-01_14h56.07.244,ImageRatingTask_S3,2021.1.4,MacIntel,76.92307692,,,,,,,,,
,,,,,,,,,,,,0,1,1,1,1,second,1,22,female,mixed,at home,2021-07-01_14h56.07.244,ImageRatingTask_S3,2021.1.4,MacIntel,76.92307692,,,,,,,,,
,,,,,,,,,,,,0,2,2,2,1,third,1,22,female,mixed,at home,2021-07-01_14h56.07.244,ImageRatingTask_S3,2021.1.4,MacIntel,76.92307692,,,,,,,,,
,,,,,,,,,,,,0,3,3,3,1,fourth,1,22,female,mixed,at home,2021-07-01_14h56.07.244,ImageRatingTask_S3,2021.1.4,MacIntel,76.92307692,,,,,,,,,
,,,,,,,,,,,,0,4,4,4,1,fifth,1,22,female,mixed,at home,2021-07-01_14h56.07.244,ImageRatingTask_S3,2021.1.4,MacIntel,76.92307692,,,,,,,,,
,,,,,,,,,,,,0,5,5,5,1,sixth,1,22,female,mixed,at home,2021-07-01_14h56.07.244,ImageRatingTask_S3,2021.1.4,MacIntel,76.92307692,,,,,,,,,
,,,,,,,,,,,,0,6,6,6,1,seventh,1,22,female,mixed,at home,2021-07-01_14h56.07.244,ImageRatingTask_S3,2021.1.4,MacIntel,76.92307692,,,,,,,,,
,,,,,,,,,,,,0,7,7,7,1,last,1,22,female,mixed,at home,2021-07-01_14h56.07.244,ImageRatingTask_S3,2021.1.4,MacIntel,76.92307692,,,,,,,,,
,,,,,,,,,,,,,,,,,,1,22,female,mixed,at home,2021-07-01_14h56.07.244,ImageRatingTask_S3,2021.1.4,MacIntel,76.92307692,0,14,14,85,1,DreamStudyImages_rs1000x750g/Houses/NDPS110_buriedhouse.jpg,,,
,,4,3.92,2,1.803,9,1.243,1,0.836,7,0.838,0,0,0,0,1,main,1,22,female,mixed,at home,2021-07-01_14h56.07.244,ImageRatingTask_S3,2021.1.4,MacIntel,76.92307692,,,,,,,,,
,,,,,,,,,,,,0,1,1,1,1,second,1,22,female,mixed,at home,2021-07-01_14h56.07.244,ImageRatingTask_S3,2021.1.4,MacIntel,76.92307692,,,,,,,,,
,,,,,,,,,,,,0,2,2,2,1,third,1,22,female,mixed,at home,2021-07-01_14h56.07.244,ImageRatingTask_S3,2021.1.4,MacIntel,76.92307692,,,,,,,,,
,,,,,,,,,,,,0,3,3,3,1,fourth,1,22,female,mixed,at home,2021-07-01_14h56.07.244,ImageRatingTask_S3,2021.1.4,MacIntel,76.92307692,,,,,,,,,
,,,,,,,,,,,,0,4,4,4,1,fifth,1,22,female,mixed,at home,2021-07-01_14h56.07.244,ImageRatingTask_S3,2021.1.4,MacIntel,76.92307692,,,,,,,,,
,,,,,,,,,,,,0,5,5,5,1,sixth,1,22,female,mixed,at home,2021-07-01_14h56.07.244,ImageRatingTask_S3,2021.1.4,MacIntel,76.92307692,,,,,,,,,
,,,,,,,,,,,,0,6,6,6,1,seventh,1,22,female,mixed,at home,2021-07-01_14h56.07.244,ImageRatingTask_S3,2021.1.4,MacIntel,76.92307692,,,,,,,,,
,,,,,,,,,,,,0,7,7,7,1,last,1,22,female,mixed,at home,2021-07-01_14h56.07.244,ImageRatingTask_S3,2021.1.4,MacIntel,76.92307692,,,,,,,,,
,,,,,,,,,,,,,,,,,,1,22,female,mixed,at home,2021-07-01_14h56.07.244,ImageRatingTask_S3,2021.1.4,MacIntel,76.92307692,0,15,15,123,1,DreamStudyImages_rs1000x750g/Vehicles/IAPS7136_stuckcar.jpg,,,
,,5,4.033,1,0.579,9,1.483,1,0.823,6,1.822,0,0,0,0,1,main,1,22,female,mixed,at home,2021-07-01_14h56.07.244,ImageRatingTask_S3,2021.1.4,MacIntel,76.92307692,,,,,,,,,
,,,,,,,,,,,,0,1,1,1,1,second,1,22,female,mixed,at home,2021-07-01_14h56.07.244,ImageRatingTask_S3,2021.1.4,MacIntel,76.92307692,,,,,,,,,
,,,,,,,,,,,,0,2,2,2,1,third,1,22,female,mixed,at home,2021-07-01_14h56.07.244,ImageRatingTask_S3,2021.1.4,MacIntel,76.92307692,,,,,,,,,
,,,,,,,,,,,,0,3,3,3,1,fourth,1,22,female,mixed,at home,2021-07-01_14h56.07.244,ImageRatingTask_S3,2021.1.4,MacIntel,76.92307692,,,,,,,,,
,,,,,,,,,,,,0,4,4,4,1,fifth,1,22,female,mixed,at home,2021-07-01_14h56.07.244,ImageRatingTask_S3,2021.1.4,MacIntel,76.92307692,,,,,,,,,
,,,,,,,,,,,,0,5,5,5,1,sixth,1,22,female,mixed,at home,2021-07-01_14h56.07.244,ImageRatingTask_S3,2021.1.4,MacIntel,76.92307692,,,,,,,,,
,,,,,,,,,,,,0,6,6,6,1,seventh,1,22,female,mixed,at home,2021-07-01_14h56.07.244,ImageRatingTask_S3,2021.1.4,MacIntel,76.92307692,,,,,,,,,
,,,,,,,,,,,,0,7,7,7,1,last,1,22,female,mixed,at home,2021-07-01_14h56.07.244,ImageRatingTask_S3,2021.1.4,MacIntel,76.92307692,,,,,,,,,
,,,,,,,,,,,,,,,,,,1,22,female,mixed,at home,2021-07-01_14h56.07.244,ImageRatingTask_S3,2021.1.4,MacIntel,76.92307692,0,16,16,49,1,DreamStudyImages_rs1000x750g/Houses/Landscapes_091_h.jpg,,,
,,3,4.066,4,2.317,8,1.735,1,1.809,7,0.983,0,0,0,0,1,main,1,22,female,mixed,at home,2021-07-01_14h56.07.244,ImageRatingTask_S3,2021.1.4,MacIntel,76.92307692,,,,,,,,,
,,,,,,,,,,,,0,1,1,1,1,second,1,22,female,mixed,at home,2021-07-01_14h56.07.244,ImageRatingTask_S3,2021.1.4,MacIntel,76.92307692,,,,,,,,,
,,,,,,,,,,,,0,2,2,2,1,third,1,22,female,mixed,at home,2021-07-01_14h56.07.244,ImageRatingTask_S3,2021.1.4,MacIntel,76.92307692,,,,,,,,,
,,,,,,,,,,,,0,3,3,3,1,fourth,1,22,female,mixed,at home,2021-07-01_14h56.07.244,ImageRatingTask_S3,2021.1.4,MacIntel,76.92307692,,,,,,,,,
,,,,,,,,,,,,0,4,4,4,1,fifth,1,22,female,mixed,at home,2021-07-01_14h56.07.244,ImageRatingTask_S3,2021.1.4,MacIntel,76.92307692,,,,,,,,,
,,,,,,,,,,,,0,5,5,5,1,sixth,1,22,female,mixed,at home,2021-07-01_14h56.07.244,ImageRatingTask_S3,2021.1.4,MacIntel,76.92307692,,,,,,,,,
,,,,,,,,,,,,0,6,6,6,1,seventh,1,22,female,mixed,at home,2021-07-01_14h56.07.244,ImageRatingTask_S3,2021.1.4,MacIntel,76.92307692,,,,,,,,,
,,,,,,,,,,,,0,7,7,7,1,last,1,22,female,mixed,at home,2021-07-01_14h56.07.244,ImageRatingTask_S3,2021.1.4,MacIntel,76.92307692,,,,,,,,,
,,,,,,,,,,,,,,,,,,1,22,female,mixed,at home,2021-07-01_14h56.07.244,ImageRatingTask_S3,2021.1.4,MacIntel,76.92307692,0,17,17,5,1,DreamStudyImages_rs1000x750g/Vehicles/Car crash 1.jpg,,,
,,3,4.044,3,1.884,8,2.556,1,1.359,5,0.995,0,0,0,0,1,main,1,22,female,mixed,at home,2021-07-01_14h56.07.244,ImageRatingTask_S3,2021.1.4,MacIntel,76.92307692,,,,,,,,,
,,,,,,,,,,,,0,1,1,1,1,second,1,22,female,mixed,at home,2021-07-01_14h56.07.244,ImageRatingTask_S3,2021.1.4,MacIntel,76.92307692,,,,,,,,,
,,,,,,,,,,,,0,2,2,2,1,third,1,22,female,mixed,at home,2021-07-01_14h56.07.244,ImageRatingTask_S3,2021.1.4,MacIntel,76.92307692,,,,,,,,,
,,,,,,,,,,,,0,3,3,3,1,fourth,1,22,female,mixed,at home,2021-07-01_14h56.07.244,ImageRatingTask_S3,2021.1.4,MacIntel,76.92307692,,,,,,,,,
,,,,,,,,,,,,0,4,4,4,1,fifth,1,22,female,mixed,at home,2021-07-01_14h56.07.244,ImageRatingTask_S3,2021.1.4,MacIntel,76.92307692,,,,,,,,,
,,,,,,,,,,,,0,5,5,5,1,sixth,1,22,female,mixed,at home,2021-07-01_14h56.07.244,ImageRatingTask_S3,2021.1.4,MacIntel,76.92307692,,,,,,,,,
,,,,,,,,,,,,0,6,6,6,1,seventh,1,22,female,mixed,at home,2021-07-01_14h56.07.244,ImageRatingTask_S3,2021.1.4,MacIntel,76.92307692,,,,,,,,,
,,,,,,,,,,,,0,7,7,7,1,last,1,22,female,mixed,at home,2021-07-01_14h56.07.244,ImageRatingTask_S3,2021.1.4,MacIntel,76.92307692,,,,,,,,,
,,,,,,,,,,,,,,,,,,1,22,female,mixed,at home,2021-07-01_14h56.07.244,ImageRatingTask_S3,2021.1.4,MacIntel,76.92307692,0,18,18,112,1,DreamStudyImages_rs1000x750g/Food/Objects_011_h.jpg,,,
,,2,4.11,6,3.34,6,1.61,1,1.806,2,0.882,0,0,0,0,1,main,1,22,female,mixed,at home,2021-07-01_14h56.07.244,ImageRatingTask_S3,2021.1.4,MacIntel,76.92307692,,,,,,,,,
,,,,,,,,,,,,0,1,1,1,1,second,1,22,female,mixed,at home,2021-07-01_14h56.07.244,ImageRatingTask_S3,2021.1.4,MacIntel,76.92307692,,,,,,,,,
,,,,,,,,,,,,0,2,2,2,1,third,1,22,female,mixed,at home,2021-07-01_14h56.07.244,ImageRatingTask_S3,2021.1.4,MacIntel,76.92307692,,,,,,,,,
,,,,,,,,,,,,0,3,3,3,1,fourth,1,22,female,mixed,at home,2021-07-01_14h56.07.244,ImageRatingTask_S3,2021.1.4,MacIntel,76.92307692,,,,,,,,,
,,,,,,,,,,,,0,4,4,4,1,fifth,1,22,female,mixed,at home,2021-07-01_14h56.07.244,ImageRatingTask_S3,2021.1.4,MacIntel,76.92307692,,,,,,,,,
,,,,,,,,,,,,0,5,5,5,1,sixth,1,22,female,mixed,at home,2021-07-01_14h56.07.244,ImageRatingTask_S3,2021.1.4,MacIntel,76.92307692,,,,,,,,,
,,,,,,,,,,,,0,6,6,6,1,seventh,1,22,female,mixed,at home,2021-07-01_14h56.07.244,ImageRatingTask_S3,2021.1.4,MacIntel,76.92307692,,,,,,,,,
,,,,,,,,,,,,0,7,7,7,1,last,1,22,female,mixed,at home,2021-07-01_14h56.07.244,ImageRatingTask_S3,2021.1.4,MacIntel,76.92307692,,,,,,,,,
,,,,,,,,,,,,,,,,,,1,22,female,mixed,at home,2021-07-01_14h56.07.244,ImageRatingTask_S3,2021.1.4,MacIntel,76.92307692,0,19,19,121,1,DreamStudyImages_rs1000x750g/Children/IAPS3301_babyaccident2.jpg,,,
,,4,3.654,3,2.44,8,2.161,1,0.989,3,1.268,0,0,0,0,1,main,1,22,female,mixed,at home,2021-07-01_14h56.07.244,ImageRatingTask_S3,2021.1.4,MacIntel,76.92307692,,,,,,,,,
,,,,,,,,,,,,0,1,1,1,1,second,1,22,female,mixed,at home,2021-07-01_14h56.07.244,ImageRatingTask_S3,2021.1.4,MacIntel,76.92307692,,,,,,,,,
,,,,,,,,,,,,0,2,2,2,1,third,1,22,female,mixed,at home,2021-07-01_14h56.07.244,ImageRatingTask_S3,2021.1.4,MacIntel,76.92307692,,,,,,,,,
,,,,,,,,,,,,0,3,3,3,1,fourth,1,22,female,mixed,at home,2021-07-01_14h56.07.244,ImageRatingTask_S3,2021.1.4,MacIntel,76.92307692,,,,,,,,,
,,,,,,,,,,,,0,4,4,4,1,fifth,1,22,female,mixed,at home,2021-07-01_14h56.07.244,ImageRatingTask_S3,2021.1.4,MacIntel,76.92307692,,,,,,,,,
,,,,,,,,,,,,0,5,5,5,1,sixth,1,22,female,mixed,at home,2021-07-01_14h56.07.244,ImageRatingTask_S3,2021.1.4,MacIntel,76.92307692,,,,,,,,,
,,,,,,,,,,,,0,6,6,6,1,seventh,1,22,female,mixed,at home,2021-07-01_14h56.07.244,ImageRatingTask_S3,2021.1.4,MacIntel,76.92307692,,,,,,,,,
,,,,,,,,,,,,0,7,7,7,1,last,1,22,female,mixed,at home,2021-07-01_14h56.07.244,ImageRatingTask_S3,2021.1.4,MacIntel,76.92307692,,,,,,,,,
,,,,,,,,,,,,,,,,,,1,22,female,mixed,at home,2021-07-01_14h56.07.244,ImageRatingTask_S3,2021.1.4,MacIntel,76.92307692,0,20,20,129,1,DreamStudyImages_rs1000x750g/Mammals/Ferret 1.jpg,,,
,,2,4.107,4,1.91,6,2.105,1,3.12,2,1.08,0,0,0,0,1,main,1,22,female,mixed,at home,2021-07-01_14h56.07.244,ImageRatingTask_S3,2021.1.4,MacIntel,76.92307692,,,,,,,,,
,,,,,,,,,,,,0,1,1,1,1,second,1,22,female,mixed,at home,2021-07-01_14h56.07.244,ImageRatingTask_S3,2021.1.4,MacIntel,76.92307692,,,,,,,,,
,,,,,,,,,,,,0,2,2,2,1,third,1,22,female,mixed,at home,2021-07-01_14h56.07.244,ImageRatingTask_S3,2021.1.4,MacIntel,76.92307692,,,,,,,,,
,,,,,,,,,,,,0,3,3,3,1,fourth,1,22,female,mixed,at home,2021-07-01_14h56.07.244,ImageRatingTask_S3,2021.1.4,MacIntel,76.92307692,,,,,,,,,
,,,,,,,,,,,,0,4,4,4,1,fifth,1,22,female,mixed,at home,2021-07-01_14h56.07.244,ImageRatingTask_S3,2021.1.4,MacIntel,76.92307692,,,,,,,,,
,,,,,,,,,,,,0,5,5,5,1,sixth,1,22,female,mixed,at home,2021-07-01_14h56.07.244,ImageRatingTask_S3,2021.1.4,MacIntel,76.92307692,,,,,,,,,
,,,,,,,,,,,,0,6,6,6,1,seventh,1,22,female,mixed,at home,2021-07-01_14h56.07.244,ImageRatingTask_S3,2021.1.4,MacIntel,76.92307692,,,,,,,,,
,,,,,,,,,,,,0,7,7,7,1,last,1,22,female,mixed,at home,2021-07-01_14h56.07.244,ImageRatingTask_S3,2021.1.4,MacIntel,76.92307692,,,,,,,,,
,,,,,,,,,,,,,,,,,,1,22,female,mixed,at home,2021-07-01_14h56.07.244,ImageRatingTask_S3,2021.1.4,MacIntel,76.92307692,0,21,21,143,1,DreamStudyImages_rs1000x750g/Children/IAPS2703_children15.jpg,,,
,,4,6.093,1,2.671,7,1.735,1,1.153,6,2.015,0,0,0,0,1,main,1,22,female,mixed,at home,2021-07-01_14h56.07.244,ImageRatingTask_S3,2021.1.4,MacIntel,76.92307692,,,,,,,,,
,,,,,,,,,,,,0,1,1,1,1,second,1,22,female,mixed,at home,2021-07-01_14h56.07.244,ImageRatingTask_S3,2021.1.4,MacIntel,76.92307692,,,,,,,,,
,,,,,,,,,,,,0,2,2,2,1,third,1,22,female,mixed,at home,2021-07-01_14h56.07.244,ImageRatingTask_S3,2021.1.4,MacIntel,76.92307692,,,,,,,,,
,,,,,,,,,,,,0,3,3,3,1,fourth,1,22,female,mixed,at home,2021-07-01_14h56.07.244,ImageRatingTask_S3,2021.1.4,MacIntel,76.92307692,,,,,,,,,
,,,,,,,,,,,,0,4,4,4,1,fifth,1,22,female,mixed,at home,2021-07-01_14h56.07.244,ImageRatingTask_S3,2021.1.4,MacIntel,76.92307692,,,,,,,,,
,,,,,,,,,,,,0,5,5,5,1,sixth,1,22,female,mixed,at home,2021-07-01_14h56.07.244,ImageRatingTask_S3,2021.1.4,MacIntel,76.92307692,,,,,,,,,
,,,,,,,,,,,,0,6,6,6,1,seventh,1,22,female,mixed,at home,2021-07-01_14h56.07.244,ImageRatingTask_S3,2021.1.4,MacIntel,76.92307692,,,,,,,,,
,,,,,,,,,,,,0,7,7,7,1,last,1,22,female,mixed,at home,2021-07-01_14h56.07.244,ImageRatingTask_S3,2021.1.4,MacIntel,76.92307692,,,,,,,,,
,,,,,,,,,,,,,,,,,,1,22,female,mixed,at home,2021-07-01_14h56.07.244,ImageRatingTask_S3,2021.1.4,MacIntel,76.92307692,0,22,22,22,1,DreamStudyImages_rs1000x750g/Houses/Objects_214_h.jpg,,,
,,4,5.017,5,1.529,7,3.541,1,3.375,6,0.869,0,0,0,0,1,main,1,22,female,mixed,at home,2021-07-01_14h56.07.244,ImageRatingTask_S3,2021.1.4,MacIntel,76.92307692,,,,,,,,,
,,,,,,,,,,,,0,1,1,1,1,second,1,22,female,mixed,at home,2021-07-01_14h56.07.244,ImageRatingTask_S3,2021.1.4,MacIntel,76.92307692,,,,,,,,,
,,,,,,,,,,,,0,2,2,2,1,third,1,22,female,mixed,at home,2021-07-01_14h56.07.244,ImageRatingTask_S3,2021.1.4,MacIntel,76.92307692,,,,,,,,,
,,,,,,,,,,,,0,3,3,3,1,fourth,1,22,female,mixed,at home,2021-07-01_14h56.07.244,ImageRatingTask_S3,2021.1.4,MacIntel,76.92307692,,,,,,,,,
,,,,,,,,,,,,0,4,4,4,1,fifth,1,22,female,mixed,at home,2021-07-01_14h56.07.244,ImageRatingTask_S3,2021.1.4,MacIntel,76.92307692,,,,,,,,,
,,,,,,,,,,,,0,5,5,5,1,sixth,1,22,female,mixed,at home,2021-07-01_14h56.07.244,ImageRatingTask_S3,2021.1.4,MacIntel,76.92307692,,,,,,,,,
,,,,,,,,,,,,0,6,6,6,1,seventh,1,22,female,mixed,at home,2021-07-01_14h56.07.244,ImageRatingTask_S3,2021.1.4,MacIntel,76.92307692,,,,,,,,,
,,,,,,,,,,,,0,7,7,7,1,last,1,22,female,mixed,at home,2021-07-01_14h56.07.244,ImageRatingTask_S3,2021.1.4,MacIntel,76.92307692,,,,,,,,,
,,,,,,,,,,,,,,,,,,1,22,female,mixed,at home,2021-07-01_14h56.07.244,ImageRatingTask_S3,2021.1.4,MacIntel,76.92307692,0,23,23,154,1,DreamStudyImages_rs1000x750g/Houses/Thunderstorm 1.jpg,,,
,,6,5.578,2,1.549,9,2.451,1,2.517,2,1.437,0,0,0,0,1,main,1,22,female,mixed,at home,2021-07-01_14h56.07.244,ImageRatingTask_S3,2021.1.4,MacIntel,76.92307692,,,,,,,,,
,,,,,,,,,,,,0,1,1,1,1,second,1,22,female,mixed,at home,2021-07-01_14h56.07.244,ImageRatingTask_S3,2021.1.4,MacIntel,76.92307692,,,,,,,,,
,,,,,,,,,,,,0,2,2,2,1,third,1,22,female,mixed,at home,2021-07-01_14h56.07.244,ImageRatingTask_S3,2021.1.4,MacIntel,76.92307692,,,,,,,,,
,,,,,,,,,,,,0,3,3,3,1,fourth,1,22,female,mixed,at home,2021-07-01_14h56.07.244,ImageRatingTask_S3,2021.1.4,MacIntel,76.92307692,,,,,,,,,
,,,,,,,,,,,,0,4,4,4,1,fifth,1,22,female,mixed,at home,2021-07-01_14h56.07.244,ImageRatingTask_S3,2021.1.4,MacIntel,76.92307692,,,,,,,,,
,,,,,,,,,,,,0,5,5,5,1,sixth,1,22,female,mixed,at home,2021-07-01_14h56.07.244,ImageRatingTask_S3,2021.1.4,MacIntel,76.92307692,,,,,,,,,
,,,,,,,,,,,,0,6,6,6,1,seventh,1,22,female,mixed,at home,2021-07-01_14h56.07.244,ImageRatingTask_S3,2021.1.4,MacIntel,76.92307692,,,,,,,,,
,,,,,,,,,,,,0,7,7,7,1,last,1,22,female,mixed,at home,2021-07-01_14h56.07.244,ImageRatingTask_S3,2021.1.4,MacIntel,76.92307692,,,,,,,,,
,,,,,,,,,,,,,,,,,,1,22,female,mixed,at home,2021-07-01_14h56.07.244,ImageRatingTask_S3,2021.1.4,MacIntel,76.92307692,0,24,24,150,1,DreamStudyImages_rs1000x750g/Children/Faces_050_h.jpg,,,
,,5,5.922,2,1.216,8,2.794,1,2.826,3,0.945,0,0,0,0,1,main,1,22,female,mixed,at home,2021-07-01_14h56.07.244,ImageRatingTask_S3,2021.1.4,MacIntel,76.92307692,,,,,,,,,
,,,,,,,,,,,,0,1,1,1,1,second,1,22,female,mixed,at home,2021-07-01_14h56.07.244,ImageRatingTask_S3,2021.1.4,MacIntel,76.92307692,,,,,,,,,
,,,,,,,,,,,,0,2,2,2,1,third,1,22,female,mixed,at home,2021-07-01_14h56.07.244,ImageRatingTask_S3,2021.1.4,MacIntel,76.92307692,,,,,,,,,
,,,,,,,,,,,,0,3,3,3,1,fourth,1,22,female,mixed,at home,2021-07-01_14h56.07.244,ImageRatingTask_S3,2021.1.4,MacIntel,76.92307692,,,,,,,,,
,,,,,,,,,,,,0,4,4,4,1,fifth,1,22,female,mixed,at home,2021-07-01_14h56.07.244,ImageRatingTask_S3,2021.1.4,MacIntel,76.92307692,,,,,,,,,
,,,,,,,,,,,,0,5,5,5,1,sixth,1,22,female,mixed,at home,2021-07-01_14h56.07.244,ImageRatingTask_S3,2021.1.4,MacIntel,76.92307692,,,,,,,,,
,,,,,,,,,,,,0,6,6,6,1,seventh,1,22,female,mixed,at home,2021-07-01_14h56.07.244,ImageRatingTask_S3,2021.1.4,MacIntel,76.92307692,,,,,,,,,
,,,,,,,,,,,,0,7,7,7,1,last,1,22,female,mixed,at home,2021-07-01_14h56.07.244,ImageRatingTask_S3,2021.1.4,MacIntel,76.92307692,,,,,,,,,
,,,,,,,,,,,,,,,,,,1,22,female,mixed,at home,2021-07-01_14h56.07.244,ImageRatingTask_S3,2021.1.4,MacIntel,76.92307692,0,25,25,103,1,DreamStudyImages_rs1000x750g/Mammals/Orangutan 1.jpg,,,
,,7,3.657,2,2.007,9,2.655,1,0.878,5,0.928,0,0,0,0,1,main,1,22,female,mixed,at home,2021-07-01_14h56.07.244,ImageRatingTask_S3,2021.1.4,MacIntel,76.92307692,,,,,,,,,
,,,,,,,,,,,,0,1,1,1,1,second,1,22,female,mixed,at home,2021-07-01_14h56.07.244,ImageRatingTask_S3,2021.1.4,MacIntel,76.92307692,,,,,,,,,
,,,,,,,,,,,,0,2,2,2,1,third,1,22,female,mixed,at home,2021-07-01_14h56.07.244,ImageRatingTask_S3,2021.1.4,MacIntel,76.92307692,,,,,,,,,
,,,,,,,,,,,,0,3,3,3,1,fourth,1,22,female,mixed,at home,2021-07-01_14h56.07.244,ImageRatingTask_S3,2021.1.4,MacIntel,76.92307692,,,,,,,,,
,,,,,,,,,,,,0,4,4,4,1,fifth,1,22,female,mixed,at home,2021-07-01_14h56.07.244,ImageRatingTask_S3,2021.1.4,MacIntel,76.92307692,,,,,,,,,
,,,,,,,,,,,,0,5,5,5,1,sixth,1,22,female,mixed,at home,2021-07-01_14h56.07.244,ImageRatingTask_S3,2021.1.4,MacIntel,76.92307692,,,,,,,,,
,,,,,,,,,,,,0,6,6,6,1,seventh,1,22,female,mixed,at home,2021-07-01_14h56.07.244,ImageRatingTask_S3,2021.1.4,MacIntel,76.92307692,,,,,,,,,
,,,,,,,,,,,,0,7,7,7,1,last,1,22,female,mixed,at home,2021-07-01_14h56.07.244,ImageRatingTask_S3,2021.1.4,MacIntel,76.92307692,,,,,,,,,
,,,,,,,,,,,,,,,,,,1,22,female,mixed,at home,2021-07-01_14h56.07.244,ImageRatingTask_S3,2021.1.4,MacIntel,76.92307692,0,26,26,15,1,DreamStudyImages_rs1000x750g/Food/Objects_034_v.jpg,,,
,,3,2.67,3,1.942,7,1.707,1,0.996,7,0.743,0,0,0,0,1,main,1,22,female,mixed,at home,2021-07-01_14h56.07.244,ImageRatingTask_S3,2021.1.4,MacIntel,76.92307692,,,,,,,,,
,,,,,,,,,,,,0,1,1,1,1,second,1,22,female,mixed,at home,2021-07-01_14h56.07.244,ImageRatingTask_S3,2021.1.4,MacIntel,76.92307692,,,,,,,,,
,,,,,,,,,,,,0,2,2,2,1,third,1,22,female,mixed,at home,2021-07-01_14h56.07.244,ImageRatingTask_S3,2021.1.4,MacIntel,76.92307692,,,,,,,,,
,,,,,,,,,,,,0,3,3,3,1,fourth,1,22,female,mixed,at home,2021-07-01_14h56.07.244,ImageRatingTask_S3,2021.1.4,MacIntel,76.92307692,,,,,,,,,
,,,,,,,,,,,,0,4,4,4,1,fifth,1,22,female,mixed,at home,2021-07-01_14h56.07.244,ImageRatingTask_S3,2021.1.4,MacIntel,76.92307692,,,,,,,,,
,,,,,,,,,,,,0,5,5,5,1,sixth,1,22,female,mixed,at home,2021-07-01_14h56.07.244,ImageRatingTask_S3,2021.1.4,MacIntel,76.92307692,,,,,,,,,
,,,,,,,,,,,,0,6,6,6,1,seventh,1,22,female,mixed,at home,2021-07-01_14h56.07.244,ImageRatingTask_S3,2021.1.4,MacIntel,76.92307692,,,,,,,,,
,,,,,,,,,,,,0,7,7,7,1,last,1,22,female,mixed,at home,2021-07-01_14h56.07.244,ImageRatingTask_S3,2021.1.4,MacIntel,76.92307692,,,,,,,,,
,,,,,,,,,,,,,,,,,,1,22,female,mixed,at home,2021-07-01_14h56.07.244,ImageRatingTask_S3,2021.1.4,MacIntel,76.92307692,0,27,27,65,1,DreamStudyImages_rs1000x750g/Vehicles/Car accident 2.jpg,,,
,,4,2.881,1,1.151,8,2.511,1,0.609,7,0.674,0,0,0,0,1,main,1,22,female,mixed,at home,2021-07-01_14h56.07.244,ImageRatingTask_S3,2021.1.4,MacIntel,76.92307692,,,,,,,,,
,,,,,,,,,,,,0,1,1,1,1,second,1,22,female,mixed,at home,2021-07-01_14h56.07.244,ImageRatingTask_S3,2021.1.4,MacIntel,76.92307692,,,,,,,,,
,,,,,,,,,,,,0,2,2,2,1,third,1,22,female,mixed,at home,2021-07-01_14h56.07.244,ImageRatingTask_S3,2021.1.4,MacIntel,76.92307692,,,,,,,,,
,,,,,,,,,,,,0,3,3,3,1,fourth,1,22,female,mixed,at home,2021-07-01_14h56.07.244,ImageRatingTask_S3,2021.1.4,MacIntel,76.92307692,,,,,,,,,
,,,,,,,,,,,,0,4,4,4,1,fifth,1,22,female,mixed,at home,2021-07-01_14h56.07.244,ImageRatingTask_S3,2021.1.4,MacIntel,76.92307692,,,,,,,,,
,,,,,,,,,,,,0,5,5,5,1,sixth,1,22,female,mixed,at home,2021-07-01_14h56.07.244,ImageRatingTask_S3,2021.1.4,MacIntel,76.92307692,,,,,,,,,
,,,,,,,,,,,,0,6,6,6,1,seventh,1,22,female,mixed,at home,2021-07-01_14h56.07.244,ImageRatingTask_S3,2021.1.4,MacIntel,76.92307692,,,,,,,,,
,,,,,,,,,,,,0,7,7,7,1,last,1,22,female,mixed,at home,2021-07-01_14h56.07.244,ImageRatingTask_S3,2021.1.4,MacIntel,76.92307692,,,,,,,,,
,,,,,,,,,,,,,,,,,,1,22,female,mixed,at home,2021-07-01_14h56.07.244,ImageRatingTask_S3,2021.1.4,MacIntel,76.92307692,0,28,28,108,1,DreamStudyImages_rs1000x750g/Vehicles/Objects_281_h.jpg,,,
,,5,2.924,1,1.812,9,1.354,1,0.919,8,0.845,0,0,0,0,1,main,1,22,female,mixed,at home,2021-07-01_14h56.07.244,ImageRatingTask_S3,2021.1.4,MacIntel,76.92307692,,,,,,,,,
,,,,,,,,,,,,0,1,1,1,1,second,1,22,female,mixed,at home,2021-07-01_14h56.07.244,ImageRatingTask_S3,2021.1.4,MacIntel,76.92307692,,,,,,,,,
,,,,,,,,,,,,0,2,2,2,1,third,1,22,female,mixed,at home,2021-07-01_14h56.07.244,ImageRatingTask_S3,2021.1.4,MacIntel,76.92307692,,,,,,,,,
,,,,,,,,,,,,0,3,3,3,1,fourth,1,22,female,mixed,at home,2021-07-01_14h56.07.244,ImageRatingTask_S3,2021.1.4,MacIntel,76.92307692,,,,,,,,,
,,,,,,,,,,,,0,4,4,4,1,fifth,1,22,female,mixed,at home,2021-07-01_14h56.07.244,ImageRatingTask_S3,2021.1.4,MacIntel,76.92307692,,,,,,,,,
,,,,,,,,,,,,0,5,5,5,1,sixth,1,22,female,mixed,at home,2021-07-01_14h56.07.244,ImageRatingTask_S3,2021.1.4,MacIntel,76.92307692,,,,,,,,,
,,,,,,,,,,,,0,6,6,6,1,seventh,1,22,female,mixed,at home,2021-07-01_14h56.07.244,ImageRatingTask_S3,2021.1.4,MacIntel,76.92307692,,,,,,,,,
,,,,,,,,,,,,0,7,7,7,1,last,1,22,female,mixed,at home,2021-07-01_14h56.07.244,ImageRatingTask_S3,2021.1.4,MacIntel,76.92307692,,,,,,,,,
,,,,,,,,,,,,,,,,,,1,22,female,mixed,at home,2021-07-01_14h56.07.244,ImageRatingTask_S3,2021.1.4,MacIntel,76.92307692,0,29,29,41,1,DreamStudyImages_rs1000x750g/Water/Landscapes_154_h.jpg,,,
,,3,3.12,1,2.902,7,4.455,0,2.086,,,0,0,0,0,1,main,1,22,female,mixed,at home,2021-07-01_14h56.07.244,ImageRatingTask_S3,2021.1.4,MacIntel,76.92307692,,,,,,,,,
,,,,,,,,,,,,0,1,1,1,1,second,1,22,female,mixed,at home,2021-07-01_14h56.07.244,ImageRatingTask_S3,2021.1.4,MacIntel,76.92307692,,,,,,,,,
,,,,,,,,,,,,0,2,2,2,1,third,1,22,female,mixed,at home,2021-07-01_14h56.07.244,ImageRatingTask_S3,2021.1.4,MacIntel,76.92307692,,,,,,,,,
,,,,,,,,,,,,0,3,3,3,1,fourth,1,22,female,mixed,at home,2021-07-01_14h56.07.244,ImageRatingTask_S3,2021.1.4,MacIntel,76.92307692,,,,,,,,,
,,,,,,,,,,,,0,4,4,4,1,fifth,1,22,female,mixed,at home,2021-07-01_14h56.07.244,ImageRatingTask_S3,2021.1.4,MacIntel,76.92307692,,,,,,,,,
,,,,,,,,,,,,0,5,5,5,1,sixth,1,22,female,mixed,at home,2021-07-01_14h56.07.244,ImageRatingTask_S3,2021.1.4,MacIntel,76.92307692,,,,,,,,,
,,,,,,,,,,,,0,6,6,6,1,seventh,1,22,female,mixed,at home,2021-07-01_14h56.07.244,ImageRatingTask_S3,2021.1.4,MacIntel,76.92307692,,,,,,,,,
,,,,,,,,,,,,0,7,7,7,1,last,1,22,female,mixed,at home,2021-07-01_14h56.07.244,ImageRatingTask_S3,2021.1.4,MacIntel,76.92307692,,,,,,,,,
,,,,,,,,,,,,,,,,,,1,22,female,mixed,at home,2021-07-01_14h56.07.244,ImageRatingTask_S3,2021.1.4,MacIntel,76.92307692,0,30,30,73,1,DreamStudyImages_rs1000x750g/Houses/Pollution 1.jpg,,,
,,2,4.203,7,4.068,9,3.043,1,5.322,7,0.758,0,0,0,0,1,main,1,22,female,mixed,at home,2021-07-01_14h56.07.244,ImageRatingTask_S3,2021.1.4,MacIntel,76.92307692,,,,,,,,,
,,,,,,,,,,,,0,1,1,1,1,second,1,22,female,mixed,at home,2021-07-01_14h56.07.244,ImageRatingTask_S3,2021.1.4,MacIntel,76.92307692,,,,,,,,,
,,,,,,,,,,,,0,2,2,2,1,third,1,22,female,mixed,at home,2021-07-01_14h56.07.244,ImageRatingTask_S3,2021.1.4,MacIntel,76.92307692,,,,,,,,,
,,,,,,,,,,,,0,3,3,3,1,fourth,1,22,female,mixed,at home,2021-07-01_14h56.07.244,ImageRatingTask_S3,2021.1.4,MacIntel,76.92307692,,,,,,,,,
,,,,,,,,,,,,0,4,4,4,1,fifth,1,22,female,mixed,at home,2021-07-01_14h56.07.244,ImageRatingTask_S3,2021.1.4,MacIntel,76.92307692,,,,,,,,,
,,,,,,,,,,,,0,5,5,5,1,sixth,1,22,female,mixed,at home,2021-07-01_14h56.07.244,ImageRatingTask_S3,2021.1.4,MacIntel,76.92307692,,,,,,,,,
,,,,,,,,,,,,0,6,6,6,1,seventh,1,22,female,mixed,at home,2021-07-01_14h56.07.244,ImageRatingTask_S3,2021.1.4,MacIntel,76.92307692,,,,,,,,,
,,,,,,,,,,,,0,7,7,7,1,last,1,22,female,mixed,at home,2021-07-01_14h56.07.244,ImageRatingTask_S3,2021.1.4,MacIntel,76.92307692,,,,,,,,,
,,,,,,,,,,,,,,,,,,1,22,female,mixed,at home,2021-07-01_14h56.07.244,ImageRatingTask_S3,2021.1.4,MacIntel,76.92307692,0,31,31,23,1,DreamStudyImages_rs1000x750g/Vehicles/Objects_003_h.jpg,,,
,,5,4.437,1,1.863,6,2.44,1,2.337,7,0.823,0,0,0,0,1,main,1,22,female,mixed,at home,2021-07-01_14h56.07.244,ImageRatingTask_S3,2021.1.4,MacIntel,76.92307692,,,,,,,,,
,,,,,,,,,,,,0,1,1,1,1,second,1,22,female,mixed,at home,2021-07-01_14h56.07.244,ImageRatingTask_S3,2021.1.4,MacIntel,76.92307692,,,,,,,,,
,,,,,,,,,,,,0,2,2,2,1,third,1,22,female,mixed,at home,2021-07-01_14h56.07.244,ImageRatingTask_S3,2021.1.4,MacIntel,76.92307692,,,,,,,,,
,,,,,,,,,,,,0,3,3,3,1,fourth,1,22,female,mixed,at home,2021-07-01_14h56.07.244,ImageRatingTask_S3,2021.1.4,MacIntel,76.92307692,,,,,,,,,
,,,,,,,,,,,,0,4,4,4,1,fifth,1,22,female,mixed,at home,2021-07-01_14h56.07.244,ImageRatingTask_S3,2021.1.4,MacIntel,76.92307692,,,,,,,,,
,,,,,,,,,,,,0,5,5,5,1,sixth,1,22,female,mixed,at home,2021-07-01_14h56.07.244,ImageRatingTask_S3,2021.1.4,MacIntel,76.92307692,,,,,,,,,
,,,,,,,,,,,,0,6,6,6,1,seventh,1,22,female,mixed,at home,2021-07-01_14h56.07.244,ImageRatingTask_S3,2021.1.4,MacIntel,76.92307692,,,,,,,,,
,,,,,,,,,,,,0,7,7,7,1,last,1,22,female,mixed,at home,2021-07-01_14h56.07.244,ImageRatingTask_S3,2021.1.4,MacIntel,76.92307692,,,,,,,,,
,,,,,,,,,,,,,,,,,,1,22,female,mixed,at home,2021-07-01_14h56.07.244,ImageRatingTask_S3,2021.1.4,MacIntel,76.92307692,0,32,32,62,1,DreamStudyImages_rs1000x750g/Vehicles/Car 2.jpg,,,
,,6,3.233,1,3.627,6,2.401,1,0.963,5,0.699,0,0,0,0,1,main,1,22,female,mixed,at home,2021-07-01_14h56.07.244,ImageRatingTask_S3,2021.1.4,MacIntel,76.92307692,,,,,,,,,
,,,,,,,,,,,,0,1,1,1,1,second,1,22,female,mixed,at home,2021-07-01_14h56.07.244,ImageRatingTask_S3,2021.1.4,MacIntel,76.92307692,,,,,,,,,
,,,,,,,,,,,,0,2,2,2,1,third,1,22,female,mixed,at home,2021-07-01_14h56.07.244,ImageRatingTask_S3,2021.1.4,MacIntel,76.92307692,,,,,,,,,
,,,,,,,,,,,,0,3,3,3,1,fourth,1,22,female,mixed,at home,2021-07-01_14h56.07.244,ImageRatingTask_S3,2021.1.4,MacIntel,76.92307692,,,,,,,,,
,,,,,,,,,,,,0,4,4,4,1,fifth,1,22,female,mixed,at home,2021-07-01_14h56.07.244,ImageRatingTask_S3,2021.1.4,MacIntel,76.92307692,,,,,,,,,
,,,,,,,,,,,,0,5,5,5,1,sixth,1,22,female,mixed,at home,2021-07-01_14h56.07.244,ImageRatingTask_S3,2021.1.4,MacIntel,76.92307692,,,,,,,,,
,,,,,,,,,,,,0,6,6,6,1,seventh,1,22,female,mixed,at home,2021-07-01_14h56.07.244,ImageRatingTask_S3,2021.1.4,MacIntel,76.92307692,,,,,,,,,
,,,,,,,,,,,,0,7,7,7,1,last,1,22,female,mixed,at home,2021-07-01_14h56.07.244,ImageRatingTask_S3,2021.1.4,MacIntel,76.92307692,,,,,,,,,
,,,,,,,,,,,,,,,,,,1,22,female,mixed,at home,2021-07-01_14h56.07.244,ImageRatingTask_S3,2021.1.4,MacIntel,76.92307692,0,33,33,139,1,DreamStudyImages_rs1000x750g/Food/IAPS7475_curry.jpg,,,
,,5,6.095,1,0.9,8,2.084,1,1.262,8,0.968,0,0,0,0,1,main,1,22,female,mixed,at home,2021-07-01_14h56.07.244,ImageRatingTask_S3,2021.1.4,MacIntel,76.92307692,,,,,,,,,
,,,,,,,,,,,,0,1,1,1,1,second,1,22,female,mixed,at home,2021-07-01_14h56.07.244,ImageRatingTask_S3,2021.1.4,MacIntel,76.92307692,,,,,,,,,
,,,,,,,,,,,,0,2,2,2,1,third,1,22,female,mixed,at home,2021-07-01_14h56.07.244,ImageRatingTask_S3,2021.1.4,MacIntel,76.92307692,,,,,,,,,
,,,,,,,,,,,,0,3,3,3,1,fourth,1,22,female,mixed,at home,2021-07-01_14h56.07.244,ImageRatingTask_S3,2021.1.4,MacIntel,76.92307692,,,,,,,,,
,,,,,,,,,,,,0,4,4,4,1,fifth,1,22,female,mixed,at home,2021-07-01_14h56.07.244,ImageRatingTask_S3,2021.1.4,MacIntel,76.92307692,,,,,,,,,
,,,,,,,,,,,,0,5,5,5,1,sixth,1,22,female,mixed,at home,2021-07-01_14h56.07.244,ImageRatingTask_S3,2021.1.4,MacIntel,76.92307692,,,,,,,,,
,,,,,,,,,,,,0,6,6,6,1,seventh,1,22,female,mixed,at home,2021-07-01_14h56.07.244,ImageRatingTask_S3,2021.1.4,MacIntel,76.92307692,,,,,,,,,
,,,,,,,,,,,,0,7,7,7,1,last,1,22,female,mixed,at home,2021-07-01_14h56.07.244,ImageRatingTask_S3,2021.1.4,MacIntel,76.92307692,,,,,,,,,
,,,,,,,,,,,,,,,,,,1,22,female,mixed,at home,2021-07-01_14h56.07.244,ImageRatingTask_S3,2021.1.4,MacIntel,76.92307692,0,34,34,30,1,DreamStudyImages_rs1000x750g/Water/Landscapes_129_v.jpg,,,
,,5,4.976,1,1.569,9,3.118,1,0.924,7,0.826,0,0,0,0,1,main,1,22,female,mixed,at home,2021-07-01_14h56.07.244,ImageRatingTask_S3,2021.1.4,MacIntel,76.92307692,,,,,,,,,
,,,,,,,,,,,,0,1,1,1,1,second,1,22,female,mixed,at home,2021-07-01_14h56.07.244,ImageRatingTask_S3,2021.1.4,MacIntel,76.92307692,,,,,,,,,
,,,,,,,,,,,,0,2,2,2,1,third,1,22,female,mixed,at home,2021-07-01_14h56.07.244,ImageRatingTask_S3,2021.1.4,MacIntel,76.92307692,,,,,,,,,
,,,,,,,,,,,,0,3,3,3,1,fourth,1,22,female,mixed,at home,2021-07-01_14h56.07.244,ImageRatingTask_S3,2021.1.4,MacIntel,76.92307692,,,,,,,,,
,,,,,,,,,,,,0,4,4,4,1,fifth,1,22,female,mixed,at home,2021-07-01_14h56.07.244,ImageRatingTask_S3,2021.1.4,MacIntel,76.92307692,,,,,,,,,
,,,,,,,,,,,,0,5,5,5,1,sixth,1,22,female,mixed,at home,2021-07-01_14h56.07.244,ImageRatingTask_S3,2021.1.4,MacIntel,76.92307692,,,,,,,,,
,,,,,,,,,,,,0,6,6,6,1,seventh,1,22,female,mixed,at home,2021-07-01_14h56.07.244,ImageRatingTask_S3,2021.1.4,MacIntel,76.92307692,,,,,,,,,
,,,,,,,,,,,,0,7,7,7,1,last,1,22,female,mixed,at home,2021-07-01_14h56.07.244,ImageRatingTask_S3,2021.1.4,MacIntel,76.92307692,,,,,,,,,
,,,,,,,,,,,,,,,,,,1,22,female,mixed,at home,2021-07-01_14h56.07.244,ImageRatingTask_S3,2021.1.4,MacIntel,76.92307692,0,35,35,100,1,DreamStudyImages_rs1000x750g/Vehicles/Objects_286_h.jpg,,,
,,7,4.431,1,0.9,7,2.046,1,0.943,8,0.747,0,0,0,0,1,main,1,22,female,mixed,at home,2021-07-01_14h56.07.244,ImageRatingTask_S3,2021.1.4,MacIntel,76.92307692,,,,,,,,,
,,,,,,,,,,,,0,1,1,1,1,second,1,22,female,mixed,at home,2021-07-01_14h56.07.244,ImageRatingTask_S3,2021.1.4,MacIntel,76.92307692,,,,,,,,,
,,,,,,,,,,,,0,2,2,2,1,third,1,22,female,mixed,at home,2021-07-01_14h56.07.244,ImageRatingTask_S3,2021.1.4,MacIntel,76.92307692,,,,,,,,,
,,,,,,,,,,,,0,3,3,3,1,fourth,1,22,female,mixed,at home,2021-07-01_14h56.07.244,ImageRatingTask_S3,2021.1.4,MacIntel,76.92307692,,,,,,,,,
,,,,,,,,,,,,0,4,4,4,1,fifth,1,22,female,mixed,at home,2021-07-01_14h56.07.244,ImageRatingTask_S3,2021.1.4,MacIntel,76.92307692,,,,,,,,,
,,,,,,,,,,,,0,5,5,5,1,sixth,1,22,female,mixed,at home,2021-07-01_14h56.07.244,ImageRatingTask_S3,2021.1.4,MacIntel,76.92307692,,,,,,,,,
,,,,,,,,,,,,0,6,6,6,1,seventh,1,22,female,mixed,at home,2021-07-01_14h56.07.244,ImageRatingTask_S3,2021.1.4,MacIntel,76.92307692,,,,,,,,,
,,,,,,,,,,,,0,7,7,7,1,last,1,22,female,mixed,at home,2021-07-01_14h56.07.244,ImageRatingTask_S3,2021.1.4,MacIntel,76.92307692,,,,,,,,,
,,,,,,,,,,,,,,,,,,1,22,female,mixed,at home,2021-07-01_14h56.07.244,ImageRatingTask_S3,2021.1.4,MacIntel,76.92307692,0,36,36,117,1,DreamStudyImages_rs1000x750g/Water/NDPS126_volcanicwater2.jpg,,,
,,2,4.744,3,1.965,8,5.225,3,8.309,8,1.958,0,0,0,0,1,main,1,22,female,mixed,at home,2021-07-01_14h56.07.244,ImageRatingTask_S3,2021.1.4,MacIntel,76.92307692,,,,,,,,,
,,,,,,,,,,6,2.172,0,1,1,1,1,second,1,22,female,mixed,at home,2021-07-01_14h56.07.244,ImageRatingTask_S3,2021.1.4,MacIntel,76.92307692,,,,,,,,,
,,,,,,,,,,7,0.456,0,2,2,2,1,third,1,22,female,mixed,at home,2021-07-01_14h56.07.244,ImageRatingTask_S3,2021.1.4,MacIntel,76.92307692,,,,,,,,,
,,,,,,,,,,,,0,3,3,3,1,fourth,1,22,female,mixed,at home,2021-07-01_14h56.07.244,ImageRatingTask_S3,2021.1.4,MacIntel,76.92307692,,,,,,,,,
,,,,,,,,,,,,0,4,4,4,1,fifth,1,22,female,mixed,at home,2021-07-01_14h56.07.244,ImageRatingTask_S3,2021.1.4,MacIntel,76.92307692,,,,,,,,,
,,,,,,,,,,,,0,5,5,5,1,sixth,1,22,female,mixed,at home,2021-07-01_14h56.07.244,ImageRatingTask_S3,2021.1.4,MacIntel,76.92307692,,,,,,,,,
,,,,,,,,,,,,0,6,6,6,1,seventh,1,22,female,mixed,at home,2021-07-01_14h56.07.244,ImageRatingTask_S3,2021.1.4,MacIntel,76.92307692,,,,,,,,,
,,,,,,,,,,,,0,7,7,7,1,last,1,22,female,mixed,at home,2021-07-01_14h56.07.244,ImageRatingTask_S3,2021.1.4,MacIntel,76.92307692,,,,,,,,,
,,,,,,,,,,,,,,,,,,1,22,female,mixed,at home,2021-07-01_14h56.07.244,ImageRatingTask_S3,2021.1.4,MacIntel,76.92307692,0,37,37,14,1,DreamStudyImages_rs1000x750g/Water/16_CHECK.jpg,,,
,,5,1.821,1,0.79,8,1.905,1,3.404,7,0.557,0,0,0,0,1,main,1,22,female,mixed,at home,2021-07-01_14h56.07.244,ImageRatingTask_S3,2021.1.4,MacIntel,76.92307692,,,,,,,,,
,,,,,,,,,,,,0,1,1,1,1,second,1,22,female,mixed,at home,2021-07-01_14h56.07.244,ImageRatingTask_S3,2021.1.4,MacIntel,76.92307692,,,,,,,,,
,,,,,,,,,,,,0,2,2,2,1,third,1,22,female,mixed,at home,2021-07-01_14h56.07.244,ImageRatingTask_S3,2021.1.4,MacIntel,76.92307692,,,,,,,,,
,,,,,,,,,,,,0,3,3,3,1,fourth,1,22,female,mixed,at home,2021-07-01_14h56.07.244,ImageRatingTask_S3,2021.1.4,MacIntel,76.92307692,,,,,,,,,
,,,,,,,,,,,,0,4,4,4,1,fifth,1,22,female,mixed,at home,2021-07-01_14h56.07.244,ImageRatingTask_S3,2021.1.4,MacIntel,76.92307692,,,,,,,,,
,,,,,,,,,,,,0,5,5,5,1,sixth,1,22,female,mixed,at home,2021-07-01_14h56.07.244,ImageRatingTask_S3,2021.1.4,MacIntel,76.92307692,,,,,,,,,
,,,,,,,,,,,,0,6,6,6,1,seventh,1,22,female,mixed,at home,2021-07-01_14h56.07.244,ImageRatingTask_S3,2021.1.4,MacIntel,76.92307692,,,,,,,,,
,,,,,,,,,,,,0,7,7,7,1,last,1,22,female,mixed,at home,2021-07-01_14h56.07.244,ImageRatingTask_S3,2021.1.4,MacIntel,76.92307692,,,,,,,,,
,,,,,,,,,,,,,,,,,,1,22,female,mixed,at home,2021-07-01_14h56.07.244,ImageRatingTask_S3,2021.1.4,MacIntel,76.92307692,0,38,38,110,1,DreamStudyImages_rs1000x750g/Vehicles/whitecar.jpg,,,
,,8,4.166,2,2.316,5,1.588,1,1.029,2,1.056,0,0,0,0,1,main,1,22,female,mixed,at home,2021-07-01_14h56.07.244,ImageRatingTask_S3,2021.1.4,MacIntel,76.92307692,,,,,,,,,
,,,,,,,,,,,,0,1,1,1,1,second,1,22,female,mixed,at home,2021-07-01_14h56.07.244,ImageRatingTask_S3,2021.1.4,MacIntel,76.92307692,,,,,,,,,
,,,,,,,,,,,,0,2,2,2,1,third,1,22,female,mixed,at home,2021-07-01_14h56.07.244,ImageRatingTask_S3,2021.1.4,MacIntel,76.92307692,,,,,,,,,
,,,,,,,,,,,,0,3,3,3,1,fourth,1,22,female,mixed,at home,2021-07-01_14h56.07.244,ImageRatingTask_S3,2021.1.4,MacIntel,76.92307692,,,,,,,,,
,,,,,,,,,,,,0,4,4,4,1,fifth,1,22,female,mixed,at home,2021-07-01_14h56.07.244,ImageRatingTask_S3,2021.1.4,MacIntel,76.92307692,,,,,,,,,
,,,,,,,,,,,,0,5,5,5,1,sixth,1,22,female,mixed,at home,2021-07-01_14h56.07.244,ImageRatingTask_S3,2021.1.4,MacIntel,76.92307692,,,,,,,,,
,,,,,,,,,,,,0,6,6,6,1,seventh,1,22,female,mixed,at home,2021-07-01_14h56.07.244,ImageRatingTask_S3,2021.1.4,MacIntel,76.92307692,,,,,,,,,
,,,,,,,,,,,,0,7,7,7,1,last,1,22,female,mixed,at home,2021-07-01_14h56.07.244,ImageRatingTask_S3,2021.1.4,MacIntel,76.92307692,,,,,,,,,
,,,,,,,,,,,,,,,,,,1,22,female,mixed,at home,2021-07-01_14h56.07.244,ImageRatingTask_S3,2021.1.4,MacIntel,76.92307692,0,39,39,39,1,DreamStudyImages_rs1000x750g/Children/IAPS2070_baby8.jpg,,,
,,5,3.275,1,4.334,7,2.629,1,1.108,6,1.107,0,0,0,0,1,main,1,22,female,mixed,at home,2021-07-01_14h56.07.244,ImageRatingTask_S3,2021.1.4,MacIntel,76.92307692,,,,,,,,,
,,,,,,,,,,,,0,1,1,1,1,second,1,22,female,mixed,at home,2021-07-01_14h56.07.244,ImageRatingTask_S3,2021.1.4,MacIntel,76.92307692,,,,,,,,,
,,,,,,,,,,,,0,2,2,2,1,third,1,22,female,mixed,at home,2021-07-01_14h56.07.244,ImageRatingTask_S3,2021.1.4,MacIntel,76.92307692,,,,,,,,,
,,,,,,,,,,,,0,3,3,3,1,fourth,1,22,female,mixed,at home,2021-07-01_14h56.07.244,ImageRatingTask_S3,2021.1.4,MacIntel,76.92307692,,,,,,,,,
,,,,,,,,,,,,0,4,4,4,1,fifth,1,22,female,mixed,at home,2021-07-01_14h56.07.244,ImageRatingTask_S3,2021.1.4,MacIntel,76.92307692,,,,,,,,,
,,,,,,,,,,,,0,5,5,5,1,sixth,1,22,female,mixed,at home,2021-07-01_14h56.07.244,ImageRatingTask_S3,2021.1.4,MacIntel,76.92307692,,,,,,,,,
,,,,,,,,,,,,0,6,6,6,1,seventh,1,22,female,mixed,at home,2021-07-01_14h56.07.244,ImageRatingTask_S3,2021.1.4,MacIntel,76.92307692,,,,,,,,,
,,,,,,,,,,,,0,7,7,7,1,last,1,22,female,mixed,at home,2021-07-01_14h56.07.244,ImageRatingTask_S3,2021.1.4,MacIntel,76.92307692,,,,,,,,,
,,,,,,,,,,,,,,,,,,1,22,female,mixed,at home,2021-07-01_14h56.07.244,ImageRatingTask_S3,2021.1.4,MacIntel,76.92307692,0,40,40,51,1,DreamStudyImages_rs1000x750g/Houses/Landscapes_045_h.jpg,,,
,,5,3.244,1,1.398,9,2.316,1,3.105,7,0.882,0,0,0,0,1,main,1,22,female,mixed,at home,2021-07-01_14h56.07.244,ImageRatingTask_S3,2021.1.4,MacIntel,76.92307692,,,,,,,,,
,,,,,,,,,,,,0,1,1,1,1,second,1,22,female,mixed,at home,2021-07-01_14h56.07.244,ImageRatingTask_S3,2021.1.4,MacIntel,76.92307692,,,,,,,,,
,,,,,,,,,,,,0,2,2,2,1,third,1,22,female,mixed,at home,2021-07-01_14h56.07.244,ImageRatingTask_S3,2021.1.4,MacIntel,76.92307692,,,,,,,,,
,,,,,,,,,,,,0,3,3,3,1,fourth,1,22,female,mixed,at home,2021-07-01_14h56.07.244,ImageRatingTask_S3,2021.1.4,MacIntel,76.92307692,,,,,,,,,
,,,,,,,,,,,,0,4,4,4,1,fifth,1,22,female,mixed,at home,2021-07-01_14h56.07.244,ImageRatingTask_S3,2021.1.4,MacIntel,76.92307692,,,,,,,,,
,,,,,,,,,,,,0,5,5,5,1,sixth,1,22,female,mixed,at home,2021-07-01_14h56.07.244,ImageRatingTask_S3,2021.1.4,MacIntel,76.92307692,,,,,,,,,
,,,,,,,,,,,,0,6,6,6,1,seventh,1,22,female,mixed,at home,2021-07-01_14h56.07.244,ImageRatingTask_S3,2021.1.4,MacIntel,76.92307692,,,,,,,,,
,,,,,,,,,,,,0,7,7,7,1,last,1,22,female,mixed,at home,2021-07-01_14h56.07.244,ImageRatingTask_S3,2021.1.4,MacIntel,76.92307692,,,,,,,,,
,,,,,,,,,,,,,,,,,,1,22,female,mixed,at home,2021-07-01_14h56.07.244,ImageRatingTask_S3,2021.1.4,MacIntel,76.92307692,0,41,41,76,1,DreamStudyImages_rs1000x750g/Vehicles/Objects_320_h.jpg,,,
,,5,2.2,2,2.259,9,1.946,2,2.109,2,0.794,0,0,0,0,1,main,1,22,female,mixed,at home,2021-07-01_14h56.07.244,ImageRatingTask_S3,2021.1.4,MacIntel,76.92307692,,,,,,,,,
,,,,,,,,,,1,0.449,0,1,1,1,1,second,1,22,female,mixed,at home,2021-07-01_14h56.07.244,ImageRatingTask_S3,2021.1.4,MacIntel,76.92307692,,,,,,,,,
,,,,,,,,,,,,0,2,2,2,1,third,1,22,female,mixed,at home,2021-07-01_14h56.07.244,ImageRatingTask_S3,2021.1.4,MacIntel,76.92307692,,,,,,,,,
,,,,,,,,,,,,0,3,3,3,1,fourth,1,22,female,mixed,at home,2021-07-01_14h56.07.244,ImageRatingTask_S3,2021.1.4,MacIntel,76.92307692,,,,,,,,,
,,,,,,,,,,,,0,4,4,4,1,fifth,1,22,female,mixed,at home,2021-07-01_14h56.07.244,ImageRatingTask_S3,2021.1.4,MacIntel,76.92307692,,,,,,,,,
,,,,,,,,,,,,0,5,5,5,1,sixth,1,22,female,mixed,at home,2021-07-01_14h56.07.244,ImageRatingTask_S3,2021.1.4,MacIntel,76.92307692,,,,,,,,,
,,,,,,,,,,,,0,6,6,6,1,seventh,1,22,female,mixed,at home,2021-07-01_14h56.07.244,ImageRatingTask_S3,2021.1.4,MacIntel,76.92307692,,,,,,,,,
,,,,,,,,,,,,0,7,7,7,1,last,1,22,female,mixed,at home,2021-07-01_14h56.07.244,ImageRatingTask_S3,2021.1.4,MacIntel,76.92307692,,,,,,,,,
,,,,,,,,,,,,,,,,,,1,22,female,mixed,at home,2021-07-01_14h56.07.244,ImageRatingTask_S3,2021.1.4,MacIntel,76.92307692,0,42,42,58,1,DreamStudyImages_rs1000x750g/Children/Faces_049_h.jpg,,,
,,3,11.851,3,1.686,9,1.8,0,2.139,,,0,0,0,0,1,main,1,22,female,mixed,at home,2021-07-01_14h56.07.244,ImageRatingTask_S3,2021.1.4,MacIntel,76.92307692,,,,,,,,,
,,,,,,,,,,,,0,1,1,1,1,second,1,22,female,mixed,at home,2021-07-01_14h56.07.244,ImageRatingTask_S3,2021.1.4,MacIntel,76.92307692,,,,,,,,,
,,,,,,,,,,,,0,2,2,2,1,third,1,22,female,mixed,at home,2021-07-01_14h56.07.244,ImageRatingTask_S3,2021.1.4,MacIntel,76.92307692,,,,,,,,,
,,,,,,,,,,,,0,3,3,3,1,fourth,1,22,female,mixed,at home,2021-07-01_14h56.07.244,ImageRatingTask_S3,2021.1.4,MacIntel,76.92307692,,,,,,,,,
,,,,,,,,,,,,0,4,4,4,1,fifth,1,22,female,mixed,at home,2021-07-01_14h56.07.244,ImageRatingTask_S3,2021.1.4,MacIntel,76.92307692,,,,,,,,,
,,,,,,,,,,,,0,5,5,5,1,sixth,1,22,female,mixed,at home,2021-07-01_14h56.07.244,ImageRatingTask_S3,2021.1.4,MacIntel,76.92307692,,,,,,,,,
,,,,,,,,,,,,0,6,6,6,1,seventh,1,22,female,mixed,at home,2021-07-01_14h56.07.244,ImageRatingTask_S3,2021.1.4,MacIntel,76.92307692,,,,,,,,,
,,,,,,,,,,,,0,7,7,7,1,last,1,22,female,mixed,at home,2021-07-01_14h56.07.244,ImageRatingTask_S3,2021.1.4,MacIntel,76.92307692,,,,,,,,,
,,,,,,,,,,,,,,,,,,1,22,female,mixed,at home,2021-07-01_14h56.07.244,ImageRatingTask_S3,2021.1.4,MacIntel,76.92307692,0,43,43,158,1,DreamStudyImages_rs1000x750g/Food/Objects_023_v.jpg,,,
,,4,2.645,3,5.305,9,2.171,1,1.104,3,2.125,0,0,0,0,1,main,1,22,female,mixed,at home,2021-07-01_14h56.07.244,ImageRatingTask_S3,2021.1.4,MacIntel,76.92307692,,,,,,,,,
,,,,,,,,,,,,0,1,1,1,1,second,1,22,female,mixed,at home,2021-07-01_14h56.07.244,ImageRatingTask_S3,2021.1.4,MacIntel,76.92307692,,,,,,,,,
,,,,,,,,,,,,0,2,2,2,1,third,1,22,female,mixed,at home,2021-07-01_14h56.07.244,ImageRatingTask_S3,2021.1.4,MacIntel,76.92307692,,,,,,,,,
,,,,,,,,,,,,0,3,3,3,1,fourth,1,22,female,mixed,at home,2021-07-01_14h56.07.244,ImageRatingTask_S3,2021.1.4,MacIntel,76.92307692,,,,,,,,,
,,,,,,,,,,,,0,4,4,4,1,fifth,1,22,female,mixed,at home,2021-07-01_14h56.07.244,ImageRatingTask_S3,2021.1.4,MacIntel,76.92307692,,,,,,,,,
,,,,,,,,,,,,0,5,5,5,1,sixth,1,22,female,mixed,at home,2021-07-01_14h56.07.244,ImageRatingTask_S3,2021.1.4,MacIntel,76.92307692,,,,,,,,,
,,,,,,,,,,,,0,6,6,6,1,seventh,1,22,female,mixed,at home,2021-07-01_14h56.07.244,ImageRatingTask_S3,2021.1.4,MacIntel,76.92307692,,,,,,,,,
,,,,,,,,,,,,0,7,7,7,1,last,1,22,female,mixed,at home,2021-07-01_14h56.07.244,ImageRatingTask_S3,2021.1.4,MacIntel,76.92307692,,,,,,,,,
,,,,,,,,,,,,,,,,,,1,22,female,mixed,at home,2021-07-01_14h56.07.244,ImageRatingTask_S3,2021.1.4,MacIntel,76.92307692,0,44,44,151,1,DreamStudyImages_rs1000x750g/Mammals/Animals_034_h.jpg,,,
,,5,3.723,2,1.263,8,1.796,1,1.287,5,0.548,0,0,0,0,1,main,1,22,female,mixed,at home,2021-07-01_14h56.07.244,ImageRatingTask_S3,2021.1.4,MacIntel,76.92307692,,,,,,,,,
,,,,,,,,,,,,0,1,1,1,1,second,1,22,female,mixed,at home,2021-07-01_14h56.07.244,ImageRatingTask_S3,2021.1.4,MacIntel,76.92307692,,,,,,,,,
,,,,,,,,,,,,0,2,2,2,1,third,1,22,female,mixed,at home,2021-07-01_14h56.07.244,ImageRatingTask_S3,2021.1.4,MacIntel,76.92307692,,,,,,,,,
,,,,,,,,,,,,0,3,3,3,1,fourth,1,22,female,mixed,at home,2021-07-01_14h56.07.244,ImageRatingTask_S3,2021.1.4,MacIntel,76.92307692,,,,,,,,,
,,,,,,,,,,,,0,4,4,4,1,fifth,1,22,female,mixed,at home,2021-07-01_14h56.07.244,ImageRatingTask_S3,2021.1.4,MacIntel,76.92307692,,,,,,,,,
,,,,,,,,,,,,0,5,5,5,1,sixth,1,22,female,mixed,at home,2021-07-01_14h56.07.244,ImageRatingTask_S3,2021.1.4,MacIntel,76.92307692,,,,,,,,,
,,,,,,,,,,,,0,6,6,6,1,seventh,1,22,female,mixed,at home,2021-07-01_14h56.07.244,ImageRatingTask_S3,2021.1.4,MacIntel,76.92307692,,,,,,,,,
,,,,,,,,,,,,0,7,7,7,1,last,1,22,female,mixed,at home,2021-07-01_14h56.07.244,ImageRatingTask_S3,2021.1.4,MacIntel,76.92307692,,,,,,,,,
,,,,,,,,,,,,,,,,,,1,22,female,mixed,at home,2021-07-01_14h56.07.244,ImageRatingTask_S3,2021.1.4,MacIntel,76.92307692,0,45,45,147,1,DreamStudyImages_rs1000x750g/Food/Objects_031_h.jpg,,,
,,2,4.432,7,5.446,8,1.514,1,3.104,6,1.328,0,0,0,0,1,main,1,22,female,mixed,at home,2021-07-01_14h56.07.244,ImageRatingTask_S3,2021.1.4,MacIntel,76.92307692,,,,,,,,,
,,,,,,,,,,,,0,1,1,1,1,second,1,22,female,mixed,at home,2021-07-01_14h56.07.244,ImageRatingTask_S3,2021.1.4,MacIntel,76.92307692,,,,,,,,,
,,,,,,,,,,,,0,2,2,2,1,third,1,22,female,mixed,at home,2021-07-01_14h56.07.244,ImageRatingTask_S3,2021.1.4,MacIntel,76.92307692,,,,,,,,,
,,,,,,,,,,,,0,3,3,3,1,fourth,1,22,female,mixed,at home,2021-07-01_14h56.07.244,ImageRatingTask_S3,2021.1.4,MacIntel,76.92307692,,,,,,,,,
,,,,,,,,,,,,0,4,4,4,1,fifth,1,22,female,mixed,at home,2021-07-01_14h56.07.244,ImageRatingTask_S3,2021.1.4,MacIntel,76.92307692,,,,,,,,,
,,,,,,,,,,,,0,5,5,5,1,sixth,1,22,female,mixed,at home,2021-07-01_14h56.07.244,ImageRatingTask_S3,2021.1.4,MacIntel,76.92307692,,,,,,,,,
,,,,,,,,,,,,0,6,6,6,1,seventh,1,22,female,mixed,at home,2021-07-01_14h56.07.244,ImageRatingTask_S3,2021.1.4,MacIntel,76.92307692,,,,,,,,,
,,,,,,,,,,,,0,7,7,7,1,last,1,22,female,mixed,at home,2021-07-01_14h56.07.244,ImageRatingTask_S3,2021.1.4,MacIntel,76.92307692,,,,,,,,,
,,,,,,,,,,,,,,,,,,1,22,female,mixed,at home,2021-07-01_14h56.07.244,ImageRatingTask_S3,2021.1.4,MacIntel,76.92307692,0,46,46,79,1,DreamStudyImages_rs1000x750g/Houses/NDPS39_houseonfire.jpg,,,
,,5,7.894,1,0.659,6,1.918,1,1.029,3,2.066,0,0,0,0,1,main,1,22,female,mixed,at home,2021-07-01_14h56.07.244,ImageRatingTask_S3,2021.1.4,MacIntel,76.92307692,,,,,,,,,
,,,,,,,,,,,,0,1,1,1,1,second,1,22,female,mixed,at home,2021-07-01_14h56.07.244,ImageRatingTask_S3,2021.1.4,MacIntel,76.92307692,,,,,,,,,
,,,,,,,,,,,,0,2,2,2,1,third,1,22,female,mixed,at home,2021-07-01_14h56.07.244,ImageRatingTask_S3,2021.1.4,MacIntel,76.92307692,,,,,,,,,
,,,,,,,,,,,,0,3,3,3,1,fourth,1,22,female,mixed,at home,2021-07-01_14h56.07.244,ImageRatingTask_S3,2021.1.4,MacIntel,76.92307692,,,,,,,,,
,,,,,,,,,,,,0,4,4,4,1,fifth,1,22,female,mixed,at home,2021-07-01_14h56.07.244,ImageRatingTask_S3,2021.1.4,MacIntel,76.92307692,,,,,,,,,
,,,,,,,,,,,,0,5,5,5,1,sixth,1,22,female,mixed,at home,2021-07-01_14h56.07.244,ImageRatingTask_S3,2021.1.4,MacIntel,76.92307692,,,,,,,,,
,,,,,,,,,,,,0,6,6,6,1,seventh,1,22,female,mixed,at home,2021-07-01_14h56.07.244,ImageRatingTask_S3,2021.1.4,MacIntel,76.92307692,,,,,,,,,
,,,,,,,,,,,,0,7,7,7,1,last,1,22,female,mixed,at home,2021-07-01_14h56.07.244,ImageRatingTask_S3,2021.1.4,MacIntel,76.92307692,,,,,,,,,
,,,,,,,,,,,,,,,,,,1,22,female,mixed,at home,2021-07-01_14h56.07.244,ImageRatingTask_S3,2021.1.4,MacIntel,76.92307692,0,47,47,43,1,DreamStudyImages_rs1000x750g/Mammals/IAPS1720_lion.jpg,,,
,,5,6.166,1,2.401,8,3.729,1,1.017,8,1.027,0,0,0,0,1,main,1,22,female,mixed,at home,2021-07-01_14h56.07.244,ImageRatingTask_S3,2021.1.4,MacIntel,76.92307692,,,,,,,,,
,,,,,,,,,,,,0,1,1,1,1,second,1,22,female,mixed,at home,2021-07-01_14h56.07.244,ImageRatingTask_S3,2021.1.4,MacIntel,76.92307692,,,,,,,,,
,,,,,,,,,,,,0,2,2,2,1,third,1,22,female,mixed,at home,2021-07-01_14h56.07.244,ImageRatingTask_S3,2021.1.4,MacIntel,76.92307692,,,,,,,,,
,,,,,,,,,,,,0,3,3,3,1,fourth,1,22,female,mixed,at home,2021-07-01_14h56.07.244,ImageRatingTask_S3,2021.1.4,MacIntel,76.92307692,,,,,,,,,
,,,,,,,,,,,,0,4,4,4,1,fifth,1,22,female,mixed,at home,2021-07-01_14h56.07.244,ImageRatingTask_S3,2021.1.4,MacIntel,76.92307692,,,,,,,,,
,,,,,,,,,,,,0,5,5,5,1,sixth,1,22,female,mixed,at home,2021-07-01_14h56.07.244,ImageRatingTask_S3,2021.1.4,MacIntel,76.92307692,,,,,,,,,
,,,,,,,,,,,,0,6,6,6,1,seventh,1,22,female,mixed,at home,2021-07-01_14h56.07.244,ImageRatingTask_S3,2021.1.4,MacIntel,76.92307692,,,,,,,,,
,,,,,,,,,,,,0,7,7,7,1,last,1,22,female,mixed,at home,2021-07-01_14h56.07.244,ImageRatingTask_S3,2021.1.4,MacIntel,76.92307692,,,,,,,,,
,,,,,,,,,,,,,,,,,,1,22,female,mixed,at home,2021-07-01_14h56.07.244,ImageRatingTask_S3,2021.1.4,MacIntel,76.92307692,0,48,48,122,1,DreamStudyImages_rs1000x750g/Water/muddywater.jpg,,,
,,6,4.243,2,1.561,7,1.505,1,0.849,3,0.811,0,0,0,0,1,main,1,22,female,mixed,at home,2021-07-01_14h56.07.244,ImageRatingTask_S3,2021.1.4,MacIntel,76.92307692,,,,,,,,,
,,,,,,,,,,,,0,1,1,1,1,second,1,22,female,mixed,at home,2021-07-01_14h56.07.244,ImageRatingTask_S3,2021.1.4,MacIntel,76.92307692,,,,,,,,,
,,,,,,,,,,,,0,2,2,2,1,third,1,22,female,mixed,at home,2021-07-01_14h56.07.244,ImageRatingTask_S3,2021.1.4,MacIntel,76.92307692,,,,,,,,,
,,,,,,,,,,,,0,3,3,3,1,fourth,1,22,female,mixed,at home,2021-07-01_14h56.07.244,ImageRatingTask_S3,2021.1.4,MacIntel,76.92307692,,,,,,,,,
,,,,,,,,,,,,0,4,4,4,1,fifth,1,22,female,mixed,at home,2021-07-01_14h56.07.244,ImageRatingTask_S3,2021.1.4,MacIntel,76.92307692,,,,,,,,,
,,,,,,,,,,,,0,5,5,5,1,sixth,1,22,female,mixed,at home,2021-07-01_14h56.07.244,ImageRatingTask_S3,2021.1.4,MacIntel,76.92307692,,,,,,,,,
,,,,,,,,,,,,0,6,6,6,1,seventh,1,22,female,mixed,at home,2021-07-01_14h56.07.244,ImageRatingTask_S3,2021.1.4,MacIntel,76.92307692,,,,,,,,,
,,,,,,,,,,,,0,7,7,7,1,last,1,22,female,mixed,at home,2021-07-01_14h56.07.244,ImageRatingTask_S3,2021.1.4,MacIntel,76.92307692,,,,,,,,,
,,,,,,,,,,,,,,,,,,1,22,female,mixed,at home,2021-07-01_14h56.07.244,ImageRatingTask_S3,2021.1.4,MacIntel,76.92307692,0,49,49,156,1,DreamStudyImages_rs1000x750g/Mammals/Animals_180_h.jpg,,,
,,7,3.144,2,1.426,9,1.747,1,2.665,2,0.592,0,0,0,0,1,main,1,22,female,mixed,at home,2021-07-01_14h56.07.244,ImageRatingTask_S3,2021.1.4,MacIntel,76.92307692,,,,,,,,,
,,,,,,,,,,,,0,1,1,1,1,second,1,22,female,mixed,at home,2021-07-01_14h56.07.244,ImageRatingTask_S3,2021.1.4,MacIntel,76.92307692,,,,,,,,,
,,,,,,,,,,,,0,2,2,2,1,third,1,22,female,mixed,at home,2021-07-01_14h56.07.244,ImageRatingTask_S3,2021.1.4,MacIntel,76.92307692,,,,,,,,,
,,,,,,,,,,,,0,3,3,3,1,fourth,1,22,female,mixed,at home,2021-07-01_14h56.07.244,ImageRatingTask_S3,2021.1.4,MacIntel,76.92307692,,,,,,,,,
,,,,,,,,,,,,0,4,4,4,1,fifth,1,22,female,mixed,at home,2021-07-01_14h56.07.244,ImageRatingTask_S3,2021.1.4,MacIntel,76.92307692,,,,,,,,,
,,,,,,,,,,,,0,5,5,5,1,sixth,1,22,female,mixed,at home,2021-07-01_14h56.07.244,ImageRatingTask_S3,2021.1.4,MacIntel,76.92307692,,,,,,,,,
,,,,,,,,,,,,0,6,6,6,1,seventh,1,22,female,mixed,at home,2021-07-01_14h56.07.244,ImageRatingTask_S3,2021.1.4,MacIntel,76.92307692,,,,,,,,,
,,,,,,,,,,,,0,7,7,7,1,last,1,22,female,mixed,at home,2021-07-01_14h56.07.244,ImageRatingTask_S3,2021.1.4,MacIntel,76.92307692,,,,,,,,,
,,,,,,,,,,,,,,,,,,1,22,female,mixed,at home,2021-07-01_14h56.07.244,ImageRatingTask_S3,2021.1.4,MacIntel,76.92307692,0,50,50,138,1,DreamStudyImages_rs1000x750g/Children/IAPS2153_baby15.jpg,,,
,,4,7.893,2,2.135,9,1.985,1,1.24,7,0.872,0,0,0,0,1,main,1,22,female,mixed,at home,2021-07-01_14h56.07.244,ImageRatingTask_S3,2021.1.4,MacIntel,76.92307692,,,,,,,,,
,,,,,,,,,,,,0,1,1,1,1,second,1,22,female,mixed,at home,2021-07-01_14h56.07.244,ImageRatingTask_S3,2021.1.4,MacIntel,76.92307692,,,,,,,,,
,,,,,,,,,,,,0,2,2,2,1,third,1,22,female,mixed,at home,2021-07-01_14h56.07.244,ImageRatingTask_S3,2021.1.4,MacIntel,76.92307692,,,,,,,,,
,,,,,,,,,,,,0,3,3,3,1,fourth,1,22,female,mixed,at home,2021-07-01_14h56.07.244,ImageRatingTask_S3,2021.1.4,MacIntel,76.92307692,,,,,,,,,
,,,,,,,,,,,,0,4,4,4,1,fifth,1,22,female,mixed,at home,2021-07-01_14h56.07.244,ImageRatingTask_S3,2021.1.4,MacIntel,76.92307692,,,,,,,,,
,,,,,,,,,,,,0,5,5,5,1,sixth,1,22,female,mixed,at home,2021-07-01_14h56.07.244,ImageRatingTask_S3,2021.1.4,MacIntel,76.92307692,,,,,,,,,
,,,,,,,,,,,,0,6,6,6,1,seventh,1,22,female,mixed,at home,2021-07-01_14h56.07.244,ImageRatingTask_S3,2021.1.4,MacIntel,76.92307692,,,,,,,,,
,,,,,,,,,,,,0,7,7,7,1,last,1,22,female,mixed,at home,2021-07-01_14h56.07.244,ImageRatingTask_S3,2021.1.4,MacIntel,76.92307692,,,,,,,,,
,,,,,,,,,,,,,,,,,,1,22,female,mixed,at home,2021-07-01_14h56.07.244,ImageRatingTask_S3,2021.1.4,MacIntel,76.92307692,0,51,51,20,1,DreamStudyImages_rs1000x750g/Vehicles/Objects_280_v.jpg,,,
,,5,4.127,1,0.862,8,2.271,1,0.821,7,0.845,0,0,0,0,1,main,1,22,female,mixed,at home,2021-07-01_14h56.07.244,ImageRatingTask_S3,2021.1.4,MacIntel,76.92307692,,,,,,,,,
,,,,,,,,,,,,0,1,1,1,1,second,1,22,female,mixed,at home,2021-07-01_14h56.07.244,ImageRatingTask_S3,2021.1.4,MacIntel,76.92307692,,,,,,,,,
,,,,,,,,,,,,0,2,2,2,1,third,1,22,female,mixed,at home,2021-07-01_14h56.07.244,ImageRatingTask_S3,2021.1.4,MacIntel,76.92307692,,,,,,,,,
,,,,,,,,,,,,0,3,3,3,1,fourth,1,22,female,mixed,at home,2021-07-01_14h56.07.244,ImageRatingTask_S3,2021.1.4,MacIntel,76.92307692,,,,,,,,,
,,,,,,,,,,,,0,4,4,4,1,fifth,1,22,female,mixed,at home,2021-07-01_14h56.07.244,ImageRatingTask_S3,2021.1.4,MacIntel,76.92307692,,,,,,,,,
,,,,,,,,,,,,0,5,5,5,1,sixth,1,22,female,mixed,at home,2021-07-01_14h56.07.244,ImageRatingTask_S3,2021.1.4,MacIntel,76.92307692,,,,,,,,,
,,,,,,,,,,,,0,6,6,6,1,seventh,1,22,female,mixed,at home,2021-07-01_14h56.07.244,ImageRatingTask_S3,2021.1.4,MacIntel,76.92307692,,,,,,,,,
,,,,,,,,,,,,0,7,7,7,1,last,1,22,female,mixed,at home,2021-07-01_14h56.07.244,ImageRatingTask_S3,2021.1.4,MacIntel,76.92307692,,,,,,,,,
,,,,,,,,,,,,,,,,,,1,22,female,mixed,at home,2021-07-01_14h56.07.244,ImageRatingTask_S3,2021.1.4,MacIntel,76.92307692,0,52,52,120,1,DreamStudyImages_rs1000x750g/Vehicles/Objects_304_h.jpg,,,
,,5,1.944,1,0.306,8,2.395,1,0.863,7,0.636,0,0,0,0,1,main,1,22,female,mixed,at home,2021-07-01_14h56.07.244,ImageRatingTask_S3,2021.1.4,MacIntel,76.92307692,,,,,,,,,
,,,,,,,,,,,,0,1,1,1,1,second,1,22,female,mixed,at home,2021-07-01_14h56.07.244,ImageRatingTask_S3,2021.1.4,MacIntel,76.92307692,,,,,,,,,
,,,,,,,,,,,,0,2,2,2,1,third,1,22,female,mixed,at home,2021-07-01_14h56.07.244,ImageRatingTask_S3,2021.1.4,MacIntel,76.92307692,,,,,,,,,
,,,,,,,,,,,,0,3,3,3,1,fourth,1,22,female,mixed,at home,2021-07-01_14h56.07.244,ImageRatingTask_S3,2021.1.4,MacIntel,76.92307692,,,,,,,,,
,,,,,,,,,,,,0,4,4,4,1,fifth,1,22,female,mixed,at home,2021-07-01_14h56.07.244,ImageRatingTask_S3,2021.1.4,MacIntel,76.92307692,,,,,,,,,
,,,,,,,,,,,,0,5,5,5,1,sixth,1,22,female,mixed,at home,2021-07-01_14h56.07.244,ImageRatingTask_S3,2021.1.4,MacIntel,76.92307692,,,,,,,,,
,,,,,,,,,,,,0,6,6,6,1,seventh,1,22,female,mixed,at home,2021-07-01_14h56.07.244,ImageRatingTask_S3,2021.1.4,MacIntel,76.92307692,,,,,,,,,
,,,,,,,,,,,,0,7,7,7,1,last,1,22,female,mixed,at home,2021-07-01_14h56.07.244,ImageRatingTask_S3,2021.1.4,MacIntel,76.92307692,,,,,,,,,
,,,,,,,,,,,,,,,,,,1,22,female,mixed,at home,2021-07-01_14h56.07.244,ImageRatingTask_S3,2021.1.4,MacIntel,76.92307692,0,53,53,102,1,DreamStudyImages_rs1000x750g/Vehicles/Objects_296_h.jpg,,,
,,5,2.217,1,0.76,5,1.645,1,1.167,3,1.128,0,0,0,0,1,main,1,22,female,mixed,at home,2021-07-01_14h56.07.244,ImageRatingTask_S3,2021.1.4,MacIntel,76.92307692,,,,,,,,,
,,,,,,,,,,,,0,1,1,1,1,second,1,22,female,mixed,at home,2021-07-01_14h56.07.244,ImageRatingTask_S3,2021.1.4,MacIntel,76.92307692,,,,,,,,,
,,,,,,,,,,,,0,2,2,2,1,third,1,22,female,mixed,at home,2021-07-01_14h56.07.244,ImageRatingTask_S3,2021.1.4,MacIntel,76.92307692,,,,,,,,,
,,,,,,,,,,,,0,3,3,3,1,fourth,1,22,female,mixed,at home,2021-07-01_14h56.07.244,ImageRatingTask_S3,2021.1.4,MacIntel,76.92307692,,,,,,,,,
,,,,,,,,,,,,0,4,4,4,1,fifth,1,22,female,mixed,at home,2021-07-01_14h56.07.244,ImageRatingTask_S3,2021.1.4,MacIntel,76.92307692,,,,,,,,,
,,,,,,,,,,,,0,5,5,5,1,sixth,1,22,female,mixed,at home,2021-07-01_14h56.07.244,ImageRatingTask_S3,2021.1.4,MacIntel,76.92307692,,,,,,,,,
,,,,,,,,,,,,0,6,6,6,1,seventh,1,22,female,mixed,at home,2021-07-01_14h56.07.244,ImageRatingTask_S3,2021.1.4,MacIntel,76.92307692,,,,,,,,,
,,,,,,,,,,,,0,7,7,7,1,last,1,22,female,mixed,at home,2021-07-01_14h56.07.244,ImageRatingTask_S3,2021.1.4,MacIntel,76.92307692,,,,,,,,,
,,,,,,,,,,,,,,,,,,1,22,female,mixed,at home,2021-07-01_14h56.07.244,ImageRatingTask_S3,2021.1.4,MacIntel,76.92307692,0,54,54,87,1,DreamStudyImages_rs1000x750g/Mammals/Meerkat 1.jpg,,,
,,6,3.032,1,2.027,8,1.765,1,0.864,5,0.844,0,0,0,0,1,main,1,22,female,mixed,at home,2021-07-01_14h56.07.244,ImageRatingTask_S3,2021.1.4,MacIntel,76.92307692,,,,,,,,,
,,,,,,,,,,,,0,1,1,1,1,second,1,22,female,mixed,at home,2021-07-01_14h56.07.244,ImageRatingTask_S3,2021.1.4,MacIntel,76.92307692,,,,,,,,,
,,,,,,,,,,,,0,2,2,2,1,third,1,22,female,mixed,at home,2021-07-01_14h56.07.244,ImageRatingTask_S3,2021.1.4,MacIntel,76.92307692,,,,,,,,,
,,,,,,,,,,,,0,3,3,3,1,fourth,1,22,female,mixed,at home,2021-07-01_14h56.07.244,ImageRatingTask_S3,2021.1.4,MacIntel,76.92307692,,,,,,,,,
,,,,,,,,,,,,0,4,4,4,1,fifth,1,22,female,mixed,at home,2021-07-01_14h56.07.244,ImageRatingTask_S3,2021.1.4,MacIntel,76.92307692,,,,,,,,,
,,,,,,,,,,,,0,5,5,5,1,sixth,1,22,female,mixed,at home,2021-07-01_14h56.07.244,ImageRatingTask_S3,2021.1.4,MacIntel,76.92307692,,,,,,,,,
,,,,,,,,,,,,0,6,6,6,1,seventh,1,22,female,mixed,at home,2021-07-01_14h56.07.244,ImageRatingTask_S3,2021.1.4,MacIntel,76.92307692,,,,,,,,,
,,,,,,,,,,,,0,7,7,7,1,last,1,22,female,mixed,at home,2021-07-01_14h56.07.244,ImageRatingTask_S3,2021.1.4,MacIntel,76.92307692,,,,,,,,,
,,,,,,,,,,,,,,,,,,1,22,female,mixed,at home,2021-07-01_14h56.07.244,ImageRatingTask_S3,2021.1.4,MacIntel,76.92307692,0,55,55,125,1,DreamStudyImages_rs1000x750g/Food/Objects_043_h.jpg,,,
,,4,5.178,4,1.286,7,4.872,1,1.162,7,2.232,0,0,0,0,1,main,1,22,female,mixed,at home,2021-07-01_14h56.07.244,ImageRatingTask_S3,2021.1.4,MacIntel,76.92307692,,,,,,,,,
,,,,,,,,,,,,0,1,1,1,1,second,1,22,female,mixed,at home,2021-07-01_14h56.07.244,ImageRatingTask_S3,2021.1.4,MacIntel,76.92307692,,,,,,,,,
,,,,,,,,,,,,0,2,2,2,1,third,1,22,female,mixed,at home,2021-07-01_14h56.07.244,ImageRatingTask_S3,2021.1.4,MacIntel,76.92307692,,,,,,,,,
,,,,,,,,,,,,0,3,3,3,1,fourth,1,22,female,mixed,at home,2021-07-01_14h56.07.244,ImageRatingTask_S3,2021.1.4,MacIntel,76.92307692,,,,,,,,,
,,,,,,,,,,,,0,4,4,4,1,fifth,1,22,female,mixed,at home,2021-07-01_14h56.07.244,ImageRatingTask_S3,2021.1.4,MacIntel,76.92307692,,,,,,,,,
,,,,,,,,,,,,0,5,5,5,1,sixth,1,22,female,mixed,at home,2021-07-01_14h56.07.244,ImageRatingTask_S3,2021.1.4,MacIntel,76.92307692,,,,,,,,,
,,,,,,,,,,,,0,6,6,6,1,seventh,1,22,female,mixed,at home,2021-07-01_14h56.07.244,ImageRatingTask_S3,2021.1.4,MacIntel,76.92307692,,,,,,,,,
,,,,,,,,,,,,0,7,7,7,1,last,1,22,female,mixed,at home,2021-07-01_14h56.07.244,ImageRatingTask_S3,2021.1.4,MacIntel,76.92307692,,,,,,,,,
,,,,,,,,,,,,,,,,,,1,22,female,mixed,at home,2021-07-01_14h56.07.244,ImageRatingTask_S3,2021.1.4,MacIntel,76.92307692,0,56,56,153,1,DreamStudyImages_rs1000x750g/Water/46.jpg,,,
,,3,2.68,4,1.836,9,3.384,1,1.358,2,1.052,0,0,0,0,1,main,1,22,female,mixed,at home,2021-07-01_14h56.07.244,ImageRatingTask_S3,2021.1.4,MacIntel,76.92307692,,,,,,,,,
,,,,,,,,,,,,0,1,1,1,1,second,1,22,female,mixed,at home,2021-07-01_14h56.07.244,ImageRatingTask_S3,2021.1.4,MacIntel,76.92307692,,,,,,,,,
,,,,,,,,,,,,0,2,2,2,1,third,1,22,female,mixed,at home,2021-07-01_14h56.07.244,ImageRatingTask_S3,2021.1.4,MacIntel,76.92307692,,,,,,,,,
,,,,,,,,,,,,0,3,3,3,1,fourth,1,22,female,mixed,at home,2021-07-01_14h56.07.244,ImageRatingTask_S3,2021.1.4,MacIntel,76.92307692,,,,,,,,,
,,,,,,,,,,,,0,4,4,4,1,fifth,1,22,female,mixed,at home,2021-07-01_14h56.07.244,ImageRatingTask_S3,2021.1.4,MacIntel,76.92307692,,,,,,,,,
,,,,,,,,,,,,0,5,5,5,1,sixth,1,22,female,mixed,at home,2021-07-01_14h56.07.244,ImageRatingTask_S3,2021.1.4,MacIntel,76.92307692,,,,,,,,,
,,,,,,,,,,,,0,6,6,6,1,seventh,1,22,female,mixed,at home,2021-07-01_14h56.07.244,ImageRatingTask_S3,2021.1.4,MacIntel,76.92307692,,,,,,,,,
,,,,,,,,,,,,0,7,7,7,1,last,1,22,female,mixed,at home,2021-07-01_14h56.07.244,ImageRatingTask_S3,2021.1.4,MacIntel,76.92307692,,,,,,,,,
,,,,,,,,,,,,,,,,,,1,22,female,mixed,at home,2021-07-01_14h56.07.244,ImageRatingTask_S3,2021.1.4,MacIntel,76.92307692,0,57,57,66,1,DreamStudyImages_rs1000x750g/Children/IAPS2458_child4.jpg,,,
,,5,2.612,1,0.505,7,2.471,1,0.746,3,0.721,0,0,0,0,1,main,1,22,female,mixed,at home,2021-07-01_14h56.07.244,ImageRatingTask_S3,2021.1.4,MacIntel,76.92307692,,,,,,,,,
,,,,,,,,,,,,0,1,1,1,1,second,1,22,female,mixed,at home,2021-07-01_14h56.07.244,ImageRatingTask_S3,2021.1.4,MacIntel,76.92307692,,,,,,,,,
,,,,,,,,,,,,0,2,2,2,1,third,1,22,female,mixed,at home,2021-07-01_14h56.07.244,ImageRatingTask_S3,2021.1.4,MacIntel,76.92307692,,,,,,,,,
,,,,,,,,,,,,0,3,3,3,1,fourth,1,22,female,mixed,at home,2021-07-01_14h56.07.244,ImageRatingTask_S3,2021.1.4,MacIntel,76.92307692,,,,,,,,,
,,,,,,,,,,,,0,4,4,4,1,fifth,1,22,female,mixed,at home,2021-07-01_14h56.07.244,ImageRatingTask_S3,2021.1.4,MacIntel,76.92307692,,,,,,,,,
,,,,,,,,,,,,0,5,5,5,1,sixth,1,22,female,mixed,at home,2021-07-01_14h56.07.244,ImageRatingTask_S3,2021.1.4,MacIntel,76.92307692,,,,,,,,,
,,,,,,,,,,,,0,6,6,6,1,seventh,1,22,female,mixed,at home,2021-07-01_14h56.07.244,ImageRatingTask_S3,2021.1.4,MacIntel,76.92307692,,,,,,,,,
,,,,,,,,,,,,0,7,7,7,1,last,1,22,female,mixed,at home,2021-07-01_14h56.07.244,ImageRatingTask_S3,2021.1.4,MacIntel,76.92307692,,,,,,,,,
,,,,,,,,,,,,,,,,,,1,22,female,mixed,at home,2021-07-01_14h56.07.244,ImageRatingTask_S3,2021.1.4,MacIntel,76.92307692,0,58,58,53,1,DreamStudyImages_rs1000x750g/Mammals/Pig 1.jpg,,,
,,4,7.468,2,1.029,8,1.687,1,1.33,5,2.092,0,0,0,0,1,main,1,22,female,mixed,at home,2021-07-01_14h56.07.244,ImageRatingTask_S3,2021.1.4,MacIntel,76.92307692,,,,,,,,,
,,,,,,,,,,,,0,1,1,1,1,second,1,22,female,mixed,at home,2021-07-01_14h56.07.244,ImageRatingTask_S3,2021.1.4,MacIntel,76.92307692,,,,,,,,,
,,,,,,,,,,,,0,2,2,2,1,third,1,22,female,mixed,at home,2021-07-01_14h56.07.244,ImageRatingTask_S3,2021.1.4,MacIntel,76.92307692,,,,,,,,,
,,,,,,,,,,,,0,3,3,3,1,fourth,1,22,female,mixed,at home,2021-07-01_14h56.07.244,ImageRatingTask_S3,2021.1.4,MacIntel,76.92307692,,,,,,,,,
,,,,,,,,,,,,0,4,4,4,1,fifth,1,22,female,mixed,at home,2021-07-01_14h56.07.244,ImageRatingTask_S3,2021.1.4,MacIntel,76.92307692,,,,,,,,,
,,,,,,,,,,,,0,5,5,5,1,sixth,1,22,female,mixed,at home,2021-07-01_14h56.07.244,ImageRatingTask_S3,2021.1.4,MacIntel,76.92307692,,,,,,,,,
,,,,,,,,,,,,0,6,6,6,1,seventh,1,22,female,mixed,at home,2021-07-01_14h56.07.244,ImageRatingTask_S3,2021.1.4,MacIntel,76.92307692,,,,,,,,,
,,,,,,,,,,,,0,7,7,7,1,last,1,22,female,mixed,at home,2021-07-01_14h56.07.244,ImageRatingTask_S3,2021.1.4,MacIntel,76.92307692,,,,,,,,,
,,,,,,,,,,,,,,,,,,1,22,female,mixed,at home,2021-07-01_14h56.07.244,ImageRatingTask_S3,2021.1.4,MacIntel,76.92307692,0,59,59,4,1,DreamStudyImages_rs1000x750g/Food/Objects_164_h.jpg,,,
,,6,3.486,2,1.376,9,7.796,1,1.204,3,1.39,0,0,0,0,1,main,1,22,female,mixed,at home,2021-07-01_14h56.07.244,ImageRatingTask_S3,2021.1.4,MacIntel,76.92307692,,,,,,,,,
,,,,,,,,,,,,0,1,1,1,1,second,1,22,female,mixed,at home,2021-07-01_14h56.07.244,ImageRatingTask_S3,2021.1.4,MacIntel,76.92307692,,,,,,,,,
,,,,,,,,,,,,0,2,2,2,1,third,1,22,female,mixed,at home,2021-07-01_14h56.07.244,ImageRatingTask_S3,2021.1.4,MacIntel,76.92307692,,,,,,,,,
,,,,,,,,,,,,0,3,3,3,1,fourth,1,22,female,mixed,at home,2021-07-01_14h56.07.244,ImageRatingTask_S3,2021.1.4,MacIntel,76.92307692,,,,,,,,,
,,,,,,,,,,,,0,4,4,4,1,fifth,1,22,female,mixed,at home,2021-07-01_14h56.07.244,ImageRatingTask_S3,2021.1.4,MacIntel,76.92307692,,,,,,,,,
,,,,,,,,,,,,0,5,5,5,1,sixth,1,22,female,mixed,at home,2021-07-01_14h56.07.244,ImageRatingTask_S3,2021.1.4,MacIntel,76.92307692,,,,,,,,,
,,,,,,,,,,,,0,6,6,6,1,seventh,1,22,female,mixed,at home,2021-07-01_14h56.07.244,ImageRatingTask_S3,2021.1.4,MacIntel,76.92307692,,,,,,,,,
,,,,,,,,,,,,0,7,7,7,1,last,1,22,female,mixed,at home,2021-07-01_14h56.07.244,ImageRatingTask_S3,2021.1.4,MacIntel,76.92307692,,,,,,,,,
,,,,,,,,,,,,,,,,,,1,22,female,mixed,at home,2021-07-01_14h56.07.244,ImageRatingTask_S3,2021.1.4,MacIntel,76.92307692,0,60,60,8,1,DreamStudyImages_rs1000x750g/Mammals/Animals_097_h.jpg,,,
,,6,3.687,2,1.58,7,4.76,1,1.046,2,0.788,0,0,0,0,1,main,1,22,female,mixed,at home,2021-07-01_14h56.07.244,ImageRatingTask_S3,2021.1.4,MacIntel,76.92307692,,,,,,,,,
,,,,,,,,,,,,0,1,1,1,1,second,1,22,female,mixed,at home,2021-07-01_14h56.07.244,ImageRatingTask_S3,2021.1.4,MacIntel,76.92307692,,,,,,,,,
,,,,,,,,,,,,0,2,2,2,1,third,1,22,female,mixed,at home,2021-07-01_14h56.07.244,ImageRatingTask_S3,2021.1.4,MacIntel,76.92307692,,,,,,,,,
,,,,,,,,,,,,0,3,3,3,1,fourth,1,22,female,mixed,at home,2021-07-01_14h56.07.244,ImageRatingTask_S3,2021.1.4,MacIntel,76.92307692,,,,,,,,,
,,,,,,,,,,,,0,4,4,4,1,fifth,1,22,female,mixed,at home,2021-07-01_14h56.07.244,ImageRatingTask_S3,2021.1.4,MacIntel,76.92307692,,,,,,,,,
,,,,,,,,,,,,0,5,5,5,1,sixth,1,22,female,mixed,at home,2021-07-01_14h56.07.244,ImageRatingTask_S3,2021.1.4,MacIntel,76.92307692,,,,,,,,,
,,,,,,,,,,,,0,6,6,6,1,seventh,1,22,female,mixed,at home,2021-07-01_14h56.07.244,ImageRatingTask_S3,2021.1.4,MacIntel,76.92307692,,,,,,,,,
,,,,,,,,,,,,0,7,7,7,1,last,1,22,female,mixed,at home,2021-07-01_14h56.07.244,ImageRatingTask_S3,2021.1.4,MacIntel,76.92307692,,,,,,,,,
,,,,,,,,,,,,,,,,,,1,22,female,mixed,at home,2021-07-01_14h56.07.244,ImageRatingTask_S3,2021.1.4,MacIntel,76.92307692,0,61,61,54,1,DreamStudyImages_rs1000x750g/Children/Faces_101_h.jpg,,,
,,7,3.387,3,1.498,6,1.868,1,1.249,5,1.153,0,0,0,0,1,main,1,22,female,mixed,at home,2021-07-01_14h56.07.244,ImageRatingTask_S3,2021.1.4,MacIntel,76.92307692,,,,,,,,,
,,,,,,,,,,,,0,1,1,1,1,second,1,22,female,mixed,at home,2021-07-01_14h56.07.244,ImageRatingTask_S3,2021.1.4,MacIntel,76.92307692,,,,,,,,,
,,,,,,,,,,,,0,2,2,2,1,third,1,22,female,mixed,at home,2021-07-01_14h56.07.244,ImageRatingTask_S3,2021.1.4,MacIntel,76.92307692,,,,,,,,,
,,,,,,,,,,,,0,3,3,3,1,fourth,1,22,female,mixed,at home,2021-07-01_14h56.07.244,ImageRatingTask_S3,2021.1.4,MacIntel,76.92307692,,,,,,,,,
,,,,,,,,,,,,0,4,4,4,1,fifth,1,22,female,mixed,at home,2021-07-01_14h56.07.244,ImageRatingTask_S3,2021.1.4,MacIntel,76.92307692,,,,,,,,,
,,,,,,,,,,,,0,5,5,5,1,sixth,1,22,female,mixed,at home,2021-07-01_14h56.07.244,ImageRatingTask_S3,2021.1.4,MacIntel,76.92307692,,,,,,,,,
,,,,,,,,,,,,0,6,6,6,1,seventh,1,22,female,mixed,at home,2021-07-01_14h56.07.244,ImageRatingTask_S3,2021.1.4,MacIntel,76.92307692,,,,,,,,,
,,,,,,,,,,,,0,7,7,7,1,last,1,22,female,mixed,at home,2021-07-01_14h56.07.244,ImageRatingTask_S3,2021.1.4,MacIntel,76.92307692,,,,,,,,,
,,,,,,,,,,,,,,,,,,1,22,female,mixed,at home,2021-07-01_14h56.07.244,ImageRatingTask_S3,2021.1.4,MacIntel,76.92307692,0,62,62,55,1,DreamStudyImages_rs1000x750g/Food/IAPS7390_popsicles.jpg,,,
,,7,3.044,2,3.563,7,2.02,1,0.965,5,0.872,0,0,0,0,1,main,1,22,female,mixed,at home,2021-07-01_14h56.07.244,ImageRatingTask_S3,2021.1.4,MacIntel,76.92307692,,,,,,,,,
,,,,,,,,,,,,0,1,1,1,1,second,1,22,female,mixed,at home,2021-07-01_14h56.07.244,ImageRatingTask_S3,2021.1.4,MacIntel,76.92307692,,,,,,,,,
,,,,,,,,,,,,0,2,2,2,1,third,1,22,female,mixed,at home,2021-07-01_14h56.07.244,ImageRatingTask_S3,2021.1.4,MacIntel,76.92307692,,,,,,,,,
,,,,,,,,,,,,0,3,3,3,1,fourth,1,22,female,mixed,at home,2021-07-01_14h56.07.244,ImageRatingTask_S3,2021.1.4,MacIntel,76.92307692,,,,,,,,,
,,,,,,,,,,,,0,4,4,4,1,fifth,1,22,female,mixed,at home,2021-07-01_14h56.07.244,ImageRatingTask_S3,2021.1.4,MacIntel,76.92307692,,,,,,,,,
,,,,,,,,,,,,0,5,5,5,1,sixth,1,22,female,mixed,at home,2021-07-01_14h56.07.244,ImageRatingTask_S3,2021.1.4,MacIntel,76.92307692,,,,,,,,,
,,,,,,,,,,,,0,6,6,6,1,seventh,1,22,female,mixed,at home,2021-07-01_14h56.07.244,ImageRatingTask_S3,2021.1.4,MacIntel,76.92307692,,,,,,,,,
,,,,,,,,,,,,0,7,7,7,1,last,1,22,female,mixed,at home,2021-07-01_14h56.07.244,ImageRatingTask_S3,2021.1.4,MacIntel,76.92307692,,,,,,,,,
,,,,,,,,,,,,,,,,,,1,22,female,mixed,at home,2021-07-01_14h56.07.244,ImageRatingTask_S3,2021.1.4,MacIntel,76.92307692,0,63,63,113,1,DreamStudyImages_rs1000x750g/Food/Birthday 1.jpg,,,
,,6,4.401,3,1.754,3,2.398,1,1.488,5,0.965,0,0,0,0,1,main,1,22,female,mixed,at home,2021-07-01_14h56.07.244,ImageRatingTask_S3,2021.1.4,MacIntel,76.92307692,,,,,,,,,
,,,,,,,,,,,,0,1,1,1,1,second,1,22,female,mixed,at home,2021-07-01_14h56.07.244,ImageRatingTask_S3,2021.1.4,MacIntel,76.92307692,,,,,,,,,
,,,,,,,,,,,,0,2,2,2,1,third,1,22,female,mixed,at home,2021-07-01_14h56.07.244,ImageRatingTask_S3,2021.1.4,MacIntel,76.92307692,,,,,,,,,
,,,,,,,,,,,,0,3,3,3,1,fourth,1,22,female,mixed,at home,2021-07-01_14h56.07.244,ImageRatingTask_S3,2021.1.4,MacIntel,76.92307692,,,,,,,,,
,,,,,,,,,,,,0,4,4,4,1,fifth,1,22,female,mixed,at home,2021-07-01_14h56.07.244,ImageRatingTask_S3,2021.1.4,MacIntel,76.92307692,,,,,,,,,
,,,,,,,,,,,,0,5,5,5,1,sixth,1,22,female,mixed,at home,2021-07-01_14h56.07.244,ImageRatingTask_S3,2021.1.4,MacIntel,76.92307692,,,,,,,,,
,,,,,,,,,,,,0,6,6,6,1,seventh,1,22,female,mixed,at home,2021-07-01_14h56.07.244,ImageRatingTask_S3,2021.1.4,MacIntel,76.92307692,,,,,,,,,
,,,,,,,,,,,,0,7,7,7,1,last,1,22,female,mixed,at home,2021-07-01_14h56.07.244,ImageRatingTask_S3,2021.1.4,MacIntel,76.92307692,,,,,,,,,
,,,,,,,,,,,,,,,,,,1,22,female,mixed,at home,2021-07-01_14h56.07.244,ImageRatingTask_S3,2021.1.4,MacIntel,76.92307692,0,64,64,136,1,DreamStudyImages_rs1000x750g/Food/IAPS7284_apricots.jpg,,,
,,8,3.467,3,3.272,6,1.466,1,1.043,5,0.354,0,0,0,0,1,main,1,22,female,mixed,at home,2021-07-01_14h56.07.244,ImageRatingTask_S3,2021.1.4,MacIntel,76.92307692,,,,,,,,,
,,,,,,,,,,,,0,1,1,1,1,second,1,22,female,mixed,at home,2021-07-01_14h56.07.244,ImageRatingTask_S3,2021.1.4,MacIntel,76.92307692,,,,,,,,,
,,,,,,,,,,,,0,2,2,2,1,third,1,22,female,mixed,at home,2021-07-01_14h56.07.244,ImageRatingTask_S3,2021.1.4,MacIntel,76.92307692,,,,,,,,,
,,,,,,,,,,,,0,3,3,3,1,fourth,1,22,female,mixed,at home,2021-07-01_14h56.07.244,ImageRatingTask_S3,2021.1.4,MacIntel,76.92307692,,,,,,,,,
,,,,,,,,,,,,0,4,4,4,1,fifth,1,22,female,mixed,at home,2021-07-01_14h56.07.244,ImageRatingTask_S3,2021.1.4,MacIntel,76.92307692,,,,,,,,,
,,,,,,,,,,,,0,5,5,5,1,sixth,1,22,female,mixed,at home,2021-07-01_14h56.07.244,ImageRatingTask_S3,2021.1.4,MacIntel,76.92307692,,,,,,,,,
,,,,,,,,,,,,0,6,6,6,1,seventh,1,22,female,mixed,at home,2021-07-01_14h56.07.244,ImageRatingTask_S3,2021.1.4,MacIntel,76.92307692,,,,,,,,,
,,,,,,,,,,,,0,7,7,7,1,last,1,22,female,mixed,at home,2021-07-01_14h56.07.244,ImageRatingTask_S3,2021.1.4,MacIntel,76.92307692,,,,,,,,,
,,,,,,,,,,,,,,,,,,1,22,female,mixed,at home,2021-07-01_14h56.07.244,ImageRatingTask_S3,2021.1.4,MacIntel,76.92307692,0,65,65,72,1,DreamStudyImages_rs1000x750g/Food/7351.jpg,,,
,,6,1.674,1,2.283,8,2.229,1,0.987,2,0.728,0,0,0,0,1,main,1,22,female,mixed,at home,2021-07-01_14h56.07.244,ImageRatingTask_S3,2021.1.4,MacIntel,76.92307692,,,,,,,,,
,,,,,,,,,,,,0,1,1,1,1,second,1,22,female,mixed,at home,2021-07-01_14h56.07.244,ImageRatingTask_S3,2021.1.4,MacIntel,76.92307692,,,,,,,,,
,,,,,,,,,,,,0,2,2,2,1,third,1,22,female,mixed,at home,2021-07-01_14h56.07.244,ImageRatingTask_S3,2021.1.4,MacIntel,76.92307692,,,,,,,,,
,,,,,,,,,,,,0,3,3,3,1,fourth,1,22,female,mixed,at home,2021-07-01_14h56.07.244,ImageRatingTask_S3,2021.1.4,MacIntel,76.92307692,,,,,,,,,
,,,,,,,,,,,,0,4,4,4,1,fifth,1,22,female,mixed,at home,2021-07-01_14h56.07.244,ImageRatingTask_S3,2021.1.4,MacIntel,76.92307692,,,,,,,,,
,,,,,,,,,,,,0,5,5,5,1,sixth,1,22,female,mixed,at home,2021-07-01_14h56.07.244,ImageRatingTask_S3,2021.1.4,MacIntel,76.92307692,,,,,,,,,
,,,,,,,,,,,,0,6,6,6,1,seventh,1,22,female,mixed,at home,2021-07-01_14h56.07.244,ImageRatingTask_S3,2021.1.4,MacIntel,76.92307692,,,,,,,,,
,,,,,,,,,,,,0,7,7,7,1,last,1,22,female,mixed,at home,2021-07-01_14h56.07.244,ImageRatingTask_S3,2021.1.4,MacIntel,76.92307692,,,,,,,,,
,,,,,,,,,,,,,,,,,,1,22,female,mixed,at home,2021-07-01_14h56.07.244,ImageRatingTask_S3,2021.1.4,MacIntel,76.92307692,0,66,66,16,1,DreamStudyImages_rs1000x750g/Children/Faces_115_h.jpg,,,
,,4,3.061,3,1.963,7,2.173,1,0.864,3,15.206,0,0,0,0,1,main,1,22,female,mixed,at home,2021-07-01_14h56.07.244,ImageRatingTask_S3,2021.1.4,MacIntel,76.92307692,,,,,,,,,
,,,,,,,,,,,,0,1,1,1,1,second,1,22,female,mixed,at home,2021-07-01_14h56.07.244,ImageRatingTask_S3,2021.1.4,MacIntel,76.92307692,,,,,,,,,
,,,,,,,,,,,,0,2,2,2,1,third,1,22,female,mixed,at home,2021-07-01_14h56.07.244,ImageRatingTask_S3,2021.1.4,MacIntel,76.92307692,,,,,,,,,
,,,,,,,,,,,,0,3,3,3,1,fourth,1,22,female,mixed,at home,2021-07-01_14h56.07.244,ImageRatingTask_S3,2021.1.4,MacIntel,76.92307692,,,,,,,,,
,,,,,,,,,,,,0,4,4,4,1,fifth,1,22,female,mixed,at home,2021-07-01_14h56.07.244,ImageRatingTask_S3,2021.1.4,MacIntel,76.92307692,,,,,,,,,
,,,,,,,,,,,,0,5,5,5,1,sixth,1,22,female,mixed,at home,2021-07-01_14h56.07.244,ImageRatingTask_S3,2021.1.4,MacIntel,76.92307692,,,,,,,,,
,,,,,,,,,,,,0,6,6,6,1,seventh,1,22,female,mixed,at home,2021-07-01_14h56.07.244,ImageRatingTask_S3,2021.1.4,MacIntel,76.92307692,,,,,,,,,
,,,,,,,,,,,,0,7,7,7,1,last,1,22,female,mixed,at home,2021-07-01_14h56.07.244,ImageRatingTask_S3,2021.1.4,MacIntel,76.92307692,,,,,,,,,
,,,,,,,,,,,,,,,,,,1,22,female,mixed,at home,2021-07-01_14h56.07.244,ImageRatingTask_S3,2021.1.4,MacIntel,76.92307692,0,67,67,36,1,DreamStudyImages_rs1000x750g/Mammals/Animals_005_h.jpg,,,
,,5,2.245,1,2.07,9,1.598,1,9.494,6,1.316,0,0,0,0,1,main,1,22,female,mixed,at home,2021-07-01_14h56.07.244,ImageRatingTask_S3,2021.1.4,MacIntel,76.92307692,,,,,,,,,
,,,,,,,,,,,,0,1,1,1,1,second,1,22,female,mixed,at home,2021-07-01_14h56.07.244,ImageRatingTask_S3,2021.1.4,MacIntel,76.92307692,,,,,,,,,
,,,,,,,,,,,,0,2,2,2,1,third,1,22,female,mixed,at home,2021-07-01_14h56.07.244,ImageRatingTask_S3,2021.1.4,MacIntel,76.92307692,,,,,,,,,
,,,,,,,,,,,,0,3,3,3,1,fourth,1,22,female,mixed,at home,2021-07-01_14h56.07.244,ImageRatingTask_S3,2021.1.4,MacIntel,76.92307692,,,,,,,,,
,,,,,,,,,,,,0,4,4,4,1,fifth,1,22,female,mixed,at home,2021-07-01_14h56.07.244,ImageRatingTask_S3,2021.1.4,MacIntel,76.92307692,,,,,,,,,
,,,,,,,,,,,,0,5,5,5,1,sixth,1,22,female,mixed,at home,2021-07-01_14h56.07.244,ImageRatingTask_S3,2021.1.4,MacIntel,76.92307692,,,,,,,,,
,,,,,,,,,,,,0,6,6,6,1,seventh,1,22,female,mixed,at home,2021-07-01_14h56.07.244,ImageRatingTask_S3,2021.1.4,MacIntel,76.92307692,,,,,,,,,
,,,,,,,,,,,,0,7,7,7,1,last,1,22,female,mixed,at home,2021-07-01_14h56.07.244,ImageRatingTask_S3,2021.1.4,MacIntel,76.92307692,,,,,,,,,
,,,,,,,,,,,,,,,,,,1,22,female,mixed,at home,2021-07-01_14h56.07.244,ImageRatingTask_S3,2021.1.4,MacIntel,76.92307692,0,68,68,109,1,DreamStudyImages_rs1000x750g/Houses/abandonedhouse2.jpg,,,
,,4,3.731,2,4.273,7,2.015,1,2.524,5,1.249,0,0,0,0,1,main,1,22,female,mixed,at home,2021-07-01_14h56.07.244,ImageRatingTask_S3,2021.1.4,MacIntel,76.92307692,,,,,,,,,
,,,,,,,,,,,,0,1,1,1,1,second,1,22,female,mixed,at home,2021-07-01_14h56.07.244,ImageRatingTask_S3,2021.1.4,MacIntel,76.92307692,,,,,,,,,
,,,,,,,,,,,,0,2,2,2,1,third,1,22,female,mixed,at home,2021-07-01_14h56.07.244,ImageRatingTask_S3,2021.1.4,MacIntel,76.92307692,,,,,,,,,
,,,,,,,,,,,,0,3,3,3,1,fourth,1,22,female,mixed,at home,2021-07-01_14h56.07.244,ImageRatingTask_S3,2021.1.4,MacIntel,76.92307692,,,,,,,,,
,,,,,,,,,,,,0,4,4,4,1,fifth,1,22,female,mixed,at home,2021-07-01_14h56.07.244,ImageRatingTask_S3,2021.1.4,MacIntel,76.92307692,,,,,,,,,
,,,,,,,,,,,,0,5,5,5,1,sixth,1,22,female,mixed,at home,2021-07-01_14h56.07.244,ImageRatingTask_S3,2021.1.4,MacIntel,76.92307692,,,,,,,,,
,,,,,,,,,,,,0,6,6,6,1,seventh,1,22,female,mixed,at home,2021-07-01_14h56.07.244,ImageRatingTask_S3,2021.1.4,MacIntel,76.92307692,,,,,,,,,
,,,,,,,,,,,,0,7,7,7,1,last,1,22,female,mixed,at home,2021-07-01_14h56.07.244,ImageRatingTask_S3,2021.1.4,MacIntel,76.92307692,,,,,,,,,
,,,,,,,,,,,,,,,,,,1,22,female,mixed,at home,2021-07-01_14h56.07.244,ImageRatingTask_S3,2021.1.4,MacIntel,76.92307692,0,69,69,35,1,DreamStudyImages_rs1000x750g/Food/Objects_037_h.jpg,,,
,,7,2.925,3,1.521,9,2.465,1,1.165,5,2.225,0,0,0,0,1,main,1,22,female,mixed,at home,2021-07-01_14h56.07.244,ImageRatingTask_S3,2021.1.4,MacIntel,76.92307692,,,,,,,,,
,,,,,,,,,,,,0,1,1,1,1,second,1,22,female,mixed,at home,2021-07-01_14h56.07.244,ImageRatingTask_S3,2021.1.4,MacIntel,76.92307692,,,,,,,,,
,,,,,,,,,,,,0,2,2,2,1,third,1,22,female,mixed,at home,2021-07-01_14h56.07.244,ImageRatingTask_S3,2021.1.4,MacIntel,76.92307692,,,,,,,,,
,,,,,,,,,,,,0,3,3,3,1,fourth,1,22,female,mixed,at home,2021-07-01_14h56.07.244,ImageRatingTask_S3,2021.1.4,MacIntel,76.92307692,,,,,,,,,
,,,,,,,,,,,,0,4,4,4,1,fifth,1,22,female,mixed,at home,2021-07-01_14h56.07.244,ImageRatingTask_S3,2021.1.4,MacIntel,76.92307692,,,,,,,,,
,,,,,,,,,,,,0,5,5,5,1,sixth,1,22,female,mixed,at home,2021-07-01_14h56.07.244,ImageRatingTask_S3,2021.1.4,MacIntel,76.92307692,,,,,,,,,
,,,,,,,,,,,,0,6,6,6,1,seventh,1,22,female,mixed,at home,2021-07-01_14h56.07.244,ImageRatingTask_S3,2021.1.4,MacIntel,76.92307692,,,,,,,,,
,,,,,,,,,,,,0,7,7,7,1,last,1,22,female,mixed,at home,2021-07-01_14h56.07.244,ImageRatingTask_S3,2021.1.4,MacIntel,76.92307692,,,,,,,,,
,,,,,,,,,,,,,,,,,,1,22,female,mixed,at home,2021-07-01_14h56.07.244,ImageRatingTask_S3,2021.1.4,MacIntel,76.92307692,0,70,70,11,1,DreamStudyImages_rs1000x750g/Food/IAPS7477_sushi.jpg,,,
,,4,1.805,1,1.153,8,1.548,1,1.468,6,1.01,0,0,0,0,1,main,1,22,female,mixed,at home,2021-07-01_14h56.07.244,ImageRatingTask_S3,2021.1.4,MacIntel,76.92307692,,,,,,,,,
,,,,,,,,,,,,0,1,1,1,1,second,1,22,female,mixed,at home,2021-07-01_14h56.07.244,ImageRatingTask_S3,2021.1.4,MacIntel,76.92307692,,,,,,,,,
,,,,,,,,,,,,0,2,2,2,1,third,1,22,female,mixed,at home,2021-07-01_14h56.07.244,ImageRatingTask_S3,2021.1.4,MacIntel,76.92307692,,,,,,,,,
,,,,,,,,,,,,0,3,3,3,1,fourth,1,22,female,mixed,at home,2021-07-01_14h56.07.244,ImageRatingTask_S3,2021.1.4,MacIntel,76.92307692,,,,,,,,,
,,,,,,,,,,,,0,4,4,4,1,fifth,1,22,female,mixed,at home,2021-07-01_14h56.07.244,ImageRatingTask_S3,2021.1.4,MacIntel,76.92307692,,,,,,,,,
,,,,,,,,,,,,0,5,5,5,1,sixth,1,22,female,mixed,at home,2021-07-01_14h56.07.244,ImageRatingTask_S3,2021.1.4,MacIntel,76.92307692,,,,,,,,,
,,,,,,,,,,,,0,6,6,6,1,seventh,1,22,female,mixed,at home,2021-07-01_14h56.07.244,ImageRatingTask_S3,2021.1.4,MacIntel,76.92307692,,,,,,,,,
,,,,,,,,,,,,0,7,7,7,1,last,1,22,female,mixed,at home,2021-07-01_14h56.07.244,ImageRatingTask_S3,2021.1.4,MacIntel,76.92307692,,,,,,,,,
,,,,,,,,,,,,,,,,,,1,22,female,mixed,at home,2021-07-01_14h56.07.244,ImageRatingTask_S3,2021.1.4,MacIntel,76.92307692,0,71,71,63,1,DreamStudyImages_rs1000x750g/Houses/Landscapes_080_h.jpg,,,
,,7,3.331,2,4.713,8,2.771,1,1.407,8,0.753,0,0,0,0,1,main,1,22,female,mixed,at home,2021-07-01_14h56.07.244,ImageRatingTask_S3,2021.1.4,MacIntel,76.92307692,,,,,,,,,
,,,,,,,,,,,,0,1,1,1,1,second,1,22,female,mixed,at home,2021-07-01_14h56.07.244,ImageRatingTask_S3,2021.1.4,MacIntel,76.92307692,,,,,,,,,
,,,,,,,,,,,,0,2,2,2,1,third,1,22,female,mixed,at home,2021-07-01_14h56.07.244,ImageRatingTask_S3,2021.1.4,MacIntel,76.92307692,,,,,,,,,
,,,,,,,,,,,,0,3,3,3,1,fourth,1,22,female,mixed,at home,2021-07-01_14h56.07.244,ImageRatingTask_S3,2021.1.4,MacIntel,76.92307692,,,,,,,,,
,,,,,,,,,,,,0,4,4,4,1,fifth,1,22,female,mixed,at home,2021-07-01_14h56.07.244,ImageRatingTask_S3,2021.1.4,MacIntel,76.92307692,,,,,,,,,
,,,,,,,,,,,,0,5,5,5,1,sixth,1,22,female,mixed,at home,2021-07-01_14h56.07.244,ImageRatingTask_S3,2021.1.4,MacIntel,76.92307692,,,,,,,,,
,,,,,,,,,,,,0,6,6,6,1,seventh,1,22,female,mixed,at home,2021-07-01_14h56.07.244,ImageRatingTask_S3,2021.1.4,MacIntel,76.92307692,,,,,,,,,
,,,,,,,,,,,,0,7,7,7,1,last,1,22,female,mixed,at home,2021-07-01_14h56.07.244,ImageRatingTask_S3,2021.1.4,MacIntel,76.92307692,,,,,,,,,
,,,,,,,,,,,,,,,,,,1,22,female,mixed,at home,2021-07-01_14h56.07.244,ImageRatingTask_S3,2021.1.4,MacIntel,76.92307692,0,72,72,155,1,DreamStudyImages_rs1000x750g/Water/Landscapes_121_h.jpg,,,
,,7,3.609,2,3.695,4,2.307,1,1.351,5,1.256,0,0,0,0,1,main,1,22,female,mixed,at home,2021-07-01_14h56.07.244,ImageRatingTask_S3,2021.1.4,MacIntel,76.92307692,,,,,,,,,
,,,,,,,,,,,,0,1,1,1,1,second,1,22,female,mixed,at home,2021-07-01_14h56.07.244,ImageRatingTask_S3,2021.1.4,MacIntel,76.92307692,,,,,,,,,
,,,,,,,,,,,,0,2,2,2,1,third,1,22,female,mixed,at home,2021-07-01_14h56.07.244,ImageRatingTask_S3,2021.1.4,MacIntel,76.92307692,,,,,,,,,
,,,,,,,,,,,,0,3,3,3,1,fourth,1,22,female,mixed,at home,2021-07-01_14h56.07.244,ImageRatingTask_S3,2021.1.4,MacIntel,76.92307692,,,,,,,,,
,,,,,,,,,,,,0,4,4,4,1,fifth,1,22,female,mixed,at home,2021-07-01_14h56.07.244,ImageRatingTask_S3,2021.1.4,MacIntel,76.92307692,,,,,,,,,
,,,,,,,,,,,,0,5,5,5,1,sixth,1,22,female,mixed,at home,2021-07-01_14h56.07.244,ImageRatingTask_S3,2021.1.4,MacIntel,76.92307692,,,,,,,,,
,,,,,,,,,,,,0,6,6,6,1,seventh,1,22,female,mixed,at home,2021-07-01_14h56.07.244,ImageRatingTask_S3,2021.1.4,MacIntel,76.92307692,,,,,,,,,
,,,,,,,,,,,,0,7,7,7,1,last,1,22,female,mixed,at home,2021-07-01_14h56.07.244,ImageRatingTask_S3,2021.1.4,MacIntel,76.92307692,,,,,,,,,
,,,,,,,,,,,,,,,,,,1,22,female,mixed,at home,2021-07-01_14h56.07.244,ImageRatingTask_S3,2021.1.4,MacIntel,76.92307692,0,73,73,134,1,DreamStudyImages_rs1000x750g/Food/IAPS7291_chicken.jpg,,,
,,5,2.504,1,0.626,8,1.848,1,1.15,6,0.888,0,0,0,0,1,main,1,22,female,mixed,at home,2021-07-01_14h56.07.244,ImageRatingTask_S3,2021.1.4,MacIntel,76.92307692,,,,,,,,,
,,,,,,,,,,,,0,1,1,1,1,second,1,22,female,mixed,at home,2021-07-01_14h56.07.244,ImageRatingTask_S3,2021.1.4,MacIntel,76.92307692,,,,,,,,,
,,,,,,,,,,,,0,2,2,2,1,third,1,22,female,mixed,at home,2021-07-01_14h56.07.244,ImageRatingTask_S3,2021.1.4,MacIntel,76.92307692,,,,,,,,,
,,,,,,,,,,,,0,3,3,3,1,fourth,1,22,female,mixed,at home,2021-07-01_14h56.07.244,ImageRatingTask_S3,2021.1.4,MacIntel,76.92307692,,,,,,,,,
,,,,,,,,,,,,0,4,4,4,1,fifth,1,22,female,mixed,at home,2021-07-01_14h56.07.244,ImageRatingTask_S3,2021.1.4,MacIntel,76.92307692,,,,,,,,,
,,,,,,,,,,,,0,5,5,5,1,sixth,1,22,female,mixed,at home,2021-07-01_14h56.07.244,ImageRatingTask_S3,2021.1.4,MacIntel,76.92307692,,,,,,,,,
,,,,,,,,,,,,0,6,6,6,1,seventh,1,22,female,mixed,at home,2021-07-01_14h56.07.244,ImageRatingTask_S3,2021.1.4,MacIntel,76.92307692,,,,,,,,,
,,,,,,,,,,,,0,7,7,7,1,last,1,22,female,mixed,at home,2021-07-01_14h56.07.244,ImageRatingTask_S3,2021.1.4,MacIntel,76.92307692,,,,,,,,,
,,,,,,,,,,,,,,,,,,1,22,female,mixed,at home,2021-07-01_14h56.07.244,ImageRatingTask_S3,2021.1.4,MacIntel,76.92307692,0,74,74,68,1,DreamStudyImages_rs1000x750g/Houses/7530.jpg,,,
,,5,3.076,1,1.102,3,1.782,1,1.084,3,1.223,0,0,0,0,1,main,1,22,female,mixed,at home,2021-07-01_14h56.07.244,ImageRatingTask_S3,2021.1.4,MacIntel,76.92307692,,,,,,,,,
,,,,,,,,,,,,0,1,1,1,1,second,1,22,female,mixed,at home,2021-07-01_14h56.07.244,ImageRatingTask_S3,2021.1.4,MacIntel,76.92307692,,,,,,,,,
,,,,,,,,,,,,0,2,2,2,1,third,1,22,female,mixed,at home,2021-07-01_14h56.07.244,ImageRatingTask_S3,2021.1.4,MacIntel,76.92307692,,,,,,,,,
,,,,,,,,,,,,0,3,3,3,1,fourth,1,22,female,mixed,at home,2021-07-01_14h56.07.244,ImageRatingTask_S3,2021.1.4,MacIntel,76.92307692,,,,,,,,,
,,,,,,,,,,,,0,4,4,4,1,fifth,1,22,female,mixed,at home,2021-07-01_14h56.07.244,ImageRatingTask_S3,2021.1.4,MacIntel,76.92307692,,,,,,,,,
,,,,,,,,,,,,0,5,5,5,1,sixth,1,22,female,mixed,at home,2021-07-01_14h56.07.244,ImageRatingTask_S3,2021.1.4,MacIntel,76.92307692,,,,,,,,,
,,,,,,,,,,,,0,6,6,6,1,seventh,1,22,female,mixed,at home,2021-07-01_14h56.07.244,ImageRatingTask_S3,2021.1.4,MacIntel,76.92307692,,,,,,,,,
,,,,,,,,,,,,0,7,7,7,1,last,1,22,female,mixed,at home,2021-07-01_14h56.07.244,ImageRatingTask_S3,2021.1.4,MacIntel,76.92307692,,,,,,,,,
,,,,,,,,,,,,,,,,,,1,22,female,mixed,at home,2021-07-01_14h56.07.244,ImageRatingTask_S3,2021.1.4,MacIntel,76.92307692,0,75,75,111,1,DreamStudyImages_rs1000x750g/Mammals/IAPS1510_dog8.jpg,,,
