slider_pre.response,slider_pre.rt,key_val.keys,key_val.rt,key_aro.keys,key_aro.rt,key_qual.keys,key_qual.rt,key_ncat.keys,key_ncat.rt,key_cats.keys,key_cats.rt,ncat_order.thisRepN,ncat_order.thisTrialN,ncat_order.thisN,ncat_order.thisIndex,ncat_order.ran,cond_cat,participant,age,gender,handedness (L/R),site (IMT/Donders),date,expName,psychopyVersion,OS,frameRate,img_trials.thisRepN,img_trials.thisTrialN,img_trials.thisN,img_trials.thisIndex,img_trials.ran,filename,slider_post.response,slider_post.rt,key_fb.keys,key_fb.rt,fb.thisRepN,fb.thisTrialN,fb.thisN,fb.thisIndex,fb.ran,fb_qst,textbox_openfb.text
7,3.364,6,2.969,2,1.352,7,1.686,2,2.63,2,0.758,0,0,0,0,1,main,1,22,female,mixed,at home,2021-07-02_09h33.58.886,ImageRatingTask_S5,2021.1.4,MacIntel,62.5,,,,,,,,,,,,,,,,,
,,,,,,,,,,1,0.265,0,1,1,1,1,second,1,22,female,mixed,at home,2021-07-02_09h33.58.886,ImageRatingTask_S5,2021.1.4,MacIntel,62.5,,,,,,,,,,,,,,,,,
,,,,,,,,,,,,0,2,2,2,1,third,1,22,female,mixed,at home,2021-07-02_09h33.58.886,ImageRatingTask_S5,2021.1.4,MacIntel,62.5,,,,,,,,,,,,,,,,,
,,,,,,,,,,,,0,3,3,3,1,fourth,1,22,female,mixed,at home,2021-07-02_09h33.58.886,ImageRatingTask_S5,2021.1.4,MacIntel,62.5,,,,,,,,,,,,,,,,,
,,,,,,,,,,,,0,4,4,4,1,fifth,1,22,female,mixed,at home,2021-07-02_09h33.58.886,ImageRatingTask_S5,2021.1.4,MacIntel,62.5,,,,,,,,,,,,,,,,,
,,,,,,,,,,,,0,5,5,5,1,sixth,1,22,female,mixed,at home,2021-07-02_09h33.58.886,ImageRatingTask_S5,2021.1.4,MacIntel,62.5,,,,,,,,,,,,,,,,,
,,,,,,,,,,,,0,6,6,6,1,seventh,1,22,female,mixed,at home,2021-07-02_09h33.58.886,ImageRatingTask_S5,2021.1.4,MacIntel,62.5,,,,,,,,,,,,,,,,,
,,,,,,,,,,,,0,7,7,7,1,last,1,22,female,mixed,at home,2021-07-02_09h33.58.886,ImageRatingTask_S5,2021.1.4,MacIntel,62.5,,,,,,,,,,,,,,,,,
,,,,,,,,,,,,,,,,,,1,22,female,mixed,at home,2021-07-02_09h33.58.886,ImageRatingTask_S5,2021.1.4,MacIntel,62.5,0,0,0,82,1,DreamStudyImages_rs1000x750g/Children/Faces_082_v.jpg,,,,,,,,,,,
,,3,2.187,3,1.711,7,1.718,1,2.01,2,0.609,0,0,0,0,1,main,1,22,female,mixed,at home,2021-07-02_09h33.58.886,ImageRatingTask_S5,2021.1.4,MacIntel,62.5,,,,,,,,,,,,,,,,,
,,,,,,,,,,,,0,1,1,1,1,second,1,22,female,mixed,at home,2021-07-02_09h33.58.886,ImageRatingTask_S5,2021.1.4,MacIntel,62.5,,,,,,,,,,,,,,,,,
,,,,,,,,,,,,0,2,2,2,1,third,1,22,female,mixed,at home,2021-07-02_09h33.58.886,ImageRatingTask_S5,2021.1.4,MacIntel,62.5,,,,,,,,,,,,,,,,,
,,,,,,,,,,,,0,3,3,3,1,fourth,1,22,female,mixed,at home,2021-07-02_09h33.58.886,ImageRatingTask_S5,2021.1.4,MacIntel,62.5,,,,,,,,,,,,,,,,,
,,,,,,,,,,,,0,4,4,4,1,fifth,1,22,female,mixed,at home,2021-07-02_09h33.58.886,ImageRatingTask_S5,2021.1.4,MacIntel,62.5,,,,,,,,,,,,,,,,,
,,,,,,,,,,,,0,5,5,5,1,sixth,1,22,female,mixed,at home,2021-07-02_09h33.58.886,ImageRatingTask_S5,2021.1.4,MacIntel,62.5,,,,,,,,,,,,,,,,,
,,,,,,,,,,,,0,6,6,6,1,seventh,1,22,female,mixed,at home,2021-07-02_09h33.58.886,ImageRatingTask_S5,2021.1.4,MacIntel,62.5,,,,,,,,,,,,,,,,,
,,,,,,,,,,,,0,7,7,7,1,last,1,22,female,mixed,at home,2021-07-02_09h33.58.886,ImageRatingTask_S5,2021.1.4,MacIntel,62.5,,,,,,,,,,,,,,,,,
,,,,,,,,,,,,,,,,,,1,22,female,mixed,at home,2021-07-02_09h33.58.886,ImageRatingTask_S5,2021.1.4,MacIntel,62.5,0,1,1,150,1,DreamStudyImages_rs1000x750g/Children/IAPS3310_baby27.jpg,,,,,,,,,,,
,,5,2.612,1,0.671,4,1.633,1,1.418,8,1,0,0,0,0,1,main,1,22,female,mixed,at home,2021-07-02_09h33.58.886,ImageRatingTask_S5,2021.1.4,MacIntel,62.5,,,,,,,,,,,,,,,,,
,,,,,,,,,,,,0,1,1,1,1,second,1,22,female,mixed,at home,2021-07-02_09h33.58.886,ImageRatingTask_S5,2021.1.4,MacIntel,62.5,,,,,,,,,,,,,,,,,
,,,,,,,,,,,,0,2,2,2,1,third,1,22,female,mixed,at home,2021-07-02_09h33.58.886,ImageRatingTask_S5,2021.1.4,MacIntel,62.5,,,,,,,,,,,,,,,,,
,,,,,,,,,,,,0,3,3,3,1,fourth,1,22,female,mixed,at home,2021-07-02_09h33.58.886,ImageRatingTask_S5,2021.1.4,MacIntel,62.5,,,,,,,,,,,,,,,,,
,,,,,,,,,,,,0,4,4,4,1,fifth,1,22,female,mixed,at home,2021-07-02_09h33.58.886,ImageRatingTask_S5,2021.1.4,MacIntel,62.5,,,,,,,,,,,,,,,,,
,,,,,,,,,,,,0,5,5,5,1,sixth,1,22,female,mixed,at home,2021-07-02_09h33.58.886,ImageRatingTask_S5,2021.1.4,MacIntel,62.5,,,,,,,,,,,,,,,,,
,,,,,,,,,,,,0,6,6,6,1,seventh,1,22,female,mixed,at home,2021-07-02_09h33.58.886,ImageRatingTask_S5,2021.1.4,MacIntel,62.5,,,,,,,,,,,,,,,,,
,,,,,,,,,,,,0,7,7,7,1,last,1,22,female,mixed,at home,2021-07-02_09h33.58.886,ImageRatingTask_S5,2021.1.4,MacIntel,62.5,,,,,,,,,,,,,,,,,
,,,,,,,,,,,,,,,,,,1,22,female,mixed,at home,2021-07-02_09h33.58.886,ImageRatingTask_S5,2021.1.4,MacIntel,62.5,0,2,2,100,1,DreamStudyImages_rs1000x750g/Water/5820.jpg,,,,,,,,,,,
,,5,5.052,1,2.898,7,1.617,1,2.469,6,1.809,0,0,0,0,1,main,1,22,female,mixed,at home,2021-07-02_09h33.58.886,ImageRatingTask_S5,2021.1.4,MacIntel,62.5,,,,,,,,,,,,,,,,,
,,,,,,,,,,,,0,1,1,1,1,second,1,22,female,mixed,at home,2021-07-02_09h33.58.886,ImageRatingTask_S5,2021.1.4,MacIntel,62.5,,,,,,,,,,,,,,,,,
,,,,,,,,,,,,0,2,2,2,1,third,1,22,female,mixed,at home,2021-07-02_09h33.58.886,ImageRatingTask_S5,2021.1.4,MacIntel,62.5,,,,,,,,,,,,,,,,,
,,,,,,,,,,,,0,3,3,3,1,fourth,1,22,female,mixed,at home,2021-07-02_09h33.58.886,ImageRatingTask_S5,2021.1.4,MacIntel,62.5,,,,,,,,,,,,,,,,,
,,,,,,,,,,,,0,4,4,4,1,fifth,1,22,female,mixed,at home,2021-07-02_09h33.58.886,ImageRatingTask_S5,2021.1.4,MacIntel,62.5,,,,,,,,,,,,,,,,,
,,,,,,,,,,,,0,5,5,5,1,sixth,1,22,female,mixed,at home,2021-07-02_09h33.58.886,ImageRatingTask_S5,2021.1.4,MacIntel,62.5,,,,,,,,,,,,,,,,,
,,,,,,,,,,,,0,6,6,6,1,seventh,1,22,female,mixed,at home,2021-07-02_09h33.58.886,ImageRatingTask_S5,2021.1.4,MacIntel,62.5,,,,,,,,,,,,,,,,,
,,,,,,,,,,,,0,7,7,7,1,last,1,22,female,mixed,at home,2021-07-02_09h33.58.886,ImageRatingTask_S5,2021.1.4,MacIntel,62.5,,,,,,,,,,,,,,,,,
,,,,,,,,,,,,,,,,,,1,22,female,mixed,at home,2021-07-02_09h33.58.886,ImageRatingTask_S5,2021.1.4,MacIntel,62.5,0,3,3,116,1,DreamStudyImages_rs1000x750g/Houses/Landscapes_056_h.jpg,,,,,,,,,,,
,,3,2.021,4,1.784,7,2.669,1,1.184,7,0.675,0,0,0,0,1,main,1,22,female,mixed,at home,2021-07-02_09h33.58.886,ImageRatingTask_S5,2021.1.4,MacIntel,62.5,,,,,,,,,,,,,,,,,
,,,,,,,,,,,,0,1,1,1,1,second,1,22,female,mixed,at home,2021-07-02_09h33.58.886,ImageRatingTask_S5,2021.1.4,MacIntel,62.5,,,,,,,,,,,,,,,,,
,,,,,,,,,,,,0,2,2,2,1,third,1,22,female,mixed,at home,2021-07-02_09h33.58.886,ImageRatingTask_S5,2021.1.4,MacIntel,62.5,,,,,,,,,,,,,,,,,
,,,,,,,,,,,,0,3,3,3,1,fourth,1,22,female,mixed,at home,2021-07-02_09h33.58.886,ImageRatingTask_S5,2021.1.4,MacIntel,62.5,,,,,,,,,,,,,,,,,
,,,,,,,,,,,,0,4,4,4,1,fifth,1,22,female,mixed,at home,2021-07-02_09h33.58.886,ImageRatingTask_S5,2021.1.4,MacIntel,62.5,,,,,,,,,,,,,,,,,
,,,,,,,,,,,,0,5,5,5,1,sixth,1,22,female,mixed,at home,2021-07-02_09h33.58.886,ImageRatingTask_S5,2021.1.4,MacIntel,62.5,,,,,,,,,,,,,,,,,
,,,,,,,,,,,,0,6,6,6,1,seventh,1,22,female,mixed,at home,2021-07-02_09h33.58.886,ImageRatingTask_S5,2021.1.4,MacIntel,62.5,,,,,,,,,,,,,,,,,
,,,,,,,,,,,,0,7,7,7,1,last,1,22,female,mixed,at home,2021-07-02_09h33.58.886,ImageRatingTask_S5,2021.1.4,MacIntel,62.5,,,,,,,,,,,,,,,,,
,,,,,,,,,,,,,,,,,,1,22,female,mixed,at home,2021-07-02_09h33.58.886,ImageRatingTask_S5,2021.1.4,MacIntel,62.5,0,4,4,89,1,DreamStudyImages_rs1000x750g/Vehicles/Plane crash 4.jpg,,,,,,,,,,,
,,1,4.267,1,7.019,9,3.614,1,0.868,7,0.99,0,0,0,0,1,main,1,22,female,mixed,at home,2021-07-02_09h33.58.886,ImageRatingTask_S5,2021.1.4,MacIntel,62.5,,,,,,,,,,,,,,,,,
,,,,,,,,,,,,0,1,1,1,1,second,1,22,female,mixed,at home,2021-07-02_09h33.58.886,ImageRatingTask_S5,2021.1.4,MacIntel,62.5,,,,,,,,,,,,,,,,,
,,,,,,,,,,,,0,2,2,2,1,third,1,22,female,mixed,at home,2021-07-02_09h33.58.886,ImageRatingTask_S5,2021.1.4,MacIntel,62.5,,,,,,,,,,,,,,,,,
,,,,,,,,,,,,0,3,3,3,1,fourth,1,22,female,mixed,at home,2021-07-02_09h33.58.886,ImageRatingTask_S5,2021.1.4,MacIntel,62.5,,,,,,,,,,,,,,,,,
,,,,,,,,,,,,0,4,4,4,1,fifth,1,22,female,mixed,at home,2021-07-02_09h33.58.886,ImageRatingTask_S5,2021.1.4,MacIntel,62.5,,,,,,,,,,,,,,,,,
,,,,,,,,,,,,0,5,5,5,1,sixth,1,22,female,mixed,at home,2021-07-02_09h33.58.886,ImageRatingTask_S5,2021.1.4,MacIntel,62.5,,,,,,,,,,,,,,,,,
,,,,,,,,,,,,0,6,6,6,1,seventh,1,22,female,mixed,at home,2021-07-02_09h33.58.886,ImageRatingTask_S5,2021.1.4,MacIntel,62.5,,,,,,,,,,,,,,,,,
,,,,,,,,,,,,0,7,7,7,1,last,1,22,female,mixed,at home,2021-07-02_09h33.58.886,ImageRatingTask_S5,2021.1.4,MacIntel,62.5,,,,,,,,,,,,,,,,,
,,,,,,,,,,,,,,,,,,1,22,female,mixed,at home,2021-07-02_09h33.58.886,ImageRatingTask_S5,2021.1.4,MacIntel,62.5,0,5,5,113,1,DreamStudyImages_rs1000x750g/Vehicles/redtricycle.jpg,,,,,,,,,,,
,,3,2.17,3,6.084,5,1.616,1,1.803,3,0.52,0,0,0,0,1,main,1,22,female,mixed,at home,2021-07-02_09h33.58.886,ImageRatingTask_S5,2021.1.4,MacIntel,62.5,,,,,,,,,,,,,,,,,
,,,,,,,,,,,,0,1,1,1,1,second,1,22,female,mixed,at home,2021-07-02_09h33.58.886,ImageRatingTask_S5,2021.1.4,MacIntel,62.5,,,,,,,,,,,,,,,,,
,,,,,,,,,,,,0,2,2,2,1,third,1,22,female,mixed,at home,2021-07-02_09h33.58.886,ImageRatingTask_S5,2021.1.4,MacIntel,62.5,,,,,,,,,,,,,,,,,
,,,,,,,,,,,,0,3,3,3,1,fourth,1,22,female,mixed,at home,2021-07-02_09h33.58.886,ImageRatingTask_S5,2021.1.4,MacIntel,62.5,,,,,,,,,,,,,,,,,
,,,,,,,,,,,,0,4,4,4,1,fifth,1,22,female,mixed,at home,2021-07-02_09h33.58.886,ImageRatingTask_S5,2021.1.4,MacIntel,62.5,,,,,,,,,,,,,,,,,
,,,,,,,,,,,,0,5,5,5,1,sixth,1,22,female,mixed,at home,2021-07-02_09h33.58.886,ImageRatingTask_S5,2021.1.4,MacIntel,62.5,,,,,,,,,,,,,,,,,
,,,,,,,,,,,,0,6,6,6,1,seventh,1,22,female,mixed,at home,2021-07-02_09h33.58.886,ImageRatingTask_S5,2021.1.4,MacIntel,62.5,,,,,,,,,,,,,,,,,
,,,,,,,,,,,,0,7,7,7,1,last,1,22,female,mixed,at home,2021-07-02_09h33.58.886,ImageRatingTask_S5,2021.1.4,MacIntel,62.5,,,,,,,,,,,,,,,,,
,,,,,,,,,,,,,,,,,,1,22,female,mixed,at home,2021-07-02_09h33.58.886,ImageRatingTask_S5,2021.1.4,MacIntel,62.5,0,6,6,66,1,DreamStudyImages_rs1000x750g/Mammals/IAPS9180_deadseals.jpg,,,,,,,,,,,
,,6,2.023,2,1.306,8,3.465,1,0.867,3,0.588,0,0,0,0,1,main,1,22,female,mixed,at home,2021-07-02_09h33.58.886,ImageRatingTask_S5,2021.1.4,MacIntel,62.5,,,,,,,,,,,,,,,,,
,,,,,,,,,,,,0,1,1,1,1,second,1,22,female,mixed,at home,2021-07-02_09h33.58.886,ImageRatingTask_S5,2021.1.4,MacIntel,62.5,,,,,,,,,,,,,,,,,
,,,,,,,,,,,,0,2,2,2,1,third,1,22,female,mixed,at home,2021-07-02_09h33.58.886,ImageRatingTask_S5,2021.1.4,MacIntel,62.5,,,,,,,,,,,,,,,,,
,,,,,,,,,,,,0,3,3,3,1,fourth,1,22,female,mixed,at home,2021-07-02_09h33.58.886,ImageRatingTask_S5,2021.1.4,MacIntel,62.5,,,,,,,,,,,,,,,,,
,,,,,,,,,,,,0,4,4,4,1,fifth,1,22,female,mixed,at home,2021-07-02_09h33.58.886,ImageRatingTask_S5,2021.1.4,MacIntel,62.5,,,,,,,,,,,,,,,,,
,,,,,,,,,,,,0,5,5,5,1,sixth,1,22,female,mixed,at home,2021-07-02_09h33.58.886,ImageRatingTask_S5,2021.1.4,MacIntel,62.5,,,,,,,,,,,,,,,,,
,,,,,,,,,,,,0,6,6,6,1,seventh,1,22,female,mixed,at home,2021-07-02_09h33.58.886,ImageRatingTask_S5,2021.1.4,MacIntel,62.5,,,,,,,,,,,,,,,,,
,,,,,,,,,,,,0,7,7,7,1,last,1,22,female,mixed,at home,2021-07-02_09h33.58.886,ImageRatingTask_S5,2021.1.4,MacIntel,62.5,,,,,,,,,,,,,,,,,
,,,,,,,,,,,,,,,,,,1,22,female,mixed,at home,2021-07-02_09h33.58.886,ImageRatingTask_S5,2021.1.4,MacIntel,62.5,0,7,7,81,1,DreamStudyImages_rs1000x750g/Mammals/Animals_165_h.jpg,,,,,,,,,,,
,,5,2.423,1,17.472,7,6.536,1,1.883,3,0.301,0,0,0,0,1,main,1,22,female,mixed,at home,2021-07-02_09h33.58.886,ImageRatingTask_S5,2021.1.4,MacIntel,62.5,,,,,,,,,,,,,,,,,
,,,,,,,,,,,,0,1,1,1,1,second,1,22,female,mixed,at home,2021-07-02_09h33.58.886,ImageRatingTask_S5,2021.1.4,MacIntel,62.5,,,,,,,,,,,,,,,,,
,,,,,,,,,,,,0,2,2,2,1,third,1,22,female,mixed,at home,2021-07-02_09h33.58.886,ImageRatingTask_S5,2021.1.4,MacIntel,62.5,,,,,,,,,,,,,,,,,
,,,,,,,,,,,,0,3,3,3,1,fourth,1,22,female,mixed,at home,2021-07-02_09h33.58.886,ImageRatingTask_S5,2021.1.4,MacIntel,62.5,,,,,,,,,,,,,,,,,
,,,,,,,,,,,,0,4,4,4,1,fifth,1,22,female,mixed,at home,2021-07-02_09h33.58.886,ImageRatingTask_S5,2021.1.4,MacIntel,62.5,,,,,,,,,,,,,,,,,
,,,,,,,,,,,,0,5,5,5,1,sixth,1,22,female,mixed,at home,2021-07-02_09h33.58.886,ImageRatingTask_S5,2021.1.4,MacIntel,62.5,,,,,,,,,,,,,,,,,
,,,,,,,,,,,,0,6,6,6,1,seventh,1,22,female,mixed,at home,2021-07-02_09h33.58.886,ImageRatingTask_S5,2021.1.4,MacIntel,62.5,,,,,,,,,,,,,,,,,
,,,,,,,,,,,,0,7,7,7,1,last,1,22,female,mixed,at home,2021-07-02_09h33.58.886,ImageRatingTask_S5,2021.1.4,MacIntel,62.5,,,,,,,,,,,,,,,,,
,,,,,,,,,,,,,,,,,,1,22,female,mixed,at home,2021-07-02_09h33.58.886,ImageRatingTask_S5,2021.1.4,MacIntel,62.5,0,8,8,33,1,DreamStudyImages_rs1000x750g/Mammals/Bear 1.jpg,,,,,,,,,,,
,,5,2.61,1,0.501,4,1.399,1,0.734,6,0.908,0,0,0,0,1,main,1,22,female,mixed,at home,2021-07-02_09h33.58.886,ImageRatingTask_S5,2021.1.4,MacIntel,62.5,,,,,,,,,,,,,,,,,
,,,,,,,,,,,,0,1,1,1,1,second,1,22,female,mixed,at home,2021-07-02_09h33.58.886,ImageRatingTask_S5,2021.1.4,MacIntel,62.5,,,,,,,,,,,,,,,,,
,,,,,,,,,,,,0,2,2,2,1,third,1,22,female,mixed,at home,2021-07-02_09h33.58.886,ImageRatingTask_S5,2021.1.4,MacIntel,62.5,,,,,,,,,,,,,,,,,
,,,,,,,,,,,,0,3,3,3,1,fourth,1,22,female,mixed,at home,2021-07-02_09h33.58.886,ImageRatingTask_S5,2021.1.4,MacIntel,62.5,,,,,,,,,,,,,,,,,
,,,,,,,,,,,,0,4,4,4,1,fifth,1,22,female,mixed,at home,2021-07-02_09h33.58.886,ImageRatingTask_S5,2021.1.4,MacIntel,62.5,,,,,,,,,,,,,,,,,
,,,,,,,,,,,,0,5,5,5,1,sixth,1,22,female,mixed,at home,2021-07-02_09h33.58.886,ImageRatingTask_S5,2021.1.4,MacIntel,62.5,,,,,,,,,,,,,,,,,
,,,,,,,,,,,,0,6,6,6,1,seventh,1,22,female,mixed,at home,2021-07-02_09h33.58.886,ImageRatingTask_S5,2021.1.4,MacIntel,62.5,,,,,,,,,,,,,,,,,
,,,,,,,,,,,,0,7,7,7,1,last,1,22,female,mixed,at home,2021-07-02_09h33.58.886,ImageRatingTask_S5,2021.1.4,MacIntel,62.5,,,,,,,,,,,,,,,,,
,,,,,,,,,,,,,,,,,,1,22,female,mixed,at home,2021-07-02_09h33.58.886,ImageRatingTask_S5,2021.1.4,MacIntel,62.5,0,9,9,149,1,DreamStudyImages_rs1000x750g/Houses/redhouse.jpg,,,,,,,,,,,
,,6,2.396,3,3.356,6,1.665,1,1.153,7,0.789,0,0,0,0,1,main,1,22,female,mixed,at home,2021-07-02_09h33.58.886,ImageRatingTask_S5,2021.1.4,MacIntel,62.5,,,,,,,,,,,,,,,,,
,,,,,,,,,,,,0,1,1,1,1,second,1,22,female,mixed,at home,2021-07-02_09h33.58.886,ImageRatingTask_S5,2021.1.4,MacIntel,62.5,,,,,,,,,,,,,,,,,
,,,,,,,,,,,,0,2,2,2,1,third,1,22,female,mixed,at home,2021-07-02_09h33.58.886,ImageRatingTask_S5,2021.1.4,MacIntel,62.5,,,,,,,,,,,,,,,,,
,,,,,,,,,,,,0,3,3,3,1,fourth,1,22,female,mixed,at home,2021-07-02_09h33.58.886,ImageRatingTask_S5,2021.1.4,MacIntel,62.5,,,,,,,,,,,,,,,,,
,,,,,,,,,,,,0,4,4,4,1,fifth,1,22,female,mixed,at home,2021-07-02_09h33.58.886,ImageRatingTask_S5,2021.1.4,MacIntel,62.5,,,,,,,,,,,,,,,,,
,,,,,,,,,,,,0,5,5,5,1,sixth,1,22,female,mixed,at home,2021-07-02_09h33.58.886,ImageRatingTask_S5,2021.1.4,MacIntel,62.5,,,,,,,,,,,,,,,,,
,,,,,,,,,,,,0,6,6,6,1,seventh,1,22,female,mixed,at home,2021-07-02_09h33.58.886,ImageRatingTask_S5,2021.1.4,MacIntel,62.5,,,,,,,,,,,,,,,,,
,,,,,,,,,,,,0,7,7,7,1,last,1,22,female,mixed,at home,2021-07-02_09h33.58.886,ImageRatingTask_S5,2021.1.4,MacIntel,62.5,,,,,,,,,,,,,,,,,
,,,,,,,,,,,,,,,,,,1,22,female,mixed,at home,2021-07-02_09h33.58.886,ImageRatingTask_S5,2021.1.4,MacIntel,62.5,0,10,10,142,1,DreamStudyImages_rs1000x750g/Vehicles/5450.jpg,,,,,,,,,,,
,,7,1.981,2,3.488,8,4.164,1,1.534,8,1.191,0,0,0,0,1,main,1,22,female,mixed,at home,2021-07-02_09h33.58.886,ImageRatingTask_S5,2021.1.4,MacIntel,62.5,,,,,,,,,,,,,,,,,
,,,,,,,,,,,,0,1,1,1,1,second,1,22,female,mixed,at home,2021-07-02_09h33.58.886,ImageRatingTask_S5,2021.1.4,MacIntel,62.5,,,,,,,,,,,,,,,,,
,,,,,,,,,,,,0,2,2,2,1,third,1,22,female,mixed,at home,2021-07-02_09h33.58.886,ImageRatingTask_S5,2021.1.4,MacIntel,62.5,,,,,,,,,,,,,,,,,
,,,,,,,,,,,,0,3,3,3,1,fourth,1,22,female,mixed,at home,2021-07-02_09h33.58.886,ImageRatingTask_S5,2021.1.4,MacIntel,62.5,,,,,,,,,,,,,,,,,
,,,,,,,,,,,,0,4,4,4,1,fifth,1,22,female,mixed,at home,2021-07-02_09h33.58.886,ImageRatingTask_S5,2021.1.4,MacIntel,62.5,,,,,,,,,,,,,,,,,
,,,,,,,,,,,,0,5,5,5,1,sixth,1,22,female,mixed,at home,2021-07-02_09h33.58.886,ImageRatingTask_S5,2021.1.4,MacIntel,62.5,,,,,,,,,,,,,,,,,
,,,,,,,,,,,,0,6,6,6,1,seventh,1,22,female,mixed,at home,2021-07-02_09h33.58.886,ImageRatingTask_S5,2021.1.4,MacIntel,62.5,,,,,,,,,,,,,,,,,
,,,,,,,,,,,,0,7,7,7,1,last,1,22,female,mixed,at home,2021-07-02_09h33.58.886,ImageRatingTask_S5,2021.1.4,MacIntel,62.5,,,,,,,,,,,,,,,,,
,,,,,,,,,,,,,,,,,,1,22,female,mixed,at home,2021-07-02_09h33.58.886,ImageRatingTask_S5,2021.1.4,MacIntel,62.5,0,11,11,7,1,DreamStudyImages_rs1000x750g/Water/naturepool.jpg,,,,,,,,,,,
,,4,5.092,1,1.715,6,1.761,0,1.118,,,0,0,0,0,1,main,1,22,female,mixed,at home,2021-07-02_09h33.58.886,ImageRatingTask_S5,2021.1.4,MacIntel,62.5,,,,,,,,,,,,,,,,,
,,,,,,,,,,,,0,1,1,1,1,second,1,22,female,mixed,at home,2021-07-02_09h33.58.886,ImageRatingTask_S5,2021.1.4,MacIntel,62.5,,,,,,,,,,,,,,,,,
,,,,,,,,,,,,0,2,2,2,1,third,1,22,female,mixed,at home,2021-07-02_09h33.58.886,ImageRatingTask_S5,2021.1.4,MacIntel,62.5,,,,,,,,,,,,,,,,,
,,,,,,,,,,,,0,3,3,3,1,fourth,1,22,female,mixed,at home,2021-07-02_09h33.58.886,ImageRatingTask_S5,2021.1.4,MacIntel,62.5,,,,,,,,,,,,,,,,,
,,,,,,,,,,,,0,4,4,4,1,fifth,1,22,female,mixed,at home,2021-07-02_09h33.58.886,ImageRatingTask_S5,2021.1.4,MacIntel,62.5,,,,,,,,,,,,,,,,,
,,,,,,,,,,,,0,5,5,5,1,sixth,1,22,female,mixed,at home,2021-07-02_09h33.58.886,ImageRatingTask_S5,2021.1.4,MacIntel,62.5,,,,,,,,,,,,,,,,,
,,,,,,,,,,,,0,6,6,6,1,seventh,1,22,female,mixed,at home,2021-07-02_09h33.58.886,ImageRatingTask_S5,2021.1.4,MacIntel,62.5,,,,,,,,,,,,,,,,,
,,,,,,,,,,,,0,7,7,7,1,last,1,22,female,mixed,at home,2021-07-02_09h33.58.886,ImageRatingTask_S5,2021.1.4,MacIntel,62.5,,,,,,,,,,,,,,,,,
,,,,,,,,,,,,,,,,,,1,22,female,mixed,at home,2021-07-02_09h33.58.886,ImageRatingTask_S5,2021.1.4,MacIntel,62.5,0,12,12,86,1,DreamStudyImages_rs1000x750g/Houses/Landscapes_013_v.jpg,,,,,,,,,,,
,,3,5.054,3,1.487,5,3.333,1,1.601,2,0.956,0,0,0,0,1,main,1,22,female,mixed,at home,2021-07-02_09h33.58.886,ImageRatingTask_S5,2021.1.4,MacIntel,62.5,,,,,,,,,,,,,,,,,
,,,,,,,,,,,,0,1,1,1,1,second,1,22,female,mixed,at home,2021-07-02_09h33.58.886,ImageRatingTask_S5,2021.1.4,MacIntel,62.5,,,,,,,,,,,,,,,,,
,,,,,,,,,,,,0,2,2,2,1,third,1,22,female,mixed,at home,2021-07-02_09h33.58.886,ImageRatingTask_S5,2021.1.4,MacIntel,62.5,,,,,,,,,,,,,,,,,
,,,,,,,,,,,,0,3,3,3,1,fourth,1,22,female,mixed,at home,2021-07-02_09h33.58.886,ImageRatingTask_S5,2021.1.4,MacIntel,62.5,,,,,,,,,,,,,,,,,
,,,,,,,,,,,,0,4,4,4,1,fifth,1,22,female,mixed,at home,2021-07-02_09h33.58.886,ImageRatingTask_S5,2021.1.4,MacIntel,62.5,,,,,,,,,,,,,,,,,
,,,,,,,,,,,,0,5,5,5,1,sixth,1,22,female,mixed,at home,2021-07-02_09h33.58.886,ImageRatingTask_S5,2021.1.4,MacIntel,62.5,,,,,,,,,,,,,,,,,
,,,,,,,,,,,,0,6,6,6,1,seventh,1,22,female,mixed,at home,2021-07-02_09h33.58.886,ImageRatingTask_S5,2021.1.4,MacIntel,62.5,,,,,,,,,,,,,,,,,
,,,,,,,,,,,,0,7,7,7,1,last,1,22,female,mixed,at home,2021-07-02_09h33.58.886,ImageRatingTask_S5,2021.1.4,MacIntel,62.5,,,,,,,,,,,,,,,,,
,,,,,,,,,,,,,,,,,,1,22,female,mixed,at home,2021-07-02_09h33.58.886,ImageRatingTask_S5,2021.1.4,MacIntel,62.5,0,13,13,74,1,DreamStudyImages_rs1000x750g/Children/IAPS3300_baby25.jpg,,,,,,,,,,,
,,6,2.101,1,2.734,4,2.735,1,1.248,8,0.774,0,0,0,0,1,main,1,22,female,mixed,at home,2021-07-02_09h33.58.886,ImageRatingTask_S5,2021.1.4,MacIntel,62.5,,,,,,,,,,,,,,,,,
,,,,,,,,,,,,0,1,1,1,1,second,1,22,female,mixed,at home,2021-07-02_09h33.58.886,ImageRatingTask_S5,2021.1.4,MacIntel,62.5,,,,,,,,,,,,,,,,,
,,,,,,,,,,,,0,2,2,2,1,third,1,22,female,mixed,at home,2021-07-02_09h33.58.886,ImageRatingTask_S5,2021.1.4,MacIntel,62.5,,,,,,,,,,,,,,,,,
,,,,,,,,,,,,0,3,3,3,1,fourth,1,22,female,mixed,at home,2021-07-02_09h33.58.886,ImageRatingTask_S5,2021.1.4,MacIntel,62.5,,,,,,,,,,,,,,,,,
,,,,,,,,,,,,0,4,4,4,1,fifth,1,22,female,mixed,at home,2021-07-02_09h33.58.886,ImageRatingTask_S5,2021.1.4,MacIntel,62.5,,,,,,,,,,,,,,,,,
,,,,,,,,,,,,0,5,5,5,1,sixth,1,22,female,mixed,at home,2021-07-02_09h33.58.886,ImageRatingTask_S5,2021.1.4,MacIntel,62.5,,,,,,,,,,,,,,,,,
,,,,,,,,,,,,0,6,6,6,1,seventh,1,22,female,mixed,at home,2021-07-02_09h33.58.886,ImageRatingTask_S5,2021.1.4,MacIntel,62.5,,,,,,,,,,,,,,,,,
,,,,,,,,,,,,0,7,7,7,1,last,1,22,female,mixed,at home,2021-07-02_09h33.58.886,ImageRatingTask_S5,2021.1.4,MacIntel,62.5,,,,,,,,,,,,,,,,,
,,,,,,,,,,,,,,,,,,1,22,female,mixed,at home,2021-07-02_09h33.58.886,ImageRatingTask_S5,2021.1.4,MacIntel,62.5,0,14,14,16,1,DreamStudyImages_rs1000x750g/Water/5210.jpg,,,,,,,,,,,
,,2,2.93,4,2.112,7,1.571,1,1.167,6,1.176,0,0,0,0,1,main,1,22,female,mixed,at home,2021-07-02_09h33.58.886,ImageRatingTask_S5,2021.1.4,MacIntel,62.5,,,,,,,,,,,,,,,,,
,,,,,,,,,,,,0,1,1,1,1,second,1,22,female,mixed,at home,2021-07-02_09h33.58.886,ImageRatingTask_S5,2021.1.4,MacIntel,62.5,,,,,,,,,,,,,,,,,
,,,,,,,,,,,,0,2,2,2,1,third,1,22,female,mixed,at home,2021-07-02_09h33.58.886,ImageRatingTask_S5,2021.1.4,MacIntel,62.5,,,,,,,,,,,,,,,,,
,,,,,,,,,,,,0,3,3,3,1,fourth,1,22,female,mixed,at home,2021-07-02_09h33.58.886,ImageRatingTask_S5,2021.1.4,MacIntel,62.5,,,,,,,,,,,,,,,,,
,,,,,,,,,,,,0,4,4,4,1,fifth,1,22,female,mixed,at home,2021-07-02_09h33.58.886,ImageRatingTask_S5,2021.1.4,MacIntel,62.5,,,,,,,,,,,,,,,,,
,,,,,,,,,,,,0,5,5,5,1,sixth,1,22,female,mixed,at home,2021-07-02_09h33.58.886,ImageRatingTask_S5,2021.1.4,MacIntel,62.5,,,,,,,,,,,,,,,,,
,,,,,,,,,,,,0,6,6,6,1,seventh,1,22,female,mixed,at home,2021-07-02_09h33.58.886,ImageRatingTask_S5,2021.1.4,MacIntel,62.5,,,,,,,,,,,,,,,,,
,,,,,,,,,,,,0,7,7,7,1,last,1,22,female,mixed,at home,2021-07-02_09h33.58.886,ImageRatingTask_S5,2021.1.4,MacIntel,62.5,,,,,,,,,,,,,,,,,
,,,,,,,,,,,,,,,,,,1,22,female,mixed,at home,2021-07-02_09h33.58.886,ImageRatingTask_S5,2021.1.4,MacIntel,62.5,0,15,15,85,1,DreamStudyImages_rs1000x750g/Houses/NDPS6_buildings3.jpg,,,,,,,,,,,
,,5,4.254,1,1.25,6,1.353,1,4.309,3,0.74,0,0,0,0,1,main,1,22,female,mixed,at home,2021-07-02_09h33.58.886,ImageRatingTask_S5,2021.1.4,MacIntel,62.5,,,,,,,,,,,,,,,,,
,,,,,,,,,,,,0,1,1,1,1,second,1,22,female,mixed,at home,2021-07-02_09h33.58.886,ImageRatingTask_S5,2021.1.4,MacIntel,62.5,,,,,,,,,,,,,,,,,
,,,,,,,,,,,,0,2,2,2,1,third,1,22,female,mixed,at home,2021-07-02_09h33.58.886,ImageRatingTask_S5,2021.1.4,MacIntel,62.5,,,,,,,,,,,,,,,,,
,,,,,,,,,,,,0,3,3,3,1,fourth,1,22,female,mixed,at home,2021-07-02_09h33.58.886,ImageRatingTask_S5,2021.1.4,MacIntel,62.5,,,,,,,,,,,,,,,,,
,,,,,,,,,,,,0,4,4,4,1,fifth,1,22,female,mixed,at home,2021-07-02_09h33.58.886,ImageRatingTask_S5,2021.1.4,MacIntel,62.5,,,,,,,,,,,,,,,,,
,,,,,,,,,,,,0,5,5,5,1,sixth,1,22,female,mixed,at home,2021-07-02_09h33.58.886,ImageRatingTask_S5,2021.1.4,MacIntel,62.5,,,,,,,,,,,,,,,,,
,,,,,,,,,,,,0,6,6,6,1,seventh,1,22,female,mixed,at home,2021-07-02_09h33.58.886,ImageRatingTask_S5,2021.1.4,MacIntel,62.5,,,,,,,,,,,,,,,,,
,,,,,,,,,,,,0,7,7,7,1,last,1,22,female,mixed,at home,2021-07-02_09h33.58.886,ImageRatingTask_S5,2021.1.4,MacIntel,62.5,,,,,,,,,,,,,,,,,
,,,,,,,,,,,,,,,,,,1,22,female,mixed,at home,2021-07-02_09h33.58.886,ImageRatingTask_S5,2021.1.4,MacIntel,62.5,0,16,16,79,1,DreamStudyImages_rs1000x750g/Mammals/Dog 25.jpg,,,,,,,,,,,
,,5,5.256,1,6.617,3,2.45,1,2.621,8,2.139,0,0,0,0,1,main,1,22,female,mixed,at home,2021-07-02_09h33.58.886,ImageRatingTask_S5,2021.1.4,MacIntel,62.5,,,,,,,,,,,,,,,,,
,,,,,,,,,,,,0,1,1,1,1,second,1,22,female,mixed,at home,2021-07-02_09h33.58.886,ImageRatingTask_S5,2021.1.4,MacIntel,62.5,,,,,,,,,,,,,,,,,
,,,,,,,,,,,,0,2,2,2,1,third,1,22,female,mixed,at home,2021-07-02_09h33.58.886,ImageRatingTask_S5,2021.1.4,MacIntel,62.5,,,,,,,,,,,,,,,,,
,,,,,,,,,,,,0,3,3,3,1,fourth,1,22,female,mixed,at home,2021-07-02_09h33.58.886,ImageRatingTask_S5,2021.1.4,MacIntel,62.5,,,,,,,,,,,,,,,,,
,,,,,,,,,,,,0,4,4,4,1,fifth,1,22,female,mixed,at home,2021-07-02_09h33.58.886,ImageRatingTask_S5,2021.1.4,MacIntel,62.5,,,,,,,,,,,,,,,,,
,,,,,,,,,,,,0,5,5,5,1,sixth,1,22,female,mixed,at home,2021-07-02_09h33.58.886,ImageRatingTask_S5,2021.1.4,MacIntel,62.5,,,,,,,,,,,,,,,,,
,,,,,,,,,,,,0,6,6,6,1,seventh,1,22,female,mixed,at home,2021-07-02_09h33.58.886,ImageRatingTask_S5,2021.1.4,MacIntel,62.5,,,,,,,,,,,,,,,,,
,,,,,,,,,,,,0,7,7,7,1,last,1,22,female,mixed,at home,2021-07-02_09h33.58.886,ImageRatingTask_S5,2021.1.4,MacIntel,62.5,,,,,,,,,,,,,,,,,
,,,,,,,,,,,,,,,,,,1,22,female,mixed,at home,2021-07-02_09h33.58.886,ImageRatingTask_S5,2021.1.4,MacIntel,62.5,0,17,17,43,1,DreamStudyImages_rs1000x750g/Water/Lake 6.jpg,,,,,,,,,,,
,,6,1.565,2,2.116,6,1.533,1,0.867,5,0.524,0,0,0,0,1,main,1,22,female,mixed,at home,2021-07-02_09h33.58.886,ImageRatingTask_S5,2021.1.4,MacIntel,62.5,,,,,,,,,,,,,,,,,
,,,,,,,,,,,,0,1,1,1,1,second,1,22,female,mixed,at home,2021-07-02_09h33.58.886,ImageRatingTask_S5,2021.1.4,MacIntel,62.5,,,,,,,,,,,,,,,,,
,,,,,,,,,,,,0,2,2,2,1,third,1,22,female,mixed,at home,2021-07-02_09h33.58.886,ImageRatingTask_S5,2021.1.4,MacIntel,62.5,,,,,,,,,,,,,,,,,
,,,,,,,,,,,,0,3,3,3,1,fourth,1,22,female,mixed,at home,2021-07-02_09h33.58.886,ImageRatingTask_S5,2021.1.4,MacIntel,62.5,,,,,,,,,,,,,,,,,
,,,,,,,,,,,,0,4,4,4,1,fifth,1,22,female,mixed,at home,2021-07-02_09h33.58.886,ImageRatingTask_S5,2021.1.4,MacIntel,62.5,,,,,,,,,,,,,,,,,
,,,,,,,,,,,,0,5,5,5,1,sixth,1,22,female,mixed,at home,2021-07-02_09h33.58.886,ImageRatingTask_S5,2021.1.4,MacIntel,62.5,,,,,,,,,,,,,,,,,
,,,,,,,,,,,,0,6,6,6,1,seventh,1,22,female,mixed,at home,2021-07-02_09h33.58.886,ImageRatingTask_S5,2021.1.4,MacIntel,62.5,,,,,,,,,,,,,,,,,
,,,,,,,,,,,,0,7,7,7,1,last,1,22,female,mixed,at home,2021-07-02_09h33.58.886,ImageRatingTask_S5,2021.1.4,MacIntel,62.5,,,,,,,,,,,,,,,,,
,,,,,,,,,,,,,,,,,,1,22,female,mixed,at home,2021-07-02_09h33.58.886,ImageRatingTask_S5,2021.1.4,MacIntel,62.5,0,18,18,10,1,DreamStudyImages_rs1000x750g/Food/IAPS7476_soup.jpg,,,,,,,,,,,
,,5,3.651,1,1.073,7,5.107,1,0.884,8,0.938,0,0,0,0,1,main,1,22,female,mixed,at home,2021-07-02_09h33.58.886,ImageRatingTask_S5,2021.1.4,MacIntel,62.5,,,,,,,,,,,,,,,,,
,,,,,,,,,,,,0,1,1,1,1,second,1,22,female,mixed,at home,2021-07-02_09h33.58.886,ImageRatingTask_S5,2021.1.4,MacIntel,62.5,,,,,,,,,,,,,,,,,
,,,,,,,,,,,,0,2,2,2,1,third,1,22,female,mixed,at home,2021-07-02_09h33.58.886,ImageRatingTask_S5,2021.1.4,MacIntel,62.5,,,,,,,,,,,,,,,,,
,,,,,,,,,,,,0,3,3,3,1,fourth,1,22,female,mixed,at home,2021-07-02_09h33.58.886,ImageRatingTask_S5,2021.1.4,MacIntel,62.5,,,,,,,,,,,,,,,,,
,,,,,,,,,,,,0,4,4,4,1,fifth,1,22,female,mixed,at home,2021-07-02_09h33.58.886,ImageRatingTask_S5,2021.1.4,MacIntel,62.5,,,,,,,,,,,,,,,,,
,,,,,,,,,,,,0,5,5,5,1,sixth,1,22,female,mixed,at home,2021-07-02_09h33.58.886,ImageRatingTask_S5,2021.1.4,MacIntel,62.5,,,,,,,,,,,,,,,,,
,,,,,,,,,,,,0,6,6,6,1,seventh,1,22,female,mixed,at home,2021-07-02_09h33.58.886,ImageRatingTask_S5,2021.1.4,MacIntel,62.5,,,,,,,,,,,,,,,,,
,,,,,,,,,,,,0,7,7,7,1,last,1,22,female,mixed,at home,2021-07-02_09h33.58.886,ImageRatingTask_S5,2021.1.4,MacIntel,62.5,,,,,,,,,,,,,,,,,
,,,,,,,,,,,,,,,,,,1,22,female,mixed,at home,2021-07-02_09h33.58.886,ImageRatingTask_S5,2021.1.4,MacIntel,62.5,0,19,19,78,1,DreamStudyImages_rs1000x750g/Water/Landscapes_165_h.jpg,,,,,,,,,,,
,,4,2.828,1,1.094,9,3.619,1,3.118,2,0.728,0,0,0,0,1,main,1,22,female,mixed,at home,2021-07-02_09h33.58.886,ImageRatingTask_S5,2021.1.4,MacIntel,62.5,,,,,,,,,,,,,,,,,
,,,,,,,,,,,,0,1,1,1,1,second,1,22,female,mixed,at home,2021-07-02_09h33.58.886,ImageRatingTask_S5,2021.1.4,MacIntel,62.5,,,,,,,,,,,,,,,,,
,,,,,,,,,,,,0,2,2,2,1,third,1,22,female,mixed,at home,2021-07-02_09h33.58.886,ImageRatingTask_S5,2021.1.4,MacIntel,62.5,,,,,,,,,,,,,,,,,
,,,,,,,,,,,,0,3,3,3,1,fourth,1,22,female,mixed,at home,2021-07-02_09h33.58.886,ImageRatingTask_S5,2021.1.4,MacIntel,62.5,,,,,,,,,,,,,,,,,
,,,,,,,,,,,,0,4,4,4,1,fifth,1,22,female,mixed,at home,2021-07-02_09h33.58.886,ImageRatingTask_S5,2021.1.4,MacIntel,62.5,,,,,,,,,,,,,,,,,
,,,,,,,,,,,,0,5,5,5,1,sixth,1,22,female,mixed,at home,2021-07-02_09h33.58.886,ImageRatingTask_S5,2021.1.4,MacIntel,62.5,,,,,,,,,,,,,,,,,
,,,,,,,,,,,,0,6,6,6,1,seventh,1,22,female,mixed,at home,2021-07-02_09h33.58.886,ImageRatingTask_S5,2021.1.4,MacIntel,62.5,,,,,,,,,,,,,,,,,
,,,,,,,,,,,,0,7,7,7,1,last,1,22,female,mixed,at home,2021-07-02_09h33.58.886,ImageRatingTask_S5,2021.1.4,MacIntel,62.5,,,,,,,,,,,,,,,,,
,,,,,,,,,,,,,,,,,,1,22,female,mixed,at home,2021-07-02_09h33.58.886,ImageRatingTask_S5,2021.1.4,MacIntel,62.5,0,20,20,29,1,DreamStudyImages_rs1000x750g/Children/Sad face 2.jpg,,,,,,,,,,,
,,5,2.047,1,1.07,7,2.465,1,0.784,8,0.576,0,0,0,0,1,main,1,22,female,mixed,at home,2021-07-02_09h33.58.886,ImageRatingTask_S5,2021.1.4,MacIntel,62.5,,,,,,,,,,,,,,,,,
,,,,,,,,,,,,0,1,1,1,1,second,1,22,female,mixed,at home,2021-07-02_09h33.58.886,ImageRatingTask_S5,2021.1.4,MacIntel,62.5,,,,,,,,,,,,,,,,,
,,,,,,,,,,,,0,2,2,2,1,third,1,22,female,mixed,at home,2021-07-02_09h33.58.886,ImageRatingTask_S5,2021.1.4,MacIntel,62.5,,,,,,,,,,,,,,,,,
,,,,,,,,,,,,0,3,3,3,1,fourth,1,22,female,mixed,at home,2021-07-02_09h33.58.886,ImageRatingTask_S5,2021.1.4,MacIntel,62.5,,,,,,,,,,,,,,,,,
,,,,,,,,,,,,0,4,4,4,1,fifth,1,22,female,mixed,at home,2021-07-02_09h33.58.886,ImageRatingTask_S5,2021.1.4,MacIntel,62.5,,,,,,,,,,,,,,,,,
,,,,,,,,,,,,0,5,5,5,1,sixth,1,22,female,mixed,at home,2021-07-02_09h33.58.886,ImageRatingTask_S5,2021.1.4,MacIntel,62.5,,,,,,,,,,,,,,,,,
,,,,,,,,,,,,0,6,6,6,1,seventh,1,22,female,mixed,at home,2021-07-02_09h33.58.886,ImageRatingTask_S5,2021.1.4,MacIntel,62.5,,,,,,,,,,,,,,,,,
,,,,,,,,,,,,0,7,7,7,1,last,1,22,female,mixed,at home,2021-07-02_09h33.58.886,ImageRatingTask_S5,2021.1.4,MacIntel,62.5,,,,,,,,,,,,,,,,,
,,,,,,,,,,,,,,,,,,1,22,female,mixed,at home,2021-07-02_09h33.58.886,ImageRatingTask_S5,2021.1.4,MacIntel,62.5,0,21,21,76,1,DreamStudyImages_rs1000x750g/Water/Landscapes_145_h.jpg,,,,,,,,,,,
,,4,2.642,5,1.908,7,2.455,1,1.352,8,1.456,0,0,0,0,1,main,1,22,female,mixed,at home,2021-07-02_09h33.58.886,ImageRatingTask_S5,2021.1.4,MacIntel,62.5,,,,,,,,,,,,,,,,,
,,,,,,,,,,,,0,1,1,1,1,second,1,22,female,mixed,at home,2021-07-02_09h33.58.886,ImageRatingTask_S5,2021.1.4,MacIntel,62.5,,,,,,,,,,,,,,,,,
,,,,,,,,,,,,0,2,2,2,1,third,1,22,female,mixed,at home,2021-07-02_09h33.58.886,ImageRatingTask_S5,2021.1.4,MacIntel,62.5,,,,,,,,,,,,,,,,,
,,,,,,,,,,,,0,3,3,3,1,fourth,1,22,female,mixed,at home,2021-07-02_09h33.58.886,ImageRatingTask_S5,2021.1.4,MacIntel,62.5,,,,,,,,,,,,,,,,,
,,,,,,,,,,,,0,4,4,4,1,fifth,1,22,female,mixed,at home,2021-07-02_09h33.58.886,ImageRatingTask_S5,2021.1.4,MacIntel,62.5,,,,,,,,,,,,,,,,,
,,,,,,,,,,,,0,5,5,5,1,sixth,1,22,female,mixed,at home,2021-07-02_09h33.58.886,ImageRatingTask_S5,2021.1.4,MacIntel,62.5,,,,,,,,,,,,,,,,,
,,,,,,,,,,,,0,6,6,6,1,seventh,1,22,female,mixed,at home,2021-07-02_09h33.58.886,ImageRatingTask_S5,2021.1.4,MacIntel,62.5,,,,,,,,,,,,,,,,,
,,,,,,,,,,,,0,7,7,7,1,last,1,22,female,mixed,at home,2021-07-02_09h33.58.886,ImageRatingTask_S5,2021.1.4,MacIntel,62.5,,,,,,,,,,,,,,,,,
,,,,,,,,,,,,,,,,,,1,22,female,mixed,at home,2021-07-02_09h33.58.886,ImageRatingTask_S5,2021.1.4,MacIntel,62.5,0,22,22,25,1,DreamStudyImages_rs1000x750g/Water/Thunderstorm 11.jpg,,,,,,,,,,,
,,4,1.352,2,2.441,6,2.228,1,1.077,8,1.483,0,0,0,0,1,main,1,22,female,mixed,at home,2021-07-02_09h33.58.886,ImageRatingTask_S5,2021.1.4,MacIntel,62.5,,,,,,,,,,,,,,,,,
,,,,,,,,,,,,0,1,1,1,1,second,1,22,female,mixed,at home,2021-07-02_09h33.58.886,ImageRatingTask_S5,2021.1.4,MacIntel,62.5,,,,,,,,,,,,,,,,,
,,,,,,,,,,,,0,2,2,2,1,third,1,22,female,mixed,at home,2021-07-02_09h33.58.886,ImageRatingTask_S5,2021.1.4,MacIntel,62.5,,,,,,,,,,,,,,,,,
,,,,,,,,,,,,0,3,3,3,1,fourth,1,22,female,mixed,at home,2021-07-02_09h33.58.886,ImageRatingTask_S5,2021.1.4,MacIntel,62.5,,,,,,,,,,,,,,,,,
,,,,,,,,,,,,0,4,4,4,1,fifth,1,22,female,mixed,at home,2021-07-02_09h33.58.886,ImageRatingTask_S5,2021.1.4,MacIntel,62.5,,,,,,,,,,,,,,,,,
,,,,,,,,,,,,0,5,5,5,1,sixth,1,22,female,mixed,at home,2021-07-02_09h33.58.886,ImageRatingTask_S5,2021.1.4,MacIntel,62.5,,,,,,,,,,,,,,,,,
,,,,,,,,,,,,0,6,6,6,1,seventh,1,22,female,mixed,at home,2021-07-02_09h33.58.886,ImageRatingTask_S5,2021.1.4,MacIntel,62.5,,,,,,,,,,,,,,,,,
,,,,,,,,,,,,0,7,7,7,1,last,1,22,female,mixed,at home,2021-07-02_09h33.58.886,ImageRatingTask_S5,2021.1.4,MacIntel,62.5,,,,,,,,,,,,,,,,,
,,,,,,,,,,,,,,,,,,1,22,female,mixed,at home,2021-07-02_09h33.58.886,ImageRatingTask_S5,2021.1.4,MacIntel,62.5,0,23,23,57,1,DreamStudyImages_rs1000x750g/Water/Garbage dump 2.jpg,,,,,,,,,,,
,,5,3.966,1,0.413,6,1.717,0,1.318,,,0,0,0,0,1,main,1,22,female,mixed,at home,2021-07-02_09h33.58.886,ImageRatingTask_S5,2021.1.4,MacIntel,62.5,,,,,,,,,,,,,,,,,
,,,,,,,,,,,,0,1,1,1,1,second,1,22,female,mixed,at home,2021-07-02_09h33.58.886,ImageRatingTask_S5,2021.1.4,MacIntel,62.5,,,,,,,,,,,,,,,,,
,,,,,,,,,,,,0,2,2,2,1,third,1,22,female,mixed,at home,2021-07-02_09h33.58.886,ImageRatingTask_S5,2021.1.4,MacIntel,62.5,,,,,,,,,,,,,,,,,
,,,,,,,,,,,,0,3,3,3,1,fourth,1,22,female,mixed,at home,2021-07-02_09h33.58.886,ImageRatingTask_S5,2021.1.4,MacIntel,62.5,,,,,,,,,,,,,,,,,
,,,,,,,,,,,,0,4,4,4,1,fifth,1,22,female,mixed,at home,2021-07-02_09h33.58.886,ImageRatingTask_S5,2021.1.4,MacIntel,62.5,,,,,,,,,,,,,,,,,
,,,,,,,,,,,,0,5,5,5,1,sixth,1,22,female,mixed,at home,2021-07-02_09h33.58.886,ImageRatingTask_S5,2021.1.4,MacIntel,62.5,,,,,,,,,,,,,,,,,
,,,,,,,,,,,,0,6,6,6,1,seventh,1,22,female,mixed,at home,2021-07-02_09h33.58.886,ImageRatingTask_S5,2021.1.4,MacIntel,62.5,,,,,,,,,,,,,,,,,
,,,,,,,,,,,,0,7,7,7,1,last,1,22,female,mixed,at home,2021-07-02_09h33.58.886,ImageRatingTask_S5,2021.1.4,MacIntel,62.5,,,,,,,,,,,,,,,,,
,,,,,,,,,,,,,,,,,,1,22,female,mixed,at home,2021-07-02_09h33.58.886,ImageRatingTask_S5,2021.1.4,MacIntel,62.5,0,24,24,93,1,DreamStudyImages_rs1000x750g/Houses/Bar 2.jpg,,,,,,,,,,,
,,5,2.133,3,2.484,9,2.101,1,2.142,8,0.77,0,0,0,0,1,main,1,22,female,mixed,at home,2021-07-02_09h33.58.886,ImageRatingTask_S5,2021.1.4,MacIntel,62.5,,,,,,,,,,,,,,,,,
,,,,,,,,,,,,0,1,1,1,1,second,1,22,female,mixed,at home,2021-07-02_09h33.58.886,ImageRatingTask_S5,2021.1.4,MacIntel,62.5,,,,,,,,,,,,,,,,,
,,,,,,,,,,,,0,2,2,2,1,third,1,22,female,mixed,at home,2021-07-02_09h33.58.886,ImageRatingTask_S5,2021.1.4,MacIntel,62.5,,,,,,,,,,,,,,,,,
,,,,,,,,,,,,0,3,3,3,1,fourth,1,22,female,mixed,at home,2021-07-02_09h33.58.886,ImageRatingTask_S5,2021.1.4,MacIntel,62.5,,,,,,,,,,,,,,,,,
,,,,,,,,,,,,0,4,4,4,1,fifth,1,22,female,mixed,at home,2021-07-02_09h33.58.886,ImageRatingTask_S5,2021.1.4,MacIntel,62.5,,,,,,,,,,,,,,,,,
,,,,,,,,,,,,0,5,5,5,1,sixth,1,22,female,mixed,at home,2021-07-02_09h33.58.886,ImageRatingTask_S5,2021.1.4,MacIntel,62.5,,,,,,,,,,,,,,,,,
,,,,,,,,,,,,0,6,6,6,1,seventh,1,22,female,mixed,at home,2021-07-02_09h33.58.886,ImageRatingTask_S5,2021.1.4,MacIntel,62.5,,,,,,,,,,,,,,,,,
,,,,,,,,,,,,0,7,7,7,1,last,1,22,female,mixed,at home,2021-07-02_09h33.58.886,ImageRatingTask_S5,2021.1.4,MacIntel,62.5,,,,,,,,,,,,,,,,,
,,,,,,,,,,,,,,,,,,1,22,female,mixed,at home,2021-07-02_09h33.58.886,ImageRatingTask_S5,2021.1.4,MacIntel,62.5,0,25,25,14,1,DreamStudyImages_rs1000x750g/Water/NDPS155_lake2.jpg,,,,,,,,,,,
,,5,2.173,1,0.432,7,1.551,1,1.039,7,0.701,0,0,0,0,1,main,1,22,female,mixed,at home,2021-07-02_09h33.58.886,ImageRatingTask_S5,2021.1.4,MacIntel,62.5,,,,,,,,,,,,,,,,,
,,,,,,,,,,,,0,1,1,1,1,second,1,22,female,mixed,at home,2021-07-02_09h33.58.886,ImageRatingTask_S5,2021.1.4,MacIntel,62.5,,,,,,,,,,,,,,,,,
,,,,,,,,,,,,0,2,2,2,1,third,1,22,female,mixed,at home,2021-07-02_09h33.58.886,ImageRatingTask_S5,2021.1.4,MacIntel,62.5,,,,,,,,,,,,,,,,,
,,,,,,,,,,,,0,3,3,3,1,fourth,1,22,female,mixed,at home,2021-07-02_09h33.58.886,ImageRatingTask_S5,2021.1.4,MacIntel,62.5,,,,,,,,,,,,,,,,,
,,,,,,,,,,,,0,4,4,4,1,fifth,1,22,female,mixed,at home,2021-07-02_09h33.58.886,ImageRatingTask_S5,2021.1.4,MacIntel,62.5,,,,,,,,,,,,,,,,,
,,,,,,,,,,,,0,5,5,5,1,sixth,1,22,female,mixed,at home,2021-07-02_09h33.58.886,ImageRatingTask_S5,2021.1.4,MacIntel,62.5,,,,,,,,,,,,,,,,,
,,,,,,,,,,,,0,6,6,6,1,seventh,1,22,female,mixed,at home,2021-07-02_09h33.58.886,ImageRatingTask_S5,2021.1.4,MacIntel,62.5,,,,,,,,,,,,,,,,,
,,,,,,,,,,,,0,7,7,7,1,last,1,22,female,mixed,at home,2021-07-02_09h33.58.886,ImageRatingTask_S5,2021.1.4,MacIntel,62.5,,,,,,,,,,,,,,,,,
,,,,,,,,,,,,,,,,,,1,22,female,mixed,at home,2021-07-02_09h33.58.886,ImageRatingTask_S5,2021.1.4,MacIntel,62.5,0,26,26,155,1,DreamStudyImages_rs1000x750g/Vehicles/roadtrain.jpg,,,,,,,,,,,
,,4,1.781,1,1.451,8,3.139,1,1.209,7,1.02,0,0,0,0,1,main,1,22,female,mixed,at home,2021-07-02_09h33.58.886,ImageRatingTask_S5,2021.1.4,MacIntel,62.5,,,,,,,,,,,,,,,,,
,,,,,,,,,,,,0,1,1,1,1,second,1,22,female,mixed,at home,2021-07-02_09h33.58.886,ImageRatingTask_S5,2021.1.4,MacIntel,62.5,,,,,,,,,,,,,,,,,
,,,,,,,,,,,,0,2,2,2,1,third,1,22,female,mixed,at home,2021-07-02_09h33.58.886,ImageRatingTask_S5,2021.1.4,MacIntel,62.5,,,,,,,,,,,,,,,,,
,,,,,,,,,,,,0,3,3,3,1,fourth,1,22,female,mixed,at home,2021-07-02_09h33.58.886,ImageRatingTask_S5,2021.1.4,MacIntel,62.5,,,,,,,,,,,,,,,,,
,,,,,,,,,,,,0,4,4,4,1,fifth,1,22,female,mixed,at home,2021-07-02_09h33.58.886,ImageRatingTask_S5,2021.1.4,MacIntel,62.5,,,,,,,,,,,,,,,,,
,,,,,,,,,,,,0,5,5,5,1,sixth,1,22,female,mixed,at home,2021-07-02_09h33.58.886,ImageRatingTask_S5,2021.1.4,MacIntel,62.5,,,,,,,,,,,,,,,,,
,,,,,,,,,,,,0,6,6,6,1,seventh,1,22,female,mixed,at home,2021-07-02_09h33.58.886,ImageRatingTask_S5,2021.1.4,MacIntel,62.5,,,,,,,,,,,,,,,,,
,,,,,,,,,,,,0,7,7,7,1,last,1,22,female,mixed,at home,2021-07-02_09h33.58.886,ImageRatingTask_S5,2021.1.4,MacIntel,62.5,,,,,,,,,,,,,,,,,
,,,,,,,,,,,,,,,,,,1,22,female,mixed,at home,2021-07-02_09h33.58.886,ImageRatingTask_S5,2021.1.4,MacIntel,62.5,0,27,27,105,1,DreamStudyImages_rs1000x750g/Vehicles/Objects_277_h.jpg,,,,,,,,,,,
,,5,3.666,1,1.347,8,1.717,1,0.791,3,0.734,0,0,0,0,1,main,1,22,female,mixed,at home,2021-07-02_09h33.58.886,ImageRatingTask_S5,2021.1.4,MacIntel,62.5,,,,,,,,,,,,,,,,,
,,,,,,,,,,,,0,1,1,1,1,second,1,22,female,mixed,at home,2021-07-02_09h33.58.886,ImageRatingTask_S5,2021.1.4,MacIntel,62.5,,,,,,,,,,,,,,,,,
,,,,,,,,,,,,0,2,2,2,1,third,1,22,female,mixed,at home,2021-07-02_09h33.58.886,ImageRatingTask_S5,2021.1.4,MacIntel,62.5,,,,,,,,,,,,,,,,,
,,,,,,,,,,,,0,3,3,3,1,fourth,1,22,female,mixed,at home,2021-07-02_09h33.58.886,ImageRatingTask_S5,2021.1.4,MacIntel,62.5,,,,,,,,,,,,,,,,,
,,,,,,,,,,,,0,4,4,4,1,fifth,1,22,female,mixed,at home,2021-07-02_09h33.58.886,ImageRatingTask_S5,2021.1.4,MacIntel,62.5,,,,,,,,,,,,,,,,,
,,,,,,,,,,,,0,5,5,5,1,sixth,1,22,female,mixed,at home,2021-07-02_09h33.58.886,ImageRatingTask_S5,2021.1.4,MacIntel,62.5,,,,,,,,,,,,,,,,,
,,,,,,,,,,,,0,6,6,6,1,seventh,1,22,female,mixed,at home,2021-07-02_09h33.58.886,ImageRatingTask_S5,2021.1.4,MacIntel,62.5,,,,,,,,,,,,,,,,,
,,,,,,,,,,,,0,7,7,7,1,last,1,22,female,mixed,at home,2021-07-02_09h33.58.886,ImageRatingTask_S5,2021.1.4,MacIntel,62.5,,,,,,,,,,,,,,,,,
,,,,,,,,,,,,,,,,,,1,22,female,mixed,at home,2021-07-02_09h33.58.886,ImageRatingTask_S5,2021.1.4,MacIntel,62.5,0,28,28,128,1,DreamStudyImages_rs1000x750g/Mammals/IAPS1595_horse2.jpg,,,,,,,,,,,
,,5,5.389,3,0.717,9,3.829,1,2.538,7,1.011,0,0,0,0,1,main,1,22,female,mixed,at home,2021-07-02_09h33.58.886,ImageRatingTask_S5,2021.1.4,MacIntel,62.5,,,,,,,,,,,,,,,,,
,,,,,,,,,,,,0,1,1,1,1,second,1,22,female,mixed,at home,2021-07-02_09h33.58.886,ImageRatingTask_S5,2021.1.4,MacIntel,62.5,,,,,,,,,,,,,,,,,
,,,,,,,,,,,,0,2,2,2,1,third,1,22,female,mixed,at home,2021-07-02_09h33.58.886,ImageRatingTask_S5,2021.1.4,MacIntel,62.5,,,,,,,,,,,,,,,,,
,,,,,,,,,,,,0,3,3,3,1,fourth,1,22,female,mixed,at home,2021-07-02_09h33.58.886,ImageRatingTask_S5,2021.1.4,MacIntel,62.5,,,,,,,,,,,,,,,,,
,,,,,,,,,,,,0,4,4,4,1,fifth,1,22,female,mixed,at home,2021-07-02_09h33.58.886,ImageRatingTask_S5,2021.1.4,MacIntel,62.5,,,,,,,,,,,,,,,,,
,,,,,,,,,,,,0,5,5,5,1,sixth,1,22,female,mixed,at home,2021-07-02_09h33.58.886,ImageRatingTask_S5,2021.1.4,MacIntel,62.5,,,,,,,,,,,,,,,,,
,,,,,,,,,,,,0,6,6,6,1,seventh,1,22,female,mixed,at home,2021-07-02_09h33.58.886,ImageRatingTask_S5,2021.1.4,MacIntel,62.5,,,,,,,,,,,,,,,,,
,,,,,,,,,,,,0,7,7,7,1,last,1,22,female,mixed,at home,2021-07-02_09h33.58.886,ImageRatingTask_S5,2021.1.4,MacIntel,62.5,,,,,,,,,,,,,,,,,
,,,,,,,,,,,,,,,,,,1,22,female,mixed,at home,2021-07-02_09h33.58.886,ImageRatingTask_S5,2021.1.4,MacIntel,62.5,0,29,29,24,1,DreamStudyImages_rs1000x750g/Vehicles/monstertruck.jpg,,,,,,,,,,,
,,5,1.668,1,1.016,6,1.386,1,0.815,7,0.927,0,0,0,0,1,main,1,22,female,mixed,at home,2021-07-02_09h33.58.886,ImageRatingTask_S5,2021.1.4,MacIntel,62.5,,,,,,,,,,,,,,,,,
,,,,,,,,,,,,0,1,1,1,1,second,1,22,female,mixed,at home,2021-07-02_09h33.58.886,ImageRatingTask_S5,2021.1.4,MacIntel,62.5,,,,,,,,,,,,,,,,,
,,,,,,,,,,,,0,2,2,2,1,third,1,22,female,mixed,at home,2021-07-02_09h33.58.886,ImageRatingTask_S5,2021.1.4,MacIntel,62.5,,,,,,,,,,,,,,,,,
,,,,,,,,,,,,0,3,3,3,1,fourth,1,22,female,mixed,at home,2021-07-02_09h33.58.886,ImageRatingTask_S5,2021.1.4,MacIntel,62.5,,,,,,,,,,,,,,,,,
,,,,,,,,,,,,0,4,4,4,1,fifth,1,22,female,mixed,at home,2021-07-02_09h33.58.886,ImageRatingTask_S5,2021.1.4,MacIntel,62.5,,,,,,,,,,,,,,,,,
,,,,,,,,,,,,0,5,5,5,1,sixth,1,22,female,mixed,at home,2021-07-02_09h33.58.886,ImageRatingTask_S5,2021.1.4,MacIntel,62.5,,,,,,,,,,,,,,,,,
,,,,,,,,,,,,0,6,6,6,1,seventh,1,22,female,mixed,at home,2021-07-02_09h33.58.886,ImageRatingTask_S5,2021.1.4,MacIntel,62.5,,,,,,,,,,,,,,,,,
,,,,,,,,,,,,0,7,7,7,1,last,1,22,female,mixed,at home,2021-07-02_09h33.58.886,ImageRatingTask_S5,2021.1.4,MacIntel,62.5,,,,,,,,,,,,,,,,,
,,,,,,,,,,,,,,,,,,1,22,female,mixed,at home,2021-07-02_09h33.58.886,ImageRatingTask_S5,2021.1.4,MacIntel,62.5,0,30,30,1,1,DreamStudyImages_rs1000x750g/Vehicles/IAPS7039_train3.jpg,,,,,,,,,,,
,,6,1.531,2,2.086,9,1.916,1,0.552,3,0.589,0,0,0,0,1,main,1,22,female,mixed,at home,2021-07-02_09h33.58.886,ImageRatingTask_S5,2021.1.4,MacIntel,62.5,,,,,,,,,,,,,,,,,
,,,,,,,,,,,,0,1,1,1,1,second,1,22,female,mixed,at home,2021-07-02_09h33.58.886,ImageRatingTask_S5,2021.1.4,MacIntel,62.5,,,,,,,,,,,,,,,,,
,,,,,,,,,,,,0,2,2,2,1,third,1,22,female,mixed,at home,2021-07-02_09h33.58.886,ImageRatingTask_S5,2021.1.4,MacIntel,62.5,,,,,,,,,,,,,,,,,
,,,,,,,,,,,,0,3,3,3,1,fourth,1,22,female,mixed,at home,2021-07-02_09h33.58.886,ImageRatingTask_S5,2021.1.4,MacIntel,62.5,,,,,,,,,,,,,,,,,
,,,,,,,,,,,,0,4,4,4,1,fifth,1,22,female,mixed,at home,2021-07-02_09h33.58.886,ImageRatingTask_S5,2021.1.4,MacIntel,62.5,,,,,,,,,,,,,,,,,
,,,,,,,,,,,,0,5,5,5,1,sixth,1,22,female,mixed,at home,2021-07-02_09h33.58.886,ImageRatingTask_S5,2021.1.4,MacIntel,62.5,,,,,,,,,,,,,,,,,
,,,,,,,,,,,,0,6,6,6,1,seventh,1,22,female,mixed,at home,2021-07-02_09h33.58.886,ImageRatingTask_S5,2021.1.4,MacIntel,62.5,,,,,,,,,,,,,,,,,
,,,,,,,,,,,,0,7,7,7,1,last,1,22,female,mixed,at home,2021-07-02_09h33.58.886,ImageRatingTask_S5,2021.1.4,MacIntel,62.5,,,,,,,,,,,,,,,,,
,,,,,,,,,,,,,,,,,,1,22,female,mixed,at home,2021-07-02_09h33.58.886,ImageRatingTask_S5,2021.1.4,MacIntel,62.5,0,31,31,8,1,DreamStudyImages_rs1000x750g/Mammals/Animals_206_h_CHECK.jpg,,,,,,,,,,,
,,4,1.952,3,2.306,7,1.848,1,0.713,3,1.145,0,0,0,0,1,main,1,22,female,mixed,at home,2021-07-02_09h33.58.886,ImageRatingTask_S5,2021.1.4,MacIntel,62.5,,,,,,,,,,,,,,,,,
,,,,,,,,,,,,0,1,1,1,1,second,1,22,female,mixed,at home,2021-07-02_09h33.58.886,ImageRatingTask_S5,2021.1.4,MacIntel,62.5,,,,,,,,,,,,,,,,,
,,,,,,,,,,,,0,2,2,2,1,third,1,22,female,mixed,at home,2021-07-02_09h33.58.886,ImageRatingTask_S5,2021.1.4,MacIntel,62.5,,,,,,,,,,,,,,,,,
,,,,,,,,,,,,0,3,3,3,1,fourth,1,22,female,mixed,at home,2021-07-02_09h33.58.886,ImageRatingTask_S5,2021.1.4,MacIntel,62.5,,,,,,,,,,,,,,,,,
,,,,,,,,,,,,0,4,4,4,1,fifth,1,22,female,mixed,at home,2021-07-02_09h33.58.886,ImageRatingTask_S5,2021.1.4,MacIntel,62.5,,,,,,,,,,,,,,,,,
,,,,,,,,,,,,0,5,5,5,1,sixth,1,22,female,mixed,at home,2021-07-02_09h33.58.886,ImageRatingTask_S5,2021.1.4,MacIntel,62.5,,,,,,,,,,,,,,,,,
,,,,,,,,,,,,0,6,6,6,1,seventh,1,22,female,mixed,at home,2021-07-02_09h33.58.886,ImageRatingTask_S5,2021.1.4,MacIntel,62.5,,,,,,,,,,,,,,,,,
,,,,,,,,,,,,0,7,7,7,1,last,1,22,female,mixed,at home,2021-07-02_09h33.58.886,ImageRatingTask_S5,2021.1.4,MacIntel,62.5,,,,,,,,,,,,,,,,,
,,,,,,,,,,,,,,,,,,1,22,female,mixed,at home,2021-07-02_09h33.58.886,ImageRatingTask_S5,2021.1.4,MacIntel,62.5,0,32,32,108,1,DreamStudyImages_rs1000x750g/Mammals/Wolf 2.jpg,,,,,,,,,,,
,,7,3.783,1,0.967,5,3.116,1,0.838,8,2.067,0,0,0,0,1,main,1,22,female,mixed,at home,2021-07-02_09h33.58.886,ImageRatingTask_S5,2021.1.4,MacIntel,62.5,,,,,,,,,,,,,,,,,
,,,,,,,,,,,,0,1,1,1,1,second,1,22,female,mixed,at home,2021-07-02_09h33.58.886,ImageRatingTask_S5,2021.1.4,MacIntel,62.5,,,,,,,,,,,,,,,,,
,,,,,,,,,,,,0,2,2,2,1,third,1,22,female,mixed,at home,2021-07-02_09h33.58.886,ImageRatingTask_S5,2021.1.4,MacIntel,62.5,,,,,,,,,,,,,,,,,
,,,,,,,,,,,,0,3,3,3,1,fourth,1,22,female,mixed,at home,2021-07-02_09h33.58.886,ImageRatingTask_S5,2021.1.4,MacIntel,62.5,,,,,,,,,,,,,,,,,
,,,,,,,,,,,,0,4,4,4,1,fifth,1,22,female,mixed,at home,2021-07-02_09h33.58.886,ImageRatingTask_S5,2021.1.4,MacIntel,62.5,,,,,,,,,,,,,,,,,
,,,,,,,,,,,,0,5,5,5,1,sixth,1,22,female,mixed,at home,2021-07-02_09h33.58.886,ImageRatingTask_S5,2021.1.4,MacIntel,62.5,,,,,,,,,,,,,,,,,
,,,,,,,,,,,,0,6,6,6,1,seventh,1,22,female,mixed,at home,2021-07-02_09h33.58.886,ImageRatingTask_S5,2021.1.4,MacIntel,62.5,,,,,,,,,,,,,,,,,
,,,,,,,,,,,,0,7,7,7,1,last,1,22,female,mixed,at home,2021-07-02_09h33.58.886,ImageRatingTask_S5,2021.1.4,MacIntel,62.5,,,,,,,,,,,,,,,,,
,,,,,,,,,,,,,,,,,,1,22,female,mixed,at home,2021-07-02_09h33.58.886,ImageRatingTask_S5,2021.1.4,MacIntel,62.5,0,33,33,60,1,DreamStudyImages_rs1000x750g/Water/IAPS5760_lake.jpg,,,,,,,,,,,
,,3,3.056,3,2.241,6,2.336,1,2.317,6,1.039,0,0,0,0,1,main,1,22,female,mixed,at home,2021-07-02_09h33.58.886,ImageRatingTask_S5,2021.1.4,MacIntel,62.5,,,,,,,,,,,,,,,,,
,,,,,,,,,,,,0,1,1,1,1,second,1,22,female,mixed,at home,2021-07-02_09h33.58.886,ImageRatingTask_S5,2021.1.4,MacIntel,62.5,,,,,,,,,,,,,,,,,
,,,,,,,,,,,,0,2,2,2,1,third,1,22,female,mixed,at home,2021-07-02_09h33.58.886,ImageRatingTask_S5,2021.1.4,MacIntel,62.5,,,,,,,,,,,,,,,,,
,,,,,,,,,,,,0,3,3,3,1,fourth,1,22,female,mixed,at home,2021-07-02_09h33.58.886,ImageRatingTask_S5,2021.1.4,MacIntel,62.5,,,,,,,,,,,,,,,,,
,,,,,,,,,,,,0,4,4,4,1,fifth,1,22,female,mixed,at home,2021-07-02_09h33.58.886,ImageRatingTask_S5,2021.1.4,MacIntel,62.5,,,,,,,,,,,,,,,,,
,,,,,,,,,,,,0,5,5,5,1,sixth,1,22,female,mixed,at home,2021-07-02_09h33.58.886,ImageRatingTask_S5,2021.1.4,MacIntel,62.5,,,,,,,,,,,,,,,,,
,,,,,,,,,,,,0,6,6,6,1,seventh,1,22,female,mixed,at home,2021-07-02_09h33.58.886,ImageRatingTask_S5,2021.1.4,MacIntel,62.5,,,,,,,,,,,,,,,,,
,,,,,,,,,,,,0,7,7,7,1,last,1,22,female,mixed,at home,2021-07-02_09h33.58.886,ImageRatingTask_S5,2021.1.4,MacIntel,62.5,,,,,,,,,,,,,,,,,
,,,,,,,,,,,,,,,,,,1,22,female,mixed,at home,2021-07-02_09h33.58.886,ImageRatingTask_S5,2021.1.4,MacIntel,62.5,0,34,34,34,1,DreamStudyImages_rs1000x750g/Houses/NDPS111_houses8_CROPPED.jpg,,,,,,,,,,,
,,5,2.879,1,0.522,7,1.493,1,0.709,6,1.009,0,0,0,0,1,main,1,22,female,mixed,at home,2021-07-02_09h33.58.886,ImageRatingTask_S5,2021.1.4,MacIntel,62.5,,,,,,,,,,,,,,,,,
,,,,,,,,,,,,0,1,1,1,1,second,1,22,female,mixed,at home,2021-07-02_09h33.58.886,ImageRatingTask_S5,2021.1.4,MacIntel,62.5,,,,,,,,,,,,,,,,,
,,,,,,,,,,,,0,2,2,2,1,third,1,22,female,mixed,at home,2021-07-02_09h33.58.886,ImageRatingTask_S5,2021.1.4,MacIntel,62.5,,,,,,,,,,,,,,,,,
,,,,,,,,,,,,0,3,3,3,1,fourth,1,22,female,mixed,at home,2021-07-02_09h33.58.886,ImageRatingTask_S5,2021.1.4,MacIntel,62.5,,,,,,,,,,,,,,,,,
,,,,,,,,,,,,0,4,4,4,1,fifth,1,22,female,mixed,at home,2021-07-02_09h33.58.886,ImageRatingTask_S5,2021.1.4,MacIntel,62.5,,,,,,,,,,,,,,,,,
,,,,,,,,,,,,0,5,5,5,1,sixth,1,22,female,mixed,at home,2021-07-02_09h33.58.886,ImageRatingTask_S5,2021.1.4,MacIntel,62.5,,,,,,,,,,,,,,,,,
,,,,,,,,,,,,0,6,6,6,1,seventh,1,22,female,mixed,at home,2021-07-02_09h33.58.886,ImageRatingTask_S5,2021.1.4,MacIntel,62.5,,,,,,,,,,,,,,,,,
,,,,,,,,,,,,0,7,7,7,1,last,1,22,female,mixed,at home,2021-07-02_09h33.58.886,ImageRatingTask_S5,2021.1.4,MacIntel,62.5,,,,,,,,,,,,,,,,,
,,,,,,,,,,,,,,,,,,1,22,female,mixed,at home,2021-07-02_09h33.58.886,ImageRatingTask_S5,2021.1.4,MacIntel,62.5,0,35,35,26,1,DreamStudyImages_rs1000x750g/Houses/Landscapes_050_h.jpg,,,,,,,,,,,
,,7,2.595,2,1.248,7,1.65,1,0.69,5,0.625,0,0,0,0,1,main,1,22,female,mixed,at home,2021-07-02_09h33.58.886,ImageRatingTask_S5,2021.1.4,MacIntel,62.5,,,,,,,,,,,,,,,,,
,,,,,,,,,,,,0,1,1,1,1,second,1,22,female,mixed,at home,2021-07-02_09h33.58.886,ImageRatingTask_S5,2021.1.4,MacIntel,62.5,,,,,,,,,,,,,,,,,
,,,,,,,,,,,,0,2,2,2,1,third,1,22,female,mixed,at home,2021-07-02_09h33.58.886,ImageRatingTask_S5,2021.1.4,MacIntel,62.5,,,,,,,,,,,,,,,,,
,,,,,,,,,,,,0,3,3,3,1,fourth,1,22,female,mixed,at home,2021-07-02_09h33.58.886,ImageRatingTask_S5,2021.1.4,MacIntel,62.5,,,,,,,,,,,,,,,,,
,,,,,,,,,,,,0,4,4,4,1,fifth,1,22,female,mixed,at home,2021-07-02_09h33.58.886,ImageRatingTask_S5,2021.1.4,MacIntel,62.5,,,,,,,,,,,,,,,,,
,,,,,,,,,,,,0,5,5,5,1,sixth,1,22,female,mixed,at home,2021-07-02_09h33.58.886,ImageRatingTask_S5,2021.1.4,MacIntel,62.5,,,,,,,,,,,,,,,,,
,,,,,,,,,,,,0,6,6,6,1,seventh,1,22,female,mixed,at home,2021-07-02_09h33.58.886,ImageRatingTask_S5,2021.1.4,MacIntel,62.5,,,,,,,,,,,,,,,,,
,,,,,,,,,,,,0,7,7,7,1,last,1,22,female,mixed,at home,2021-07-02_09h33.58.886,ImageRatingTask_S5,2021.1.4,MacIntel,62.5,,,,,,,,,,,,,,,,,
,,,,,,,,,,,,,,,,,,1,22,female,mixed,at home,2021-07-02_09h33.58.886,ImageRatingTask_S5,2021.1.4,MacIntel,62.5,0,36,36,151,1,DreamStudyImages_rs1000x750g/Food/Objects_072_v.jpg,,,,,,,,,,,
,,4,2.468,3,5.515,9,6.054,1,3.621,3,0.94,0,0,0,0,1,main,1,22,female,mixed,at home,2021-07-02_09h33.58.886,ImageRatingTask_S5,2021.1.4,MacIntel,62.5,,,,,,,,,,,,,,,,,
,,,,,,,,,,,,0,1,1,1,1,second,1,22,female,mixed,at home,2021-07-02_09h33.58.886,ImageRatingTask_S5,2021.1.4,MacIntel,62.5,,,,,,,,,,,,,,,,,
,,,,,,,,,,,,0,2,2,2,1,third,1,22,female,mixed,at home,2021-07-02_09h33.58.886,ImageRatingTask_S5,2021.1.4,MacIntel,62.5,,,,,,,,,,,,,,,,,
,,,,,,,,,,,,0,3,3,3,1,fourth,1,22,female,mixed,at home,2021-07-02_09h33.58.886,ImageRatingTask_S5,2021.1.4,MacIntel,62.5,,,,,,,,,,,,,,,,,
,,,,,,,,,,,,0,4,4,4,1,fifth,1,22,female,mixed,at home,2021-07-02_09h33.58.886,ImageRatingTask_S5,2021.1.4,MacIntel,62.5,,,,,,,,,,,,,,,,,
,,,,,,,,,,,,0,5,5,5,1,sixth,1,22,female,mixed,at home,2021-07-02_09h33.58.886,ImageRatingTask_S5,2021.1.4,MacIntel,62.5,,,,,,,,,,,,,,,,,
,,,,,,,,,,,,0,6,6,6,1,seventh,1,22,female,mixed,at home,2021-07-02_09h33.58.886,ImageRatingTask_S5,2021.1.4,MacIntel,62.5,,,,,,,,,,,,,,,,,
,,,,,,,,,,,,0,7,7,7,1,last,1,22,female,mixed,at home,2021-07-02_09h33.58.886,ImageRatingTask_S5,2021.1.4,MacIntel,62.5,,,,,,,,,,,,,,,,,
,,,,,,,,,,,,,,,,,,1,22,female,mixed,at home,2021-07-02_09h33.58.886,ImageRatingTask_S5,2021.1.4,MacIntel,62.5,0,37,37,30,1,DreamStudyImages_rs1000x750g/Mammals/Animals_012_h.jpg,,,,,,,,,,,
,,4,8.64,1,4.849,8,3.118,1,1.288,8,0.789,0,0,0,0,1,main,1,22,female,mixed,at home,2021-07-02_09h33.58.886,ImageRatingTask_S5,2021.1.4,MacIntel,62.5,,,,,,,,,,,,,,,,,
,,,,,,,,,,,,0,1,1,1,1,second,1,22,female,mixed,at home,2021-07-02_09h33.58.886,ImageRatingTask_S5,2021.1.4,MacIntel,62.5,,,,,,,,,,,,,,,,,
,,,,,,,,,,,,0,2,2,2,1,third,1,22,female,mixed,at home,2021-07-02_09h33.58.886,ImageRatingTask_S5,2021.1.4,MacIntel,62.5,,,,,,,,,,,,,,,,,
,,,,,,,,,,,,0,3,3,3,1,fourth,1,22,female,mixed,at home,2021-07-02_09h33.58.886,ImageRatingTask_S5,2021.1.4,MacIntel,62.5,,,,,,,,,,,,,,,,,
,,,,,,,,,,,,0,4,4,4,1,fifth,1,22,female,mixed,at home,2021-07-02_09h33.58.886,ImageRatingTask_S5,2021.1.4,MacIntel,62.5,,,,,,,,,,,,,,,,,
,,,,,,,,,,,,0,5,5,5,1,sixth,1,22,female,mixed,at home,2021-07-02_09h33.58.886,ImageRatingTask_S5,2021.1.4,MacIntel,62.5,,,,,,,,,,,,,,,,,
,,,,,,,,,,,,0,6,6,6,1,seventh,1,22,female,mixed,at home,2021-07-02_09h33.58.886,ImageRatingTask_S5,2021.1.4,MacIntel,62.5,,,,,,,,,,,,,,,,,
,,,,,,,,,,,,0,7,7,7,1,last,1,22,female,mixed,at home,2021-07-02_09h33.58.886,ImageRatingTask_S5,2021.1.4,MacIntel,62.5,,,,,,,,,,,,,,,,,
,,,,,,,,,,,,,,,,,,1,22,female,mixed,at home,2021-07-02_09h33.58.886,ImageRatingTask_S5,2021.1.4,MacIntel,62.5,0,38,38,45,1,DreamStudyImages_rs1000x750g/Water/landscapes_181_h_EDITED.jpg,,,,,,,,,,,
,,3,5.138,3,2.028,9,1.418,1,1.95,2,0.991,0,0,0,0,1,main,1,22,female,mixed,at home,2021-07-02_09h33.58.886,ImageRatingTask_S5,2021.1.4,MacIntel,62.5,,,,,,,,,,,,,,,,,
,,,,,,,,,,,,0,1,1,1,1,second,1,22,female,mixed,at home,2021-07-02_09h33.58.886,ImageRatingTask_S5,2021.1.4,MacIntel,62.5,,,,,,,,,,,,,,,,,
,,,,,,,,,,,,0,2,2,2,1,third,1,22,female,mixed,at home,2021-07-02_09h33.58.886,ImageRatingTask_S5,2021.1.4,MacIntel,62.5,,,,,,,,,,,,,,,,,
,,,,,,,,,,,,0,3,3,3,1,fourth,1,22,female,mixed,at home,2021-07-02_09h33.58.886,ImageRatingTask_S5,2021.1.4,MacIntel,62.5,,,,,,,,,,,,,,,,,
,,,,,,,,,,,,0,4,4,4,1,fifth,1,22,female,mixed,at home,2021-07-02_09h33.58.886,ImageRatingTask_S5,2021.1.4,MacIntel,62.5,,,,,,,,,,,,,,,,,
,,,,,,,,,,,,0,5,5,5,1,sixth,1,22,female,mixed,at home,2021-07-02_09h33.58.886,ImageRatingTask_S5,2021.1.4,MacIntel,62.5,,,,,,,,,,,,,,,,,
,,,,,,,,,,,,0,6,6,6,1,seventh,1,22,female,mixed,at home,2021-07-02_09h33.58.886,ImageRatingTask_S5,2021.1.4,MacIntel,62.5,,,,,,,,,,,,,,,,,
,,,,,,,,,,,,0,7,7,7,1,last,1,22,female,mixed,at home,2021-07-02_09h33.58.886,ImageRatingTask_S5,2021.1.4,MacIntel,62.5,,,,,,,,,,,,,,,,,
,,,,,,,,,,,,,,,,,,1,22,female,mixed,at home,2021-07-02_09h33.58.886,ImageRatingTask_S5,2021.1.4,MacIntel,62.5,0,39,39,139,1,DreamStudyImages_rs1000x750g/Children/Faces_015_h.jpg,,,,,,,,,,,
,,2,3.192,6,1.749,3,2.186,1,2.089,7,1.431,0,0,0,0,1,main,1,22,female,mixed,at home,2021-07-02_09h33.58.886,ImageRatingTask_S5,2021.1.4,MacIntel,62.5,,,,,,,,,,,,,,,,,
,,,,,,,,,,,,0,1,1,1,1,second,1,22,female,mixed,at home,2021-07-02_09h33.58.886,ImageRatingTask_S5,2021.1.4,MacIntel,62.5,,,,,,,,,,,,,,,,,
,,,,,,,,,,,,0,2,2,2,1,third,1,22,female,mixed,at home,2021-07-02_09h33.58.886,ImageRatingTask_S5,2021.1.4,MacIntel,62.5,,,,,,,,,,,,,,,,,
,,,,,,,,,,,,0,3,3,3,1,fourth,1,22,female,mixed,at home,2021-07-02_09h33.58.886,ImageRatingTask_S5,2021.1.4,MacIntel,62.5,,,,,,,,,,,,,,,,,
,,,,,,,,,,,,0,4,4,4,1,fifth,1,22,female,mixed,at home,2021-07-02_09h33.58.886,ImageRatingTask_S5,2021.1.4,MacIntel,62.5,,,,,,,,,,,,,,,,,
,,,,,,,,,,,,0,5,5,5,1,sixth,1,22,female,mixed,at home,2021-07-02_09h33.58.886,ImageRatingTask_S5,2021.1.4,MacIntel,62.5,,,,,,,,,,,,,,,,,
,,,,,,,,,,,,0,6,6,6,1,seventh,1,22,female,mixed,at home,2021-07-02_09h33.58.886,ImageRatingTask_S5,2021.1.4,MacIntel,62.5,,,,,,,,,,,,,,,,,
,,,,,,,,,,,,0,7,7,7,1,last,1,22,female,mixed,at home,2021-07-02_09h33.58.886,ImageRatingTask_S5,2021.1.4,MacIntel,62.5,,,,,,,,,,,,,,,,,
,,,,,,,,,,,,,,,,,,1,22,female,mixed,at home,2021-07-02_09h33.58.886,ImageRatingTask_S5,2021.1.4,MacIntel,62.5,0,40,40,91,1,DreamStudyImages_rs1000x750g/Vehicles/Tornado 1.jpg,,,,,,,,,,,
,,5,3.338,1,1.081,7,2.44,1,1.131,5,0.781,0,0,0,0,1,main,1,22,female,mixed,at home,2021-07-02_09h33.58.886,ImageRatingTask_S5,2021.1.4,MacIntel,62.5,,,,,,,,,,,,,,,,,
,,,,,,,,,,,,0,1,1,1,1,second,1,22,female,mixed,at home,2021-07-02_09h33.58.886,ImageRatingTask_S5,2021.1.4,MacIntel,62.5,,,,,,,,,,,,,,,,,
,,,,,,,,,,,,0,2,2,2,1,third,1,22,female,mixed,at home,2021-07-02_09h33.58.886,ImageRatingTask_S5,2021.1.4,MacIntel,62.5,,,,,,,,,,,,,,,,,
,,,,,,,,,,,,0,3,3,3,1,fourth,1,22,female,mixed,at home,2021-07-02_09h33.58.886,ImageRatingTask_S5,2021.1.4,MacIntel,62.5,,,,,,,,,,,,,,,,,
,,,,,,,,,,,,0,4,4,4,1,fifth,1,22,female,mixed,at home,2021-07-02_09h33.58.886,ImageRatingTask_S5,2021.1.4,MacIntel,62.5,,,,,,,,,,,,,,,,,
,,,,,,,,,,,,0,5,5,5,1,sixth,1,22,female,mixed,at home,2021-07-02_09h33.58.886,ImageRatingTask_S5,2021.1.4,MacIntel,62.5,,,,,,,,,,,,,,,,,
,,,,,,,,,,,,0,6,6,6,1,seventh,1,22,female,mixed,at home,2021-07-02_09h33.58.886,ImageRatingTask_S5,2021.1.4,MacIntel,62.5,,,,,,,,,,,,,,,,,
,,,,,,,,,,,,0,7,7,7,1,last,1,22,female,mixed,at home,2021-07-02_09h33.58.886,ImageRatingTask_S5,2021.1.4,MacIntel,62.5,,,,,,,,,,,,,,,,,
,,,,,,,,,,,,,,,,,,1,22,female,mixed,at home,2021-07-02_09h33.58.886,ImageRatingTask_S5,2021.1.4,MacIntel,62.5,0,41,41,94,1,DreamStudyImages_rs1000x750g/Food/Objects_098_v.jpg,,,,,,,,,,,
,,7,1.458,2,2.762,7,1.489,1,0.659,8,0.682,0,0,0,0,1,main,1,22,female,mixed,at home,2021-07-02_09h33.58.886,ImageRatingTask_S5,2021.1.4,MacIntel,62.5,,,,,,,,,,,,,,,,,
,,,,,,,,,,,,0,1,1,1,1,second,1,22,female,mixed,at home,2021-07-02_09h33.58.886,ImageRatingTask_S5,2021.1.4,MacIntel,62.5,,,,,,,,,,,,,,,,,
,,,,,,,,,,,,0,2,2,2,1,third,1,22,female,mixed,at home,2021-07-02_09h33.58.886,ImageRatingTask_S5,2021.1.4,MacIntel,62.5,,,,,,,,,,,,,,,,,
,,,,,,,,,,,,0,3,3,3,1,fourth,1,22,female,mixed,at home,2021-07-02_09h33.58.886,ImageRatingTask_S5,2021.1.4,MacIntel,62.5,,,,,,,,,,,,,,,,,
,,,,,,,,,,,,0,4,4,4,1,fifth,1,22,female,mixed,at home,2021-07-02_09h33.58.886,ImageRatingTask_S5,2021.1.4,MacIntel,62.5,,,,,,,,,,,,,,,,,
,,,,,,,,,,,,0,5,5,5,1,sixth,1,22,female,mixed,at home,2021-07-02_09h33.58.886,ImageRatingTask_S5,2021.1.4,MacIntel,62.5,,,,,,,,,,,,,,,,,
,,,,,,,,,,,,0,6,6,6,1,seventh,1,22,female,mixed,at home,2021-07-02_09h33.58.886,ImageRatingTask_S5,2021.1.4,MacIntel,62.5,,,,,,,,,,,,,,,,,
,,,,,,,,,,,,0,7,7,7,1,last,1,22,female,mixed,at home,2021-07-02_09h33.58.886,ImageRatingTask_S5,2021.1.4,MacIntel,62.5,,,,,,,,,,,,,,,,,
,,,,,,,,,,,,,,,,,,1,22,female,mixed,at home,2021-07-02_09h33.58.886,ImageRatingTask_S5,2021.1.4,MacIntel,62.5,0,42,42,112,1,DreamStudyImages_rs1000x750g/Water/waveonrocks.jpg,,,,,,,,,,,
,,4,3.903,1,0.932,7,1.794,1,0.786,8,0.971,0,0,0,0,1,main,1,22,female,mixed,at home,2021-07-02_09h33.58.886,ImageRatingTask_S5,2021.1.4,MacIntel,62.5,,,,,,,,,,,,,,,,,
,,,,,,,,,,,,0,1,1,1,1,second,1,22,female,mixed,at home,2021-07-02_09h33.58.886,ImageRatingTask_S5,2021.1.4,MacIntel,62.5,,,,,,,,,,,,,,,,,
,,,,,,,,,,,,0,2,2,2,1,third,1,22,female,mixed,at home,2021-07-02_09h33.58.886,ImageRatingTask_S5,2021.1.4,MacIntel,62.5,,,,,,,,,,,,,,,,,
,,,,,,,,,,,,0,3,3,3,1,fourth,1,22,female,mixed,at home,2021-07-02_09h33.58.886,ImageRatingTask_S5,2021.1.4,MacIntel,62.5,,,,,,,,,,,,,,,,,
,,,,,,,,,,,,0,4,4,4,1,fifth,1,22,female,mixed,at home,2021-07-02_09h33.58.886,ImageRatingTask_S5,2021.1.4,MacIntel,62.5,,,,,,,,,,,,,,,,,
,,,,,,,,,,,,0,5,5,5,1,sixth,1,22,female,mixed,at home,2021-07-02_09h33.58.886,ImageRatingTask_S5,2021.1.4,MacIntel,62.5,,,,,,,,,,,,,,,,,
,,,,,,,,,,,,0,6,6,6,1,seventh,1,22,female,mixed,at home,2021-07-02_09h33.58.886,ImageRatingTask_S5,2021.1.4,MacIntel,62.5,,,,,,,,,,,,,,,,,
,,,,,,,,,,,,0,7,7,7,1,last,1,22,female,mixed,at home,2021-07-02_09h33.58.886,ImageRatingTask_S5,2021.1.4,MacIntel,62.5,,,,,,,,,,,,,,,,,
,,,,,,,,,,,,,,,,,,1,22,female,mixed,at home,2021-07-02_09h33.58.886,ImageRatingTask_S5,2021.1.4,MacIntel,62.5,0,43,43,37,1,DreamStudyImages_rs1000x750g/Water/IAPS2446_mudpuddle.jpg,,,,,,,,,,,
,,5,3.777,1,3.728,9,1.649,1,0.82,6,0.879,0,0,0,0,1,main,1,22,female,mixed,at home,2021-07-02_09h33.58.886,ImageRatingTask_S5,2021.1.4,MacIntel,62.5,,,,,,,,,,,,,,,,,
,,,,,,,,,,,,0,1,1,1,1,second,1,22,female,mixed,at home,2021-07-02_09h33.58.886,ImageRatingTask_S5,2021.1.4,MacIntel,62.5,,,,,,,,,,,,,,,,,
,,,,,,,,,,,,0,2,2,2,1,third,1,22,female,mixed,at home,2021-07-02_09h33.58.886,ImageRatingTask_S5,2021.1.4,MacIntel,62.5,,,,,,,,,,,,,,,,,
,,,,,,,,,,,,0,3,3,3,1,fourth,1,22,female,mixed,at home,2021-07-02_09h33.58.886,ImageRatingTask_S5,2021.1.4,MacIntel,62.5,,,,,,,,,,,,,,,,,
,,,,,,,,,,,,0,4,4,4,1,fifth,1,22,female,mixed,at home,2021-07-02_09h33.58.886,ImageRatingTask_S5,2021.1.4,MacIntel,62.5,,,,,,,,,,,,,,,,,
,,,,,,,,,,,,0,5,5,5,1,sixth,1,22,female,mixed,at home,2021-07-02_09h33.58.886,ImageRatingTask_S5,2021.1.4,MacIntel,62.5,,,,,,,,,,,,,,,,,
,,,,,,,,,,,,0,6,6,6,1,seventh,1,22,female,mixed,at home,2021-07-02_09h33.58.886,ImageRatingTask_S5,2021.1.4,MacIntel,62.5,,,,,,,,,,,,,,,,,
,,,,,,,,,,,,0,7,7,7,1,last,1,22,female,mixed,at home,2021-07-02_09h33.58.886,ImageRatingTask_S5,2021.1.4,MacIntel,62.5,,,,,,,,,,,,,,,,,
,,,,,,,,,,,,,,,,,,1,22,female,mixed,at home,2021-07-02_09h33.58.886,ImageRatingTask_S5,2021.1.4,MacIntel,62.5,0,44,44,130,1,DreamStudyImages_rs1000x750g/Houses/Landscapes_041_h.jpg,,,,,,,,,,,
,,5,4.278,1,4.946,9,5.343,1,5.401,5,0.845,0,0,0,0,1,main,1,22,female,mixed,at home,2021-07-02_09h33.58.886,ImageRatingTask_S5,2021.1.4,MacIntel,62.5,,,,,,,,,,,,,,,,,
,,,,,,,,,,,,0,1,1,1,1,second,1,22,female,mixed,at home,2021-07-02_09h33.58.886,ImageRatingTask_S5,2021.1.4,MacIntel,62.5,,,,,,,,,,,,,,,,,
,,,,,,,,,,,,0,2,2,2,1,third,1,22,female,mixed,at home,2021-07-02_09h33.58.886,ImageRatingTask_S5,2021.1.4,MacIntel,62.5,,,,,,,,,,,,,,,,,
,,,,,,,,,,,,0,3,3,3,1,fourth,1,22,female,mixed,at home,2021-07-02_09h33.58.886,ImageRatingTask_S5,2021.1.4,MacIntel,62.5,,,,,,,,,,,,,,,,,
,,,,,,,,,,,,0,4,4,4,1,fifth,1,22,female,mixed,at home,2021-07-02_09h33.58.886,ImageRatingTask_S5,2021.1.4,MacIntel,62.5,,,,,,,,,,,,,,,,,
,,,,,,,,,,,,0,5,5,5,1,sixth,1,22,female,mixed,at home,2021-07-02_09h33.58.886,ImageRatingTask_S5,2021.1.4,MacIntel,62.5,,,,,,,,,,,,,,,,,
,,,,,,,,,,,,0,6,6,6,1,seventh,1,22,female,mixed,at home,2021-07-02_09h33.58.886,ImageRatingTask_S5,2021.1.4,MacIntel,62.5,,,,,,,,,,,,,,,,,
,,,,,,,,,,,,0,7,7,7,1,last,1,22,female,mixed,at home,2021-07-02_09h33.58.886,ImageRatingTask_S5,2021.1.4,MacIntel,62.5,,,,,,,,,,,,,,,,,
,,,,,,,,,,,,,,,,,,1,22,female,mixed,at home,2021-07-02_09h33.58.886,ImageRatingTask_S5,2021.1.4,MacIntel,62.5,0,45,45,9,1,DreamStudyImages_rs1000x750g/Food/Objects_020_h.jpg,,,,,,,,,,,
,,5,4.201,1,0.582,4,1.355,2,0.974,8,2.84,0,0,0,0,1,main,1,22,female,mixed,at home,2021-07-02_09h33.58.886,ImageRatingTask_S5,2021.1.4,MacIntel,62.5,,,,,,,,,,,,,,,,,
,,,,,,,,,,7,0.462,0,1,1,1,1,second,1,22,female,mixed,at home,2021-07-02_09h33.58.886,ImageRatingTask_S5,2021.1.4,MacIntel,62.5,,,,,,,,,,,,,,,,,
,,,,,,,,,,,,0,2,2,2,1,third,1,22,female,mixed,at home,2021-07-02_09h33.58.886,ImageRatingTask_S5,2021.1.4,MacIntel,62.5,,,,,,,,,,,,,,,,,
,,,,,,,,,,,,0,3,3,3,1,fourth,1,22,female,mixed,at home,2021-07-02_09h33.58.886,ImageRatingTask_S5,2021.1.4,MacIntel,62.5,,,,,,,,,,,,,,,,,
,,,,,,,,,,,,0,4,4,4,1,fifth,1,22,female,mixed,at home,2021-07-02_09h33.58.886,ImageRatingTask_S5,2021.1.4,MacIntel,62.5,,,,,,,,,,,,,,,,,
,,,,,,,,,,,,0,5,5,5,1,sixth,1,22,female,mixed,at home,2021-07-02_09h33.58.886,ImageRatingTask_S5,2021.1.4,MacIntel,62.5,,,,,,,,,,,,,,,,,
,,,,,,,,,,,,0,6,6,6,1,seventh,1,22,female,mixed,at home,2021-07-02_09h33.58.886,ImageRatingTask_S5,2021.1.4,MacIntel,62.5,,,,,,,,,,,,,,,,,
,,,,,,,,,,,,0,7,7,7,1,last,1,22,female,mixed,at home,2021-07-02_09h33.58.886,ImageRatingTask_S5,2021.1.4,MacIntel,62.5,,,,,,,,,,,,,,,,,
,,,,,,,,,,,,,,,,,,1,22,female,mixed,at home,2021-07-02_09h33.58.886,ImageRatingTask_S5,2021.1.4,MacIntel,62.5,0,46,46,20,1,DreamStudyImages_rs1000x750g/Water/IAPS7036_harbour_CROPPED.jpg,,,,,,,,,,,
,,5,3.441,1,1.015,6,2.622,1,0.667,8,3.416,0,0,0,0,1,main,1,22,female,mixed,at home,2021-07-02_09h33.58.886,ImageRatingTask_S5,2021.1.4,MacIntel,62.5,,,,,,,,,,,,,,,,,
,,,,,,,,,,,,0,1,1,1,1,second,1,22,female,mixed,at home,2021-07-02_09h33.58.886,ImageRatingTask_S5,2021.1.4,MacIntel,62.5,,,,,,,,,,,,,,,,,
,,,,,,,,,,,,0,2,2,2,1,third,1,22,female,mixed,at home,2021-07-02_09h33.58.886,ImageRatingTask_S5,2021.1.4,MacIntel,62.5,,,,,,,,,,,,,,,,,
,,,,,,,,,,,,0,3,3,3,1,fourth,1,22,female,mixed,at home,2021-07-02_09h33.58.886,ImageRatingTask_S5,2021.1.4,MacIntel,62.5,,,,,,,,,,,,,,,,,
,,,,,,,,,,,,0,4,4,4,1,fifth,1,22,female,mixed,at home,2021-07-02_09h33.58.886,ImageRatingTask_S5,2021.1.4,MacIntel,62.5,,,,,,,,,,,,,,,,,
,,,,,,,,,,,,0,5,5,5,1,sixth,1,22,female,mixed,at home,2021-07-02_09h33.58.886,ImageRatingTask_S5,2021.1.4,MacIntel,62.5,,,,,,,,,,,,,,,,,
,,,,,,,,,,,,0,6,6,6,1,seventh,1,22,female,mixed,at home,2021-07-02_09h33.58.886,ImageRatingTask_S5,2021.1.4,MacIntel,62.5,,,,,,,,,,,,,,,,,
,,,,,,,,,,,,0,7,7,7,1,last,1,22,female,mixed,at home,2021-07-02_09h33.58.886,ImageRatingTask_S5,2021.1.4,MacIntel,62.5,,,,,,,,,,,,,,,,,
,,,,,,,,,,,,,,,,,,1,22,female,mixed,at home,2021-07-02_09h33.58.886,ImageRatingTask_S5,2021.1.4,MacIntel,62.5,0,47,47,5,1,DreamStudyImages_rs1000x750g/Water/Landscapes_115_v.jpg,,,,,,,,,,,
,,4,3.679,2,1.368,9,4.716,1,5.528,3,0.759,0,0,0,0,1,main,1,22,female,mixed,at home,2021-07-02_09h33.58.886,ImageRatingTask_S5,2021.1.4,MacIntel,62.5,,,,,,,,,,,,,,,,,
,,,,,,,,,,,,0,1,1,1,1,second,1,22,female,mixed,at home,2021-07-02_09h33.58.886,ImageRatingTask_S5,2021.1.4,MacIntel,62.5,,,,,,,,,,,,,,,,,
,,,,,,,,,,,,0,2,2,2,1,third,1,22,female,mixed,at home,2021-07-02_09h33.58.886,ImageRatingTask_S5,2021.1.4,MacIntel,62.5,,,,,,,,,,,,,,,,,
,,,,,,,,,,,,0,3,3,3,1,fourth,1,22,female,mixed,at home,2021-07-02_09h33.58.886,ImageRatingTask_S5,2021.1.4,MacIntel,62.5,,,,,,,,,,,,,,,,,
,,,,,,,,,,,,0,4,4,4,1,fifth,1,22,female,mixed,at home,2021-07-02_09h33.58.886,ImageRatingTask_S5,2021.1.4,MacIntel,62.5,,,,,,,,,,,,,,,,,
,,,,,,,,,,,,0,5,5,5,1,sixth,1,22,female,mixed,at home,2021-07-02_09h33.58.886,ImageRatingTask_S5,2021.1.4,MacIntel,62.5,,,,,,,,,,,,,,,,,
,,,,,,,,,,,,0,6,6,6,1,seventh,1,22,female,mixed,at home,2021-07-02_09h33.58.886,ImageRatingTask_S5,2021.1.4,MacIntel,62.5,,,,,,,,,,,,,,,,,
,,,,,,,,,,,,0,7,7,7,1,last,1,22,female,mixed,at home,2021-07-02_09h33.58.886,ImageRatingTask_S5,2021.1.4,MacIntel,62.5,,,,,,,,,,,,,,,,,
,,,,,,,,,,,,,,,,,,1,22,female,mixed,at home,2021-07-02_09h33.58.886,ImageRatingTask_S5,2021.1.4,MacIntel,62.5,0,48,48,95,1,DreamStudyImages_rs1000x750g/Mammals/Animals_061_h.jpg,,,,,,,,,,,
,,6,4.47,2,1.724,8,2.563,2,2.584,8,10.111,0,0,0,0,1,main,1,22,female,mixed,at home,2021-07-02_09h33.58.886,ImageRatingTask_S5,2021.1.4,MacIntel,62.5,,,,,,,,,,,,,,,,,
,,,,,,,,,,7,2.784,0,1,1,1,1,second,1,22,female,mixed,at home,2021-07-02_09h33.58.886,ImageRatingTask_S5,2021.1.4,MacIntel,62.5,,,,,,,,,,,,,,,,,
,,,,,,,,,,,,0,2,2,2,1,third,1,22,female,mixed,at home,2021-07-02_09h33.58.886,ImageRatingTask_S5,2021.1.4,MacIntel,62.5,,,,,,,,,,,,,,,,,
,,,,,,,,,,,,0,3,3,3,1,fourth,1,22,female,mixed,at home,2021-07-02_09h33.58.886,ImageRatingTask_S5,2021.1.4,MacIntel,62.5,,,,,,,,,,,,,,,,,
,,,,,,,,,,,,0,4,4,4,1,fifth,1,22,female,mixed,at home,2021-07-02_09h33.58.886,ImageRatingTask_S5,2021.1.4,MacIntel,62.5,,,,,,,,,,,,,,,,,
,,,,,,,,,,,,0,5,5,5,1,sixth,1,22,female,mixed,at home,2021-07-02_09h33.58.886,ImageRatingTask_S5,2021.1.4,MacIntel,62.5,,,,,,,,,,,,,,,,,
,,,,,,,,,,,,0,6,6,6,1,seventh,1,22,female,mixed,at home,2021-07-02_09h33.58.886,ImageRatingTask_S5,2021.1.4,MacIntel,62.5,,,,,,,,,,,,,,,,,
,,,,,,,,,,,,0,7,7,7,1,last,1,22,female,mixed,at home,2021-07-02_09h33.58.886,ImageRatingTask_S5,2021.1.4,MacIntel,62.5,,,,,,,,,,,,,,,,,
,,,,,,,,,,,,,,,,,,1,22,female,mixed,at home,2021-07-02_09h33.58.886,ImageRatingTask_S5,2021.1.4,MacIntel,62.5,0,49,49,144,1,DreamStudyImages_rs1000x750g/Water/Lake 9.jpg,,,,,,,,,,,
,,5,8.119,1,1.075,9,8.44,1,0.699,3,0.847,0,0,0,0,1,main,1,22,female,mixed,at home,2021-07-02_09h33.58.886,ImageRatingTask_S5,2021.1.4,MacIntel,62.5,,,,,,,,,,,,,,,,,
,,,,,,,,,,,,0,1,1,1,1,second,1,22,female,mixed,at home,2021-07-02_09h33.58.886,ImageRatingTask_S5,2021.1.4,MacIntel,62.5,,,,,,,,,,,,,,,,,
,,,,,,,,,,,,0,2,2,2,1,third,1,22,female,mixed,at home,2021-07-02_09h33.58.886,ImageRatingTask_S5,2021.1.4,MacIntel,62.5,,,,,,,,,,,,,,,,,
,,,,,,,,,,,,0,3,3,3,1,fourth,1,22,female,mixed,at home,2021-07-02_09h33.58.886,ImageRatingTask_S5,2021.1.4,MacIntel,62.5,,,,,,,,,,,,,,,,,
,,,,,,,,,,,,0,4,4,4,1,fifth,1,22,female,mixed,at home,2021-07-02_09h33.58.886,ImageRatingTask_S5,2021.1.4,MacIntel,62.5,,,,,,,,,,,,,,,,,
,,,,,,,,,,,,0,5,5,5,1,sixth,1,22,female,mixed,at home,2021-07-02_09h33.58.886,ImageRatingTask_S5,2021.1.4,MacIntel,62.5,,,,,,,,,,,,,,,,,
,,,,,,,,,,,,0,6,6,6,1,seventh,1,22,female,mixed,at home,2021-07-02_09h33.58.886,ImageRatingTask_S5,2021.1.4,MacIntel,62.5,,,,,,,,,,,,,,,,,
,,,,,,,,,,,,0,7,7,7,1,last,1,22,female,mixed,at home,2021-07-02_09h33.58.886,ImageRatingTask_S5,2021.1.4,MacIntel,62.5,,,,,,,,,,,,,,,,,
,,,,,,,,,,,,,,,,,,1,22,female,mixed,at home,2021-07-02_09h33.58.886,ImageRatingTask_S5,2021.1.4,MacIntel,62.5,0,50,50,119,1,DreamStudyImages_rs1000x750g/Mammals/Animals_124_v.jpg,,,,,,,,,,,
,,5,11.165,1,0.511,6,1.906,1,0.871,3,0.863,0,0,0,0,1,main,1,22,female,mixed,at home,2021-07-02_09h33.58.886,ImageRatingTask_S5,2021.1.4,MacIntel,62.5,,,,,,,,,,,,,,,,,
,,,,,,,,,,,,0,1,1,1,1,second,1,22,female,mixed,at home,2021-07-02_09h33.58.886,ImageRatingTask_S5,2021.1.4,MacIntel,62.5,,,,,,,,,,,,,,,,,
,,,,,,,,,,,,0,2,2,2,1,third,1,22,female,mixed,at home,2021-07-02_09h33.58.886,ImageRatingTask_S5,2021.1.4,MacIntel,62.5,,,,,,,,,,,,,,,,,
,,,,,,,,,,,,0,3,3,3,1,fourth,1,22,female,mixed,at home,2021-07-02_09h33.58.886,ImageRatingTask_S5,2021.1.4,MacIntel,62.5,,,,,,,,,,,,,,,,,
,,,,,,,,,,,,0,4,4,4,1,fifth,1,22,female,mixed,at home,2021-07-02_09h33.58.886,ImageRatingTask_S5,2021.1.4,MacIntel,62.5,,,,,,,,,,,,,,,,,
,,,,,,,,,,,,0,5,5,5,1,sixth,1,22,female,mixed,at home,2021-07-02_09h33.58.886,ImageRatingTask_S5,2021.1.4,MacIntel,62.5,,,,,,,,,,,,,,,,,
,,,,,,,,,,,,0,6,6,6,1,seventh,1,22,female,mixed,at home,2021-07-02_09h33.58.886,ImageRatingTask_S5,2021.1.4,MacIntel,62.5,,,,,,,,,,,,,,,,,
,,,,,,,,,,,,0,7,7,7,1,last,1,22,female,mixed,at home,2021-07-02_09h33.58.886,ImageRatingTask_S5,2021.1.4,MacIntel,62.5,,,,,,,,,,,,,,,,,
,,,,,,,,,,,,,,,,,,1,22,female,mixed,at home,2021-07-02_09h33.58.886,ImageRatingTask_S5,2021.1.4,MacIntel,62.5,0,51,51,148,1,DreamStudyImages_rs1000x750g/Mammals/Chipmunk 1.jpg,,,,,,,,,,,
,,5,7.481,1,0.706,8,1.936,1,6.266,6,2.117,0,0,0,0,1,main,1,22,female,mixed,at home,2021-07-02_09h33.58.886,ImageRatingTask_S5,2021.1.4,MacIntel,62.5,,,,,,,,,,,,,,,,,
,,,,,,,,,,,,0,1,1,1,1,second,1,22,female,mixed,at home,2021-07-02_09h33.58.886,ImageRatingTask_S5,2021.1.4,MacIntel,62.5,,,,,,,,,,,,,,,,,
,,,,,,,,,,,,0,2,2,2,1,third,1,22,female,mixed,at home,2021-07-02_09h33.58.886,ImageRatingTask_S5,2021.1.4,MacIntel,62.5,,,,,,,,,,,,,,,,,
,,,,,,,,,,,,0,3,3,3,1,fourth,1,22,female,mixed,at home,2021-07-02_09h33.58.886,ImageRatingTask_S5,2021.1.4,MacIntel,62.5,,,,,,,,,,,,,,,,,
,,,,,,,,,,,,0,4,4,4,1,fifth,1,22,female,mixed,at home,2021-07-02_09h33.58.886,ImageRatingTask_S5,2021.1.4,MacIntel,62.5,,,,,,,,,,,,,,,,,
,,,,,,,,,,,,0,5,5,5,1,sixth,1,22,female,mixed,at home,2021-07-02_09h33.58.886,ImageRatingTask_S5,2021.1.4,MacIntel,62.5,,,,,,,,,,,,,,,,,
,,,,,,,,,,,,0,6,6,6,1,seventh,1,22,female,mixed,at home,2021-07-02_09h33.58.886,ImageRatingTask_S5,2021.1.4,MacIntel,62.5,,,,,,,,,,,,,,,,,
,,,,,,,,,,,,0,7,7,7,1,last,1,22,female,mixed,at home,2021-07-02_09h33.58.886,ImageRatingTask_S5,2021.1.4,MacIntel,62.5,,,,,,,,,,,,,,,,,
,,,,,,,,,,,,,,,,,,1,22,female,mixed,at home,2021-07-02_09h33.58.886,ImageRatingTask_S5,2021.1.4,MacIntel,62.5,0,52,52,110,1,DreamStudyImages_rs1000x750g/Houses/Landscapes_049_h.jpg,,,,,,,,,,,
,,5,1.22,1,0.637,8,2.015,1,1.01,7,0.671,0,0,0,0,1,main,1,22,female,mixed,at home,2021-07-02_09h33.58.886,ImageRatingTask_S5,2021.1.4,MacIntel,62.5,,,,,,,,,,,,,,,,,
,,,,,,,,,,,,0,1,1,1,1,second,1,22,female,mixed,at home,2021-07-02_09h33.58.886,ImageRatingTask_S5,2021.1.4,MacIntel,62.5,,,,,,,,,,,,,,,,,
,,,,,,,,,,,,0,2,2,2,1,third,1,22,female,mixed,at home,2021-07-02_09h33.58.886,ImageRatingTask_S5,2021.1.4,MacIntel,62.5,,,,,,,,,,,,,,,,,
,,,,,,,,,,,,0,3,3,3,1,fourth,1,22,female,mixed,at home,2021-07-02_09h33.58.886,ImageRatingTask_S5,2021.1.4,MacIntel,62.5,,,,,,,,,,,,,,,,,
,,,,,,,,,,,,0,4,4,4,1,fifth,1,22,female,mixed,at home,2021-07-02_09h33.58.886,ImageRatingTask_S5,2021.1.4,MacIntel,62.5,,,,,,,,,,,,,,,,,
,,,,,,,,,,,,0,5,5,5,1,sixth,1,22,female,mixed,at home,2021-07-02_09h33.58.886,ImageRatingTask_S5,2021.1.4,MacIntel,62.5,,,,,,,,,,,,,,,,,
,,,,,,,,,,,,0,6,6,6,1,seventh,1,22,female,mixed,at home,2021-07-02_09h33.58.886,ImageRatingTask_S5,2021.1.4,MacIntel,62.5,,,,,,,,,,,,,,,,,
,,,,,,,,,,,,0,7,7,7,1,last,1,22,female,mixed,at home,2021-07-02_09h33.58.886,ImageRatingTask_S5,2021.1.4,MacIntel,62.5,,,,,,,,,,,,,,,,,
,,,,,,,,,,,,,,,,,,1,22,female,mixed,at home,2021-07-02_09h33.58.886,ImageRatingTask_S5,2021.1.4,MacIntel,62.5,0,53,53,21,1,DreamStudyImages_rs1000x750g/Vehicles/Objects_309_h.jpg,,,,,,,,,,,
,,5,1.924,1,0.462,6,1.536,1,0.648,3,0.613,0,0,0,0,1,main,1,22,female,mixed,at home,2021-07-02_09h33.58.886,ImageRatingTask_S5,2021.1.4,MacIntel,62.5,,,,,,,,,,,,,,,,,
,,,,,,,,,,,,0,1,1,1,1,second,1,22,female,mixed,at home,2021-07-02_09h33.58.886,ImageRatingTask_S5,2021.1.4,MacIntel,62.5,,,,,,,,,,,,,,,,,
,,,,,,,,,,,,0,2,2,2,1,third,1,22,female,mixed,at home,2021-07-02_09h33.58.886,ImageRatingTask_S5,2021.1.4,MacIntel,62.5,,,,,,,,,,,,,,,,,
,,,,,,,,,,,,0,3,3,3,1,fourth,1,22,female,mixed,at home,2021-07-02_09h33.58.886,ImageRatingTask_S5,2021.1.4,MacIntel,62.5,,,,,,,,,,,,,,,,,
,,,,,,,,,,,,0,4,4,4,1,fifth,1,22,female,mixed,at home,2021-07-02_09h33.58.886,ImageRatingTask_S5,2021.1.4,MacIntel,62.5,,,,,,,,,,,,,,,,,
,,,,,,,,,,,,0,5,5,5,1,sixth,1,22,female,mixed,at home,2021-07-02_09h33.58.886,ImageRatingTask_S5,2021.1.4,MacIntel,62.5,,,,,,,,,,,,,,,,,
,,,,,,,,,,,,0,6,6,6,1,seventh,1,22,female,mixed,at home,2021-07-02_09h33.58.886,ImageRatingTask_S5,2021.1.4,MacIntel,62.5,,,,,,,,,,,,,,,,,
,,,,,,,,,,,,0,7,7,7,1,last,1,22,female,mixed,at home,2021-07-02_09h33.58.886,ImageRatingTask_S5,2021.1.4,MacIntel,62.5,,,,,,,,,,,,,,,,,
,,,,,,,,,,,,,,,,,,1,22,female,mixed,at home,2021-07-02_09h33.58.886,ImageRatingTask_S5,2021.1.4,MacIntel,62.5,0,54,54,137,1,DreamStudyImages_rs1000x750g/Mammals/IAPS1670_cow.jpg,,,,,,,,,,,
,,7,1.267,2,1.956,7,1.613,1,0.687,5,4.489,0,0,0,0,1,main,1,22,female,mixed,at home,2021-07-02_09h33.58.886,ImageRatingTask_S5,2021.1.4,MacIntel,62.5,,,,,,,,,,,,,,,,,
,,,,,,,,,,,,0,1,1,1,1,second,1,22,female,mixed,at home,2021-07-02_09h33.58.886,ImageRatingTask_S5,2021.1.4,MacIntel,62.5,,,,,,,,,,,,,,,,,
,,,,,,,,,,,,0,2,2,2,1,third,1,22,female,mixed,at home,2021-07-02_09h33.58.886,ImageRatingTask_S5,2021.1.4,MacIntel,62.5,,,,,,,,,,,,,,,,,
,,,,,,,,,,,,0,3,3,3,1,fourth,1,22,female,mixed,at home,2021-07-02_09h33.58.886,ImageRatingTask_S5,2021.1.4,MacIntel,62.5,,,,,,,,,,,,,,,,,
,,,,,,,,,,,,0,4,4,4,1,fifth,1,22,female,mixed,at home,2021-07-02_09h33.58.886,ImageRatingTask_S5,2021.1.4,MacIntel,62.5,,,,,,,,,,,,,,,,,
,,,,,,,,,,,,0,5,5,5,1,sixth,1,22,female,mixed,at home,2021-07-02_09h33.58.886,ImageRatingTask_S5,2021.1.4,MacIntel,62.5,,,,,,,,,,,,,,,,,
,,,,,,,,,,,,0,6,6,6,1,seventh,1,22,female,mixed,at home,2021-07-02_09h33.58.886,ImageRatingTask_S5,2021.1.4,MacIntel,62.5,,,,,,,,,,,,,,,,,
,,,,,,,,,,,,0,7,7,7,1,last,1,22,female,mixed,at home,2021-07-02_09h33.58.886,ImageRatingTask_S5,2021.1.4,MacIntel,62.5,,,,,,,,,,,,,,,,,
,,,,,,,,,,,,,,,,,,1,22,female,mixed,at home,2021-07-02_09h33.58.886,ImageRatingTask_S5,2021.1.4,MacIntel,62.5,0,55,55,58,1,DreamStudyImages_rs1000x750g/Food/IAPS7400_chocolate.jpg,,,,,,,,,,,
,,6,3.401,1,0.616,9,1.996,1,0.491,7,0.92,0,0,0,0,1,main,1,22,female,mixed,at home,2021-07-02_09h33.58.886,ImageRatingTask_S5,2021.1.4,MacIntel,62.5,,,,,,,,,,,,,,,,,
,,,,,,,,,,,,0,1,1,1,1,second,1,22,female,mixed,at home,2021-07-02_09h33.58.886,ImageRatingTask_S5,2021.1.4,MacIntel,62.5,,,,,,,,,,,,,,,,,
,,,,,,,,,,,,0,2,2,2,1,third,1,22,female,mixed,at home,2021-07-02_09h33.58.886,ImageRatingTask_S5,2021.1.4,MacIntel,62.5,,,,,,,,,,,,,,,,,
,,,,,,,,,,,,0,3,3,3,1,fourth,1,22,female,mixed,at home,2021-07-02_09h33.58.886,ImageRatingTask_S5,2021.1.4,MacIntel,62.5,,,,,,,,,,,,,,,,,
,,,,,,,,,,,,0,4,4,4,1,fifth,1,22,female,mixed,at home,2021-07-02_09h33.58.886,ImageRatingTask_S5,2021.1.4,MacIntel,62.5,,,,,,,,,,,,,,,,,
,,,,,,,,,,,,0,5,5,5,1,sixth,1,22,female,mixed,at home,2021-07-02_09h33.58.886,ImageRatingTask_S5,2021.1.4,MacIntel,62.5,,,,,,,,,,,,,,,,,
,,,,,,,,,,,,0,6,6,6,1,seventh,1,22,female,mixed,at home,2021-07-02_09h33.58.886,ImageRatingTask_S5,2021.1.4,MacIntel,62.5,,,,,,,,,,,,,,,,,
,,,,,,,,,,,,0,7,7,7,1,last,1,22,female,mixed,at home,2021-07-02_09h33.58.886,ImageRatingTask_S5,2021.1.4,MacIntel,62.5,,,,,,,,,,,,,,,,,
,,,,,,,,,,,,,,,,,,1,22,female,mixed,at home,2021-07-02_09h33.58.886,ImageRatingTask_S5,2021.1.4,MacIntel,62.5,0,56,56,0,1,DreamStudyImages_rs1000x750g/Vehicles/toytruck.jpg,,,,,,,,,,,
,,5,1.26,1,0.39,9,2.82,1,1.522,5,0.753,0,0,0,0,1,main,1,22,female,mixed,at home,2021-07-02_09h33.58.886,ImageRatingTask_S5,2021.1.4,MacIntel,62.5,,,,,,,,,,,,,,,,,
,,,,,,,,,,,,0,1,1,1,1,second,1,22,female,mixed,at home,2021-07-02_09h33.58.886,ImageRatingTask_S5,2021.1.4,MacIntel,62.5,,,,,,,,,,,,,,,,,
,,,,,,,,,,,,0,2,2,2,1,third,1,22,female,mixed,at home,2021-07-02_09h33.58.886,ImageRatingTask_S5,2021.1.4,MacIntel,62.5,,,,,,,,,,,,,,,,,
,,,,,,,,,,,,0,3,3,3,1,fourth,1,22,female,mixed,at home,2021-07-02_09h33.58.886,ImageRatingTask_S5,2021.1.4,MacIntel,62.5,,,,,,,,,,,,,,,,,
,,,,,,,,,,,,0,4,4,4,1,fifth,1,22,female,mixed,at home,2021-07-02_09h33.58.886,ImageRatingTask_S5,2021.1.4,MacIntel,62.5,,,,,,,,,,,,,,,,,
,,,,,,,,,,,,0,5,5,5,1,sixth,1,22,female,mixed,at home,2021-07-02_09h33.58.886,ImageRatingTask_S5,2021.1.4,MacIntel,62.5,,,,,,,,,,,,,,,,,
,,,,,,,,,,,,0,6,6,6,1,seventh,1,22,female,mixed,at home,2021-07-02_09h33.58.886,ImageRatingTask_S5,2021.1.4,MacIntel,62.5,,,,,,,,,,,,,,,,,
,,,,,,,,,,,,0,7,7,7,1,last,1,22,female,mixed,at home,2021-07-02_09h33.58.886,ImageRatingTask_S5,2021.1.4,MacIntel,62.5,,,,,,,,,,,,,,,,,
,,,,,,,,,,,,,,,,,,1,22,female,mixed,at home,2021-07-02_09h33.58.886,ImageRatingTask_S5,2021.1.4,MacIntel,62.5,0,57,57,56,1,DreamStudyImages_rs1000x750g/Food/Objects_067_h.jpg,,,,,,,,,,,
,,6,1.917,1,1.121,7,1.989,1,0.748,5,0.657,0,0,0,0,1,main,1,22,female,mixed,at home,2021-07-02_09h33.58.886,ImageRatingTask_S5,2021.1.4,MacIntel,62.5,,,,,,,,,,,,,,,,,
,,,,,,,,,,,,0,1,1,1,1,second,1,22,female,mixed,at home,2021-07-02_09h33.58.886,ImageRatingTask_S5,2021.1.4,MacIntel,62.5,,,,,,,,,,,,,,,,,
,,,,,,,,,,,,0,2,2,2,1,third,1,22,female,mixed,at home,2021-07-02_09h33.58.886,ImageRatingTask_S5,2021.1.4,MacIntel,62.5,,,,,,,,,,,,,,,,,
,,,,,,,,,,,,0,3,3,3,1,fourth,1,22,female,mixed,at home,2021-07-02_09h33.58.886,ImageRatingTask_S5,2021.1.4,MacIntel,62.5,,,,,,,,,,,,,,,,,
,,,,,,,,,,,,0,4,4,4,1,fifth,1,22,female,mixed,at home,2021-07-02_09h33.58.886,ImageRatingTask_S5,2021.1.4,MacIntel,62.5,,,,,,,,,,,,,,,,,
,,,,,,,,,,,,0,5,5,5,1,sixth,1,22,female,mixed,at home,2021-07-02_09h33.58.886,ImageRatingTask_S5,2021.1.4,MacIntel,62.5,,,,,,,,,,,,,,,,,
,,,,,,,,,,,,0,6,6,6,1,seventh,1,22,female,mixed,at home,2021-07-02_09h33.58.886,ImageRatingTask_S5,2021.1.4,MacIntel,62.5,,,,,,,,,,,,,,,,,
,,,,,,,,,,,,0,7,7,7,1,last,1,22,female,mixed,at home,2021-07-02_09h33.58.886,ImageRatingTask_S5,2021.1.4,MacIntel,62.5,,,,,,,,,,,,,,,,,
,,,,,,,,,,,,,,,,,,1,22,female,mixed,at home,2021-07-02_09h33.58.886,ImageRatingTask_S5,2021.1.4,MacIntel,62.5,0,58,58,71,1,DreamStudyImages_rs1000x750g/Food/IAPS7472_fruitbasket3.jpg,,,,,,,,,,,
,,3,2.894,3,1.547,5,2.811,1,2.625,8,0.632,0,0,0,0,1,main,1,22,female,mixed,at home,2021-07-02_09h33.58.886,ImageRatingTask_S5,2021.1.4,MacIntel,62.5,,,,,,,,,,,,,,,,,
,,,,,,,,,,,,0,1,1,1,1,second,1,22,female,mixed,at home,2021-07-02_09h33.58.886,ImageRatingTask_S5,2021.1.4,MacIntel,62.5,,,,,,,,,,,,,,,,,
,,,,,,,,,,,,0,2,2,2,1,third,1,22,female,mixed,at home,2021-07-02_09h33.58.886,ImageRatingTask_S5,2021.1.4,MacIntel,62.5,,,,,,,,,,,,,,,,,
,,,,,,,,,,,,0,3,3,3,1,fourth,1,22,female,mixed,at home,2021-07-02_09h33.58.886,ImageRatingTask_S5,2021.1.4,MacIntel,62.5,,,,,,,,,,,,,,,,,
,,,,,,,,,,,,0,4,4,4,1,fifth,1,22,female,mixed,at home,2021-07-02_09h33.58.886,ImageRatingTask_S5,2021.1.4,MacIntel,62.5,,,,,,,,,,,,,,,,,
,,,,,,,,,,,,0,5,5,5,1,sixth,1,22,female,mixed,at home,2021-07-02_09h33.58.886,ImageRatingTask_S5,2021.1.4,MacIntel,62.5,,,,,,,,,,,,,,,,,
,,,,,,,,,,,,0,6,6,6,1,seventh,1,22,female,mixed,at home,2021-07-02_09h33.58.886,ImageRatingTask_S5,2021.1.4,MacIntel,62.5,,,,,,,,,,,,,,,,,
,,,,,,,,,,,,0,7,7,7,1,last,1,22,female,mixed,at home,2021-07-02_09h33.58.886,ImageRatingTask_S5,2021.1.4,MacIntel,62.5,,,,,,,,,,,,,,,,,
,,,,,,,,,,,,,,,,,,1,22,female,mixed,at home,2021-07-02_09h33.58.886,ImageRatingTask_S5,2021.1.4,MacIntel,62.5,0,59,59,106,1,DreamStudyImages_rs1000x750g/Water/Graveyard 3.jpg,,,,,,,,,,,
,,5,2.351,1,0.524,7,1.746,1,0.408,6,1.041,0,0,0,0,1,main,1,22,female,mixed,at home,2021-07-02_09h33.58.886,ImageRatingTask_S5,2021.1.4,MacIntel,62.5,,,,,,,,,,,,,,,,,
,,,,,,,,,,,,0,1,1,1,1,second,1,22,female,mixed,at home,2021-07-02_09h33.58.886,ImageRatingTask_S5,2021.1.4,MacIntel,62.5,,,,,,,,,,,,,,,,,
,,,,,,,,,,,,0,2,2,2,1,third,1,22,female,mixed,at home,2021-07-02_09h33.58.886,ImageRatingTask_S5,2021.1.4,MacIntel,62.5,,,,,,,,,,,,,,,,,
,,,,,,,,,,,,0,3,3,3,1,fourth,1,22,female,mixed,at home,2021-07-02_09h33.58.886,ImageRatingTask_S5,2021.1.4,MacIntel,62.5,,,,,,,,,,,,,,,,,
,,,,,,,,,,,,0,4,4,4,1,fifth,1,22,female,mixed,at home,2021-07-02_09h33.58.886,ImageRatingTask_S5,2021.1.4,MacIntel,62.5,,,,,,,,,,,,,,,,,
,,,,,,,,,,,,0,5,5,5,1,sixth,1,22,female,mixed,at home,2021-07-02_09h33.58.886,ImageRatingTask_S5,2021.1.4,MacIntel,62.5,,,,,,,,,,,,,,,,,
,,,,,,,,,,,,0,6,6,6,1,seventh,1,22,female,mixed,at home,2021-07-02_09h33.58.886,ImageRatingTask_S5,2021.1.4,MacIntel,62.5,,,,,,,,,,,,,,,,,
,,,,,,,,,,,,0,7,7,7,1,last,1,22,female,mixed,at home,2021-07-02_09h33.58.886,ImageRatingTask_S5,2021.1.4,MacIntel,62.5,,,,,,,,,,,,,,,,,
,,,,,,,,,,,,,,,,,,1,22,female,mixed,at home,2021-07-02_09h33.58.886,ImageRatingTask_S5,2021.1.4,MacIntel,62.5,0,60,60,40,1,DreamStudyImages_rs1000x750g/Houses/Landscapes_024_v.jpg,,,,,,,,,,,
,,4,2.686,3,2.863,8,2.091,1,0.987,2,10.276,0,0,0,0,1,main,1,22,female,mixed,at home,2021-07-02_09h33.58.886,ImageRatingTask_S5,2021.1.4,MacIntel,62.5,,,,,,,,,,,,,,,,,
,,,,,,,,,,,,0,1,1,1,1,second,1,22,female,mixed,at home,2021-07-02_09h33.58.886,ImageRatingTask_S5,2021.1.4,MacIntel,62.5,,,,,,,,,,,,,,,,,
,,,,,,,,,,,,0,2,2,2,1,third,1,22,female,mixed,at home,2021-07-02_09h33.58.886,ImageRatingTask_S5,2021.1.4,MacIntel,62.5,,,,,,,,,,,,,,,,,
,,,,,,,,,,,,0,3,3,3,1,fourth,1,22,female,mixed,at home,2021-07-02_09h33.58.886,ImageRatingTask_S5,2021.1.4,MacIntel,62.5,,,,,,,,,,,,,,,,,
,,,,,,,,,,,,0,4,4,4,1,fifth,1,22,female,mixed,at home,2021-07-02_09h33.58.886,ImageRatingTask_S5,2021.1.4,MacIntel,62.5,,,,,,,,,,,,,,,,,
,,,,,,,,,,,,0,5,5,5,1,sixth,1,22,female,mixed,at home,2021-07-02_09h33.58.886,ImageRatingTask_S5,2021.1.4,MacIntel,62.5,,,,,,,,,,,,,,,,,
,,,,,,,,,,,,0,6,6,6,1,seventh,1,22,female,mixed,at home,2021-07-02_09h33.58.886,ImageRatingTask_S5,2021.1.4,MacIntel,62.5,,,,,,,,,,,,,,,,,
,,,,,,,,,,,,0,7,7,7,1,last,1,22,female,mixed,at home,2021-07-02_09h33.58.886,ImageRatingTask_S5,2021.1.4,MacIntel,62.5,,,,,,,,,,,,,,,,,
,,,,,,,,,,,,,,,,,,1,22,female,mixed,at home,2021-07-02_09h33.58.886,ImageRatingTask_S5,2021.1.4,MacIntel,62.5,0,61,61,87,1,DreamStudyImages_rs1000x750g/Children/Faces_369_v.jpg,,,,,,,,,,,
,,5,3.177,1,0.531,6,1.207,1,0.453,6,1.571,0,0,0,0,1,main,1,22,female,mixed,at home,2021-07-02_09h33.58.886,ImageRatingTask_S5,2021.1.4,MacIntel,62.5,,,,,,,,,,,,,,,,,
,,,,,,,,,,,,0,1,1,1,1,second,1,22,female,mixed,at home,2021-07-02_09h33.58.886,ImageRatingTask_S5,2021.1.4,MacIntel,62.5,,,,,,,,,,,,,,,,,
,,,,,,,,,,,,0,2,2,2,1,third,1,22,female,mixed,at home,2021-07-02_09h33.58.886,ImageRatingTask_S5,2021.1.4,MacIntel,62.5,,,,,,,,,,,,,,,,,
,,,,,,,,,,,,0,3,3,3,1,fourth,1,22,female,mixed,at home,2021-07-02_09h33.58.886,ImageRatingTask_S5,2021.1.4,MacIntel,62.5,,,,,,,,,,,,,,,,,
,,,,,,,,,,,,0,4,4,4,1,fifth,1,22,female,mixed,at home,2021-07-02_09h33.58.886,ImageRatingTask_S5,2021.1.4,MacIntel,62.5,,,,,,,,,,,,,,,,,
,,,,,,,,,,,,0,5,5,5,1,sixth,1,22,female,mixed,at home,2021-07-02_09h33.58.886,ImageRatingTask_S5,2021.1.4,MacIntel,62.5,,,,,,,,,,,,,,,,,
,,,,,,,,,,,,0,6,6,6,1,seventh,1,22,female,mixed,at home,2021-07-02_09h33.58.886,ImageRatingTask_S5,2021.1.4,MacIntel,62.5,,,,,,,,,,,,,,,,,
,,,,,,,,,,,,0,7,7,7,1,last,1,22,female,mixed,at home,2021-07-02_09h33.58.886,ImageRatingTask_S5,2021.1.4,MacIntel,62.5,,,,,,,,,,,,,,,,,
,,,,,,,,,,,,,,,,,,1,22,female,mixed,at home,2021-07-02_09h33.58.886,ImageRatingTask_S5,2021.1.4,MacIntel,62.5,0,62,62,11,1,DreamStudyImages_rs1000x750g/Houses/Objects_130_h.jpg,,,,,,,,,,,
,,7,2.809,2,1.31,5,2.16,1,0.865,6,1.197,0,0,0,0,1,main,1,22,female,mixed,at home,2021-07-02_09h33.58.886,ImageRatingTask_S5,2021.1.4,MacIntel,62.5,,,,,,,,,,,,,,,,,
,,,,,,,,,,,,0,1,1,1,1,second,1,22,female,mixed,at home,2021-07-02_09h33.58.886,ImageRatingTask_S5,2021.1.4,MacIntel,62.5,,,,,,,,,,,,,,,,,
,,,,,,,,,,,,0,2,2,2,1,third,1,22,female,mixed,at home,2021-07-02_09h33.58.886,ImageRatingTask_S5,2021.1.4,MacIntel,62.5,,,,,,,,,,,,,,,,,
,,,,,,,,,,,,0,3,3,3,1,fourth,1,22,female,mixed,at home,2021-07-02_09h33.58.886,ImageRatingTask_S5,2021.1.4,MacIntel,62.5,,,,,,,,,,,,,,,,,
,,,,,,,,,,,,0,4,4,4,1,fifth,1,22,female,mixed,at home,2021-07-02_09h33.58.886,ImageRatingTask_S5,2021.1.4,MacIntel,62.5,,,,,,,,,,,,,,,,,
,,,,,,,,,,,,0,5,5,5,1,sixth,1,22,female,mixed,at home,2021-07-02_09h33.58.886,ImageRatingTask_S5,2021.1.4,MacIntel,62.5,,,,,,,,,,,,,,,,,
,,,,,,,,,,,,0,6,6,6,1,seventh,1,22,female,mixed,at home,2021-07-02_09h33.58.886,ImageRatingTask_S5,2021.1.4,MacIntel,62.5,,,,,,,,,,,,,,,,,
,,,,,,,,,,,,0,7,7,7,1,last,1,22,female,mixed,at home,2021-07-02_09h33.58.886,ImageRatingTask_S5,2021.1.4,MacIntel,62.5,,,,,,,,,,,,,,,,,
,,,,,,,,,,,,,,,,,,1,22,female,mixed,at home,2021-07-02_09h33.58.886,ImageRatingTask_S5,2021.1.4,MacIntel,62.5,0,63,63,134,1,DreamStudyImages_rs1000x750g/Water/Sunset 5.jpg,,,,,,,,,,,
,,4,7.612,1,2.448,9,5.227,0,4.621,,,0,0,0,0,1,main,1,22,female,mixed,at home,2021-07-02_09h33.58.886,ImageRatingTask_S5,2021.1.4,MacIntel,62.5,,,,,,,,,,,,,,,,,
,,,,,,,,,,,,0,1,1,1,1,second,1,22,female,mixed,at home,2021-07-02_09h33.58.886,ImageRatingTask_S5,2021.1.4,MacIntel,62.5,,,,,,,,,,,,,,,,,
,,,,,,,,,,,,0,2,2,2,1,third,1,22,female,mixed,at home,2021-07-02_09h33.58.886,ImageRatingTask_S5,2021.1.4,MacIntel,62.5,,,,,,,,,,,,,,,,,
,,,,,,,,,,,,0,3,3,3,1,fourth,1,22,female,mixed,at home,2021-07-02_09h33.58.886,ImageRatingTask_S5,2021.1.4,MacIntel,62.5,,,,,,,,,,,,,,,,,
,,,,,,,,,,,,0,4,4,4,1,fifth,1,22,female,mixed,at home,2021-07-02_09h33.58.886,ImageRatingTask_S5,2021.1.4,MacIntel,62.5,,,,,,,,,,,,,,,,,
,,,,,,,,,,,,0,5,5,5,1,sixth,1,22,female,mixed,at home,2021-07-02_09h33.58.886,ImageRatingTask_S5,2021.1.4,MacIntel,62.5,,,,,,,,,,,,,,,,,
,,,,,,,,,,,,0,6,6,6,1,seventh,1,22,female,mixed,at home,2021-07-02_09h33.58.886,ImageRatingTask_S5,2021.1.4,MacIntel,62.5,,,,,,,,,,,,,,,,,
,,,,,,,,,,,,0,7,7,7,1,last,1,22,female,mixed,at home,2021-07-02_09h33.58.886,ImageRatingTask_S5,2021.1.4,MacIntel,62.5,,,,,,,,,,,,,,,,,
,,,,,,,,,,,,,,,,,,1,22,female,mixed,at home,2021-07-02_09h33.58.886,ImageRatingTask_S5,2021.1.4,MacIntel,62.5,0,64,64,39,1,DreamStudyImages_rs1000x750g/Food/Objects_068_v.jpg,,,,,,,,,,,
,,5,1.336,1,0.509,6,1.602,1,4.099,7,0.954,0,0,0,0,1,main,1,22,female,mixed,at home,2021-07-02_09h33.58.886,ImageRatingTask_S5,2021.1.4,MacIntel,62.5,,,,,,,,,,,,,,,,,
,,,,,,,,,,,,0,1,1,1,1,second,1,22,female,mixed,at home,2021-07-02_09h33.58.886,ImageRatingTask_S5,2021.1.4,MacIntel,62.5,,,,,,,,,,,,,,,,,
,,,,,,,,,,,,0,2,2,2,1,third,1,22,female,mixed,at home,2021-07-02_09h33.58.886,ImageRatingTask_S5,2021.1.4,MacIntel,62.5,,,,,,,,,,,,,,,,,
,,,,,,,,,,,,0,3,3,3,1,fourth,1,22,female,mixed,at home,2021-07-02_09h33.58.886,ImageRatingTask_S5,2021.1.4,MacIntel,62.5,,,,,,,,,,,,,,,,,
,,,,,,,,,,,,0,4,4,4,1,fifth,1,22,female,mixed,at home,2021-07-02_09h33.58.886,ImageRatingTask_S5,2021.1.4,MacIntel,62.5,,,,,,,,,,,,,,,,,
,,,,,,,,,,,,0,5,5,5,1,sixth,1,22,female,mixed,at home,2021-07-02_09h33.58.886,ImageRatingTask_S5,2021.1.4,MacIntel,62.5,,,,,,,,,,,,,,,,,
,,,,,,,,,,,,0,6,6,6,1,seventh,1,22,female,mixed,at home,2021-07-02_09h33.58.886,ImageRatingTask_S5,2021.1.4,MacIntel,62.5,,,,,,,,,,,,,,,,,
,,,,,,,,,,,,0,7,7,7,1,last,1,22,female,mixed,at home,2021-07-02_09h33.58.886,ImageRatingTask_S5,2021.1.4,MacIntel,62.5,,,,,,,,,,,,,,,,,
,,,,,,,,,,,,,,,,,,1,22,female,mixed,at home,2021-07-02_09h33.58.886,ImageRatingTask_S5,2021.1.4,MacIntel,62.5,0,65,65,3,1,DreamStudyImages_rs1000x750g/Vehicles/Car 1.jpg,,,,,,,,,,,
,,3,9.085,4,2.432,7,5.554,1,1.078,2,1.315,0,0,0,0,1,main,1,22,female,mixed,at home,2021-07-02_09h33.58.886,ImageRatingTask_S5,2021.1.4,MacIntel,62.5,,,,,,,,,,,,,,,,,
,,,,,,,,,,,,0,1,1,1,1,second,1,22,female,mixed,at home,2021-07-02_09h33.58.886,ImageRatingTask_S5,2021.1.4,MacIntel,62.5,,,,,,,,,,,,,,,,,
,,,,,,,,,,,,0,2,2,2,1,third,1,22,female,mixed,at home,2021-07-02_09h33.58.886,ImageRatingTask_S5,2021.1.4,MacIntel,62.5,,,,,,,,,,,,,,,,,
,,,,,,,,,,,,0,3,3,3,1,fourth,1,22,female,mixed,at home,2021-07-02_09h33.58.886,ImageRatingTask_S5,2021.1.4,MacIntel,62.5,,,,,,,,,,,,,,,,,
,,,,,,,,,,,,0,4,4,4,1,fifth,1,22,female,mixed,at home,2021-07-02_09h33.58.886,ImageRatingTask_S5,2021.1.4,MacIntel,62.5,,,,,,,,,,,,,,,,,
,,,,,,,,,,,,0,5,5,5,1,sixth,1,22,female,mixed,at home,2021-07-02_09h33.58.886,ImageRatingTask_S5,2021.1.4,MacIntel,62.5,,,,,,,,,,,,,,,,,
,,,,,,,,,,,,0,6,6,6,1,seventh,1,22,female,mixed,at home,2021-07-02_09h33.58.886,ImageRatingTask_S5,2021.1.4,MacIntel,62.5,,,,,,,,,,,,,,,,,
,,,,,,,,,,,,0,7,7,7,1,last,1,22,female,mixed,at home,2021-07-02_09h33.58.886,ImageRatingTask_S5,2021.1.4,MacIntel,62.5,,,,,,,,,,,,,,,,,
,,,,,,,,,,,,,,,,,,1,22,female,mixed,at home,2021-07-02_09h33.58.886,ImageRatingTask_S5,2021.1.4,MacIntel,62.5,0,66,66,135,1,DreamStudyImages_rs1000x750g/Children/People_034_h.jpg,,,,,,,,,,,
,,5,12.947,1,0.6,8,3.868,1,4.884,8,0.867,0,0,0,0,1,main,1,22,female,mixed,at home,2021-07-02_09h33.58.886,ImageRatingTask_S5,2021.1.4,MacIntel,62.5,,,,,,,,,,,,,,,,,
,,,,,,,,,,,,0,1,1,1,1,second,1,22,female,mixed,at home,2021-07-02_09h33.58.886,ImageRatingTask_S5,2021.1.4,MacIntel,62.5,,,,,,,,,,,,,,,,,
,,,,,,,,,,,,0,2,2,2,1,third,1,22,female,mixed,at home,2021-07-02_09h33.58.886,ImageRatingTask_S5,2021.1.4,MacIntel,62.5,,,,,,,,,,,,,,,,,
,,,,,,,,,,,,0,3,3,3,1,fourth,1,22,female,mixed,at home,2021-07-02_09h33.58.886,ImageRatingTask_S5,2021.1.4,MacIntel,62.5,,,,,,,,,,,,,,,,,
,,,,,,,,,,,,0,4,4,4,1,fifth,1,22,female,mixed,at home,2021-07-02_09h33.58.886,ImageRatingTask_S5,2021.1.4,MacIntel,62.5,,,,,,,,,,,,,,,,,
,,,,,,,,,,,,0,5,5,5,1,sixth,1,22,female,mixed,at home,2021-07-02_09h33.58.886,ImageRatingTask_S5,2021.1.4,MacIntel,62.5,,,,,,,,,,,,,,,,,
,,,,,,,,,,,,0,6,6,6,1,seventh,1,22,female,mixed,at home,2021-07-02_09h33.58.886,ImageRatingTask_S5,2021.1.4,MacIntel,62.5,,,,,,,,,,,,,,,,,
,,,,,,,,,,,,0,7,7,7,1,last,1,22,female,mixed,at home,2021-07-02_09h33.58.886,ImageRatingTask_S5,2021.1.4,MacIntel,62.5,,,,,,,,,,,,,,,,,
,,,,,,,,,,,,,,,,,,1,22,female,mixed,at home,2021-07-02_09h33.58.886,ImageRatingTask_S5,2021.1.4,MacIntel,62.5,0,67,67,12,1,DreamStudyImages_rs1000x750g/Water/objects_108_v.jpg,,,,,,,,,,,
,,5,5.636,1,1.771,6,1.532,1,5.775,3,0.981,0,0,0,0,1,main,1,22,female,mixed,at home,2021-07-02_09h33.58.886,ImageRatingTask_S5,2021.1.4,MacIntel,62.5,,,,,,,,,,,,,,,,,
,,,,,,,,,,,,0,1,1,1,1,second,1,22,female,mixed,at home,2021-07-02_09h33.58.886,ImageRatingTask_S5,2021.1.4,MacIntel,62.5,,,,,,,,,,,,,,,,,
,,,,,,,,,,,,0,2,2,2,1,third,1,22,female,mixed,at home,2021-07-02_09h33.58.886,ImageRatingTask_S5,2021.1.4,MacIntel,62.5,,,,,,,,,,,,,,,,,
,,,,,,,,,,,,0,3,3,3,1,fourth,1,22,female,mixed,at home,2021-07-02_09h33.58.886,ImageRatingTask_S5,2021.1.4,MacIntel,62.5,,,,,,,,,,,,,,,,,
,,,,,,,,,,,,0,4,4,4,1,fifth,1,22,female,mixed,at home,2021-07-02_09h33.58.886,ImageRatingTask_S5,2021.1.4,MacIntel,62.5,,,,,,,,,,,,,,,,,
,,,,,,,,,,,,0,5,5,5,1,sixth,1,22,female,mixed,at home,2021-07-02_09h33.58.886,ImageRatingTask_S5,2021.1.4,MacIntel,62.5,,,,,,,,,,,,,,,,,
,,,,,,,,,,,,0,6,6,6,1,seventh,1,22,female,mixed,at home,2021-07-02_09h33.58.886,ImageRatingTask_S5,2021.1.4,MacIntel,62.5,,,,,,,,,,,,,,,,,
,,,,,,,,,,,,0,7,7,7,1,last,1,22,female,mixed,at home,2021-07-02_09h33.58.886,ImageRatingTask_S5,2021.1.4,MacIntel,62.5,,,,,,,,,,,,,,,,,
,,,,,,,,,,,,,,,,,,1,22,female,mixed,at home,2021-07-02_09h33.58.886,ImageRatingTask_S5,2021.1.4,MacIntel,62.5,0,68,68,6,1,DreamStudyImages_rs1000x750g/Mammals/1675.jpg,,,,,,,,,,,
,,5,6.85,1,1.367,7,1.652,1,1.995,6,1.092,0,0,0,0,1,main,1,22,female,mixed,at home,2021-07-02_09h33.58.886,ImageRatingTask_S5,2021.1.4,MacIntel,62.5,,,,,,,,,,,,,,,,,
,,,,,,,,,,,,0,1,1,1,1,second,1,22,female,mixed,at home,2021-07-02_09h33.58.886,ImageRatingTask_S5,2021.1.4,MacIntel,62.5,,,,,,,,,,,,,,,,,
,,,,,,,,,,,,0,2,2,2,1,third,1,22,female,mixed,at home,2021-07-02_09h33.58.886,ImageRatingTask_S5,2021.1.4,MacIntel,62.5,,,,,,,,,,,,,,,,,
,,,,,,,,,,,,0,3,3,3,1,fourth,1,22,female,mixed,at home,2021-07-02_09h33.58.886,ImageRatingTask_S5,2021.1.4,MacIntel,62.5,,,,,,,,,,,,,,,,,
,,,,,,,,,,,,0,4,4,4,1,fifth,1,22,female,mixed,at home,2021-07-02_09h33.58.886,ImageRatingTask_S5,2021.1.4,MacIntel,62.5,,,,,,,,,,,,,,,,,
,,,,,,,,,,,,0,5,5,5,1,sixth,1,22,female,mixed,at home,2021-07-02_09h33.58.886,ImageRatingTask_S5,2021.1.4,MacIntel,62.5,,,,,,,,,,,,,,,,,
,,,,,,,,,,,,0,6,6,6,1,seventh,1,22,female,mixed,at home,2021-07-02_09h33.58.886,ImageRatingTask_S5,2021.1.4,MacIntel,62.5,,,,,,,,,,,,,,,,,
,,,,,,,,,,,,0,7,7,7,1,last,1,22,female,mixed,at home,2021-07-02_09h33.58.886,ImageRatingTask_S5,2021.1.4,MacIntel,62.5,,,,,,,,,,,,,,,,,
,,,,,,,,,,,,,,,,,,1,22,female,mixed,at home,2021-07-02_09h33.58.886,ImageRatingTask_S5,2021.1.4,MacIntel,62.5,0,69,69,28,1,DreamStudyImages_rs1000x750g/Houses/Landscapes_015_h.jpg,,,,,,,,,,,
,,6,2.584,1,0.784,4,1.74,1,5.757,5,1.016,0,0,0,0,1,main,1,22,female,mixed,at home,2021-07-02_09h33.58.886,ImageRatingTask_S5,2021.1.4,MacIntel,62.5,,,,,,,,,,,,,,,,,
,,,,,,,,,,,,0,1,1,1,1,second,1,22,female,mixed,at home,2021-07-02_09h33.58.886,ImageRatingTask_S5,2021.1.4,MacIntel,62.5,,,,,,,,,,,,,,,,,
,,,,,,,,,,,,0,2,2,2,1,third,1,22,female,mixed,at home,2021-07-02_09h33.58.886,ImageRatingTask_S5,2021.1.4,MacIntel,62.5,,,,,,,,,,,,,,,,,
,,,,,,,,,,,,0,3,3,3,1,fourth,1,22,female,mixed,at home,2021-07-02_09h33.58.886,ImageRatingTask_S5,2021.1.4,MacIntel,62.5,,,,,,,,,,,,,,,,,
,,,,,,,,,,,,0,4,4,4,1,fifth,1,22,female,mixed,at home,2021-07-02_09h33.58.886,ImageRatingTask_S5,2021.1.4,MacIntel,62.5,,,,,,,,,,,,,,,,,
,,,,,,,,,,,,0,5,5,5,1,sixth,1,22,female,mixed,at home,2021-07-02_09h33.58.886,ImageRatingTask_S5,2021.1.4,MacIntel,62.5,,,,,,,,,,,,,,,,,
,,,,,,,,,,,,0,6,6,6,1,seventh,1,22,female,mixed,at home,2021-07-02_09h33.58.886,ImageRatingTask_S5,2021.1.4,MacIntel,62.5,,,,,,,,,,,,,,,,,
,,,,,,,,,,,,0,7,7,7,1,last,1,22,female,mixed,at home,2021-07-02_09h33.58.886,ImageRatingTask_S5,2021.1.4,MacIntel,62.5,,,,,,,,,,,,,,,,,
,,,,,,,,,,,,,,,,,,1,22,female,mixed,at home,2021-07-02_09h33.58.886,ImageRatingTask_S5,2021.1.4,MacIntel,62.5,0,70,70,38,1,DreamStudyImages_rs1000x750g/Food/IAPS7320_fruitbasket2.jpg,,,,,,,,,,,
,,6,1.411,1,2.538,9,2.033,1,1.254,2,1.982,0,0,0,0,1,main,1,22,female,mixed,at home,2021-07-02_09h33.58.886,ImageRatingTask_S5,2021.1.4,MacIntel,62.5,,,,,,,,,,,,,,,,,
,,,,,,,,,,,,0,1,1,1,1,second,1,22,female,mixed,at home,2021-07-02_09h33.58.886,ImageRatingTask_S5,2021.1.4,MacIntel,62.5,,,,,,,,,,,,,,,,,
,,,,,,,,,,,,0,2,2,2,1,third,1,22,female,mixed,at home,2021-07-02_09h33.58.886,ImageRatingTask_S5,2021.1.4,MacIntel,62.5,,,,,,,,,,,,,,,,,
,,,,,,,,,,,,0,3,3,3,1,fourth,1,22,female,mixed,at home,2021-07-02_09h33.58.886,ImageRatingTask_S5,2021.1.4,MacIntel,62.5,,,,,,,,,,,,,,,,,
,,,,,,,,,,,,0,4,4,4,1,fifth,1,22,female,mixed,at home,2021-07-02_09h33.58.886,ImageRatingTask_S5,2021.1.4,MacIntel,62.5,,,,,,,,,,,,,,,,,
,,,,,,,,,,,,0,5,5,5,1,sixth,1,22,female,mixed,at home,2021-07-02_09h33.58.886,ImageRatingTask_S5,2021.1.4,MacIntel,62.5,,,,,,,,,,,,,,,,,
,,,,,,,,,,,,0,6,6,6,1,seventh,1,22,female,mixed,at home,2021-07-02_09h33.58.886,ImageRatingTask_S5,2021.1.4,MacIntel,62.5,,,,,,,,,,,,,,,,,
,,,,,,,,,,,,0,7,7,7,1,last,1,22,female,mixed,at home,2021-07-02_09h33.58.886,ImageRatingTask_S5,2021.1.4,MacIntel,62.5,,,,,,,,,,,,,,,,,
,,,,,,,,,,,,,,,,,,1,22,female,mixed,at home,2021-07-02_09h33.58.886,ImageRatingTask_S5,2021.1.4,MacIntel,62.5,0,71,71,140,1,DreamStudyImages_rs1000x750g/Children/Faces_097_v.jpg,,,,,,,,,,,
,,5,3.461,1,0.505,7,1.592,1,0.573,6,1.005,0,0,0,0,1,main,1,22,female,mixed,at home,2021-07-02_09h33.58.886,ImageRatingTask_S5,2021.1.4,MacIntel,62.5,,,,,,,,,,,,,,,,,
,,,,,,,,,,,,0,1,1,1,1,second,1,22,female,mixed,at home,2021-07-02_09h33.58.886,ImageRatingTask_S5,2021.1.4,MacIntel,62.5,,,,,,,,,,,,,,,,,
,,,,,,,,,,,,0,2,2,2,1,third,1,22,female,mixed,at home,2021-07-02_09h33.58.886,ImageRatingTask_S5,2021.1.4,MacIntel,62.5,,,,,,,,,,,,,,,,,
,,,,,,,,,,,,0,3,3,3,1,fourth,1,22,female,mixed,at home,2021-07-02_09h33.58.886,ImageRatingTask_S5,2021.1.4,MacIntel,62.5,,,,,,,,,,,,,,,,,
,,,,,,,,,,,,0,4,4,4,1,fifth,1,22,female,mixed,at home,2021-07-02_09h33.58.886,ImageRatingTask_S5,2021.1.4,MacIntel,62.5,,,,,,,,,,,,,,,,,
,,,,,,,,,,,,0,5,5,5,1,sixth,1,22,female,mixed,at home,2021-07-02_09h33.58.886,ImageRatingTask_S5,2021.1.4,MacIntel,62.5,,,,,,,,,,,,,,,,,
,,,,,,,,,,,,0,6,6,6,1,seventh,1,22,female,mixed,at home,2021-07-02_09h33.58.886,ImageRatingTask_S5,2021.1.4,MacIntel,62.5,,,,,,,,,,,,,,,,,
,,,,,,,,,,,,0,7,7,7,1,last,1,22,female,mixed,at home,2021-07-02_09h33.58.886,ImageRatingTask_S5,2021.1.4,MacIntel,62.5,,,,,,,,,,,,,,,,,
,,,,,,,,,,,,,,,,,,1,22,female,mixed,at home,2021-07-02_09h33.58.886,ImageRatingTask_S5,2021.1.4,MacIntel,62.5,0,72,72,90,1,DreamStudyImages_rs1000x750g/Houses/City 1.jpg,,,,,,,,,,,
,,3,1.853,3,2.492,8,1.406,1,5.175,2,0.538,0,0,0,0,1,main,1,22,female,mixed,at home,2021-07-02_09h33.58.886,ImageRatingTask_S5,2021.1.4,MacIntel,62.5,,,,,,,,,,,,,,,,,
,,,,,,,,,,,,0,1,1,1,1,second,1,22,female,mixed,at home,2021-07-02_09h33.58.886,ImageRatingTask_S5,2021.1.4,MacIntel,62.5,,,,,,,,,,,,,,,,,
,,,,,,,,,,,,0,2,2,2,1,third,1,22,female,mixed,at home,2021-07-02_09h33.58.886,ImageRatingTask_S5,2021.1.4,MacIntel,62.5,,,,,,,,,,,,,,,,,
,,,,,,,,,,,,0,3,3,3,1,fourth,1,22,female,mixed,at home,2021-07-02_09h33.58.886,ImageRatingTask_S5,2021.1.4,MacIntel,62.5,,,,,,,,,,,,,,,,,
,,,,,,,,,,,,0,4,4,4,1,fifth,1,22,female,mixed,at home,2021-07-02_09h33.58.886,ImageRatingTask_S5,2021.1.4,MacIntel,62.5,,,,,,,,,,,,,,,,,
,,,,,,,,,,,,0,5,5,5,1,sixth,1,22,female,mixed,at home,2021-07-02_09h33.58.886,ImageRatingTask_S5,2021.1.4,MacIntel,62.5,,,,,,,,,,,,,,,,,
,,,,,,,,,,,,0,6,6,6,1,seventh,1,22,female,mixed,at home,2021-07-02_09h33.58.886,ImageRatingTask_S5,2021.1.4,MacIntel,62.5,,,,,,,,,,,,,,,,,
,,,,,,,,,,,,0,7,7,7,1,last,1,22,female,mixed,at home,2021-07-02_09h33.58.886,ImageRatingTask_S5,2021.1.4,MacIntel,62.5,,,,,,,,,,,,,,,,,
,,,,,,,,,,,,,,,,,,1,22,female,mixed,at home,2021-07-02_09h33.58.886,ImageRatingTask_S5,2021.1.4,MacIntel,62.5,0,73,73,101,1,DreamStudyImages_rs1000x750g/Children/People_040_h.jpg,,,,,,,,,,,
,,5,2.398,1,0.951,6,2.816,1,0.497,5,1.12,0,0,0,0,1,main,1,22,female,mixed,at home,2021-07-02_09h33.58.886,ImageRatingTask_S5,2021.1.4,MacIntel,62.5,,,,,,,,,,,,,,,,,
,,,,,,,,,,,,0,1,1,1,1,second,1,22,female,mixed,at home,2021-07-02_09h33.58.886,ImageRatingTask_S5,2021.1.4,MacIntel,62.5,,,,,,,,,,,,,,,,,
,,,,,,,,,,,,0,2,2,2,1,third,1,22,female,mixed,at home,2021-07-02_09h33.58.886,ImageRatingTask_S5,2021.1.4,MacIntel,62.5,,,,,,,,,,,,,,,,,
,,,,,,,,,,,,0,3,3,3,1,fourth,1,22,female,mixed,at home,2021-07-02_09h33.58.886,ImageRatingTask_S5,2021.1.4,MacIntel,62.5,,,,,,,,,,,,,,,,,
,,,,,,,,,,,,0,4,4,4,1,fifth,1,22,female,mixed,at home,2021-07-02_09h33.58.886,ImageRatingTask_S5,2021.1.4,MacIntel,62.5,,,,,,,,,,,,,,,,,
,,,,,,,,,,,,0,5,5,5,1,sixth,1,22,female,mixed,at home,2021-07-02_09h33.58.886,ImageRatingTask_S5,2021.1.4,MacIntel,62.5,,,,,,,,,,,,,,,,,
,,,,,,,,,,,,0,6,6,6,1,seventh,1,22,female,mixed,at home,2021-07-02_09h33.58.886,ImageRatingTask_S5,2021.1.4,MacIntel,62.5,,,,,,,,,,,,,,,,,
,,,,,,,,,,,,0,7,7,7,1,last,1,22,female,mixed,at home,2021-07-02_09h33.58.886,ImageRatingTask_S5,2021.1.4,MacIntel,62.5,,,,,,,,,,,,,,,,,
,,,,,,,,,,,,,,,,,,1,22,female,mixed,at home,2021-07-02_09h33.58.886,ImageRatingTask_S5,2021.1.4,MacIntel,62.5,0,74,74,141,1,DreamStudyImages_rs1000x750g/Food/IAPS7450_burger.jpg,,,,,,,,,,,
,,5,1.963,3,1.721,6,2.028,1,0.809,7,1.621,0,0,0,0,1,main,1,22,female,mixed,at home,2021-07-02_09h33.58.886,ImageRatingTask_S5,2021.1.4,MacIntel,62.5,,,,,,,,,,,,,,,,,
,,,,,,,,,,,,0,1,1,1,1,second,1,22,female,mixed,at home,2021-07-02_09h33.58.886,ImageRatingTask_S5,2021.1.4,MacIntel,62.5,,,,,,,,,,,,,,,,,
,,,,,,,,,,,,0,2,2,2,1,third,1,22,female,mixed,at home,2021-07-02_09h33.58.886,ImageRatingTask_S5,2021.1.4,MacIntel,62.5,,,,,,,,,,,,,,,,,
,,,,,,,,,,,,0,3,3,3,1,fourth,1,22,female,mixed,at home,2021-07-02_09h33.58.886,ImageRatingTask_S5,2021.1.4,MacIntel,62.5,,,,,,,,,,,,,,,,,
,,,,,,,,,,,,0,4,4,4,1,fifth,1,22,female,mixed,at home,2021-07-02_09h33.58.886,ImageRatingTask_S5,2021.1.4,MacIntel,62.5,,,,,,,,,,,,,,,,,
