slider_pre.response,slider_pre.rt,key_val.keys,key_val.rt,key_aro.keys,key_aro.rt,key_qual.keys,key_qual.rt,key_ncat.keys,key_ncat.rt,key_cats.keys,key_cats.rt,ncat_order.thisRepN,ncat_order.thisTrialN,ncat_order.thisN,ncat_order.thisIndex,ncat_order.ran,cond_cat,participant,age,gender,handedness (L/R),site (IMT/Donders),date,expName,psychopyVersion,OS,frameRate,img_trials.thisRepN,img_trials.thisTrialN,img_trials.thisN,img_trials.thisIndex,img_trials.ran,filename,slider_post.response,slider_post.rt,textbox_openfb.text
7,8.141,6,5.848,1,2.782,7,2.156,1,2.435,8,1.224,0,0,0,0,1,main,1,22,female,mixed,at home,2021-07-01_13h46.02.016,ImageRatingTask_S2,2021.1.4,MacIntel,58.82352941,,,,,,,,,
,,,,,,,,,,,,0,1,1,1,1,second,1,22,female,mixed,at home,2021-07-01_13h46.02.016,ImageRatingTask_S2,2021.1.4,MacIntel,58.82352941,,,,,,,,,
,,,,,,,,,,,,0,2,2,2,1,third,1,22,female,mixed,at home,2021-07-01_13h46.02.016,ImageRatingTask_S2,2021.1.4,MacIntel,58.82352941,,,,,,,,,
,,,,,,,,,,,,0,3,3,3,1,fourth,1,22,female,mixed,at home,2021-07-01_13h46.02.016,ImageRatingTask_S2,2021.1.4,MacIntel,58.82352941,,,,,,,,,
,,,,,,,,,,,,0,4,4,4,1,fifth,1,22,female,mixed,at home,2021-07-01_13h46.02.016,ImageRatingTask_S2,2021.1.4,MacIntel,58.82352941,,,,,,,,,
,,,,,,,,,,,,0,5,5,5,1,sixth,1,22,female,mixed,at home,2021-07-01_13h46.02.016,ImageRatingTask_S2,2021.1.4,MacIntel,58.82352941,,,,,,,,,
,,,,,,,,,,,,0,6,6,6,1,seventh,1,22,female,mixed,at home,2021-07-01_13h46.02.016,ImageRatingTask_S2,2021.1.4,MacIntel,58.82352941,,,,,,,,,
,,,,,,,,,,,,0,7,7,7,1,last,1,22,female,mixed,at home,2021-07-01_13h46.02.016,ImageRatingTask_S2,2021.1.4,MacIntel,58.82352941,,,,,,,,,
,,,,,,,,,,,,,,,,,,1,22,female,mixed,at home,2021-07-01_13h46.02.016,ImageRatingTask_S2,2021.1.4,MacIntel,58.82352941,0,0,0,114,1,DreamStudyImages_rs1000x750g/Water/Lake 4.jpg,,,
,,5,2.051,1,2.006,9,1.769,1,2.098,7,1.072,0,0,0,0,1,main,1,22,female,mixed,at home,2021-07-01_13h46.02.016,ImageRatingTask_S2,2021.1.4,MacIntel,58.82352941,,,,,,,,,
,,,,,,,,,,,,0,1,1,1,1,second,1,22,female,mixed,at home,2021-07-01_13h46.02.016,ImageRatingTask_S2,2021.1.4,MacIntel,58.82352941,,,,,,,,,
,,,,,,,,,,,,0,2,2,2,1,third,1,22,female,mixed,at home,2021-07-01_13h46.02.016,ImageRatingTask_S2,2021.1.4,MacIntel,58.82352941,,,,,,,,,
,,,,,,,,,,,,0,3,3,3,1,fourth,1,22,female,mixed,at home,2021-07-01_13h46.02.016,ImageRatingTask_S2,2021.1.4,MacIntel,58.82352941,,,,,,,,,
,,,,,,,,,,,,0,4,4,4,1,fifth,1,22,female,mixed,at home,2021-07-01_13h46.02.016,ImageRatingTask_S2,2021.1.4,MacIntel,58.82352941,,,,,,,,,
,,,,,,,,,,,,0,5,5,5,1,sixth,1,22,female,mixed,at home,2021-07-01_13h46.02.016,ImageRatingTask_S2,2021.1.4,MacIntel,58.82352941,,,,,,,,,
,,,,,,,,,,,,0,6,6,6,1,seventh,1,22,female,mixed,at home,2021-07-01_13h46.02.016,ImageRatingTask_S2,2021.1.4,MacIntel,58.82352941,,,,,,,,,
,,,,,,,,,,,,0,7,7,7,1,last,1,22,female,mixed,at home,2021-07-01_13h46.02.016,ImageRatingTask_S2,2021.1.4,MacIntel,58.82352941,,,,,,,,,
,,,,,,,,,,,,,,,,,,1,22,female,mixed,at home,2021-07-01_13h46.02.016,ImageRatingTask_S2,2021.1.4,MacIntel,58.82352941,0,1,1,40,1,DreamStudyImages_rs1000x750g/Vehicles/Objects_288_h.jpg,,,
,,4,5.993,3,2.387,6,3.935,1,1.674,8,2.753,0,0,0,0,1,main,1,22,female,mixed,at home,2021-07-01_13h46.02.016,ImageRatingTask_S2,2021.1.4,MacIntel,58.82352941,,,,,,,,,
,,,,,,,,,,,,0,1,1,1,1,second,1,22,female,mixed,at home,2021-07-01_13h46.02.016,ImageRatingTask_S2,2021.1.4,MacIntel,58.82352941,,,,,,,,,
,,,,,,,,,,,,0,2,2,2,1,third,1,22,female,mixed,at home,2021-07-01_13h46.02.016,ImageRatingTask_S2,2021.1.4,MacIntel,58.82352941,,,,,,,,,
,,,,,,,,,,,,0,3,3,3,1,fourth,1,22,female,mixed,at home,2021-07-01_13h46.02.016,ImageRatingTask_S2,2021.1.4,MacIntel,58.82352941,,,,,,,,,
,,,,,,,,,,,,0,4,4,4,1,fifth,1,22,female,mixed,at home,2021-07-01_13h46.02.016,ImageRatingTask_S2,2021.1.4,MacIntel,58.82352941,,,,,,,,,
,,,,,,,,,,,,0,5,5,5,1,sixth,1,22,female,mixed,at home,2021-07-01_13h46.02.016,ImageRatingTask_S2,2021.1.4,MacIntel,58.82352941,,,,,,,,,
,,,,,,,,,,,,0,6,6,6,1,seventh,1,22,female,mixed,at home,2021-07-01_13h46.02.016,ImageRatingTask_S2,2021.1.4,MacIntel,58.82352941,,,,,,,,,
,,,,,,,,,,,,0,7,7,7,1,last,1,22,female,mixed,at home,2021-07-01_13h46.02.016,ImageRatingTask_S2,2021.1.4,MacIntel,58.82352941,,,,,,,,,
,,,,,,,,,,,,,,,,,,1,22,female,mixed,at home,2021-07-01_13h46.02.016,ImageRatingTask_S2,2021.1.4,MacIntel,58.82352941,0,2,2,46,1,DreamStudyImages_rs1000x750g/Water/NDPS32_seafromabove.jpg,,,
,,4,6.999,3,2.848,8,3.72,1,1.457,2,0.971,0,0,0,0,1,main,1,22,female,mixed,at home,2021-07-01_13h46.02.016,ImageRatingTask_S2,2021.1.4,MacIntel,58.82352941,,,,,,,,,
,,,,,,,,,,,,0,1,1,1,1,second,1,22,female,mixed,at home,2021-07-01_13h46.02.016,ImageRatingTask_S2,2021.1.4,MacIntel,58.82352941,,,,,,,,,
,,,,,,,,,,,,0,2,2,2,1,third,1,22,female,mixed,at home,2021-07-01_13h46.02.016,ImageRatingTask_S2,2021.1.4,MacIntel,58.82352941,,,,,,,,,
,,,,,,,,,,,,0,3,3,3,1,fourth,1,22,female,mixed,at home,2021-07-01_13h46.02.016,ImageRatingTask_S2,2021.1.4,MacIntel,58.82352941,,,,,,,,,
,,,,,,,,,,,,0,4,4,4,1,fifth,1,22,female,mixed,at home,2021-07-01_13h46.02.016,ImageRatingTask_S2,2021.1.4,MacIntel,58.82352941,,,,,,,,,
,,,,,,,,,,,,0,5,5,5,1,sixth,1,22,female,mixed,at home,2021-07-01_13h46.02.016,ImageRatingTask_S2,2021.1.4,MacIntel,58.82352941,,,,,,,,,
,,,,,,,,,,,,0,6,6,6,1,seventh,1,22,female,mixed,at home,2021-07-01_13h46.02.016,ImageRatingTask_S2,2021.1.4,MacIntel,58.82352941,,,,,,,,,
,,,,,,,,,,,,0,7,7,7,1,last,1,22,female,mixed,at home,2021-07-01_13h46.02.016,ImageRatingTask_S2,2021.1.4,MacIntel,58.82352941,,,,,,,,,
,,,,,,,,,,,,,,,,,,1,22,female,mixed,at home,2021-07-01_13h46.02.016,ImageRatingTask_S2,2021.1.4,MacIntel,58.82352941,0,3,3,90,1,DreamStudyImages_rs1000x750g/Children/People_036_h.jpg,,,
,,6,3.24,2,1.49,6,3.709,1,1.36,3,2.425,0,0,0,0,1,main,1,22,female,mixed,at home,2021-07-01_13h46.02.016,ImageRatingTask_S2,2021.1.4,MacIntel,58.82352941,,,,,,,,,
,,,,,,,,,,,,0,1,1,1,1,second,1,22,female,mixed,at home,2021-07-01_13h46.02.016,ImageRatingTask_S2,2021.1.4,MacIntel,58.82352941,,,,,,,,,
,,,,,,,,,,,,0,2,2,2,1,third,1,22,female,mixed,at home,2021-07-01_13h46.02.016,ImageRatingTask_S2,2021.1.4,MacIntel,58.82352941,,,,,,,,,
,,,,,,,,,,,,0,3,3,3,1,fourth,1,22,female,mixed,at home,2021-07-01_13h46.02.016,ImageRatingTask_S2,2021.1.4,MacIntel,58.82352941,,,,,,,,,
,,,,,,,,,,,,0,4,4,4,1,fifth,1,22,female,mixed,at home,2021-07-01_13h46.02.016,ImageRatingTask_S2,2021.1.4,MacIntel,58.82352941,,,,,,,,,
,,,,,,,,,,,,0,5,5,5,1,sixth,1,22,female,mixed,at home,2021-07-01_13h46.02.016,ImageRatingTask_S2,2021.1.4,MacIntel,58.82352941,,,,,,,,,
,,,,,,,,,,,,0,6,6,6,1,seventh,1,22,female,mixed,at home,2021-07-01_13h46.02.016,ImageRatingTask_S2,2021.1.4,MacIntel,58.82352941,,,,,,,,,
,,,,,,,,,,,,0,7,7,7,1,last,1,22,female,mixed,at home,2021-07-01_13h46.02.016,ImageRatingTask_S2,2021.1.4,MacIntel,58.82352941,,,,,,,,,
,,,,,,,,,,,,,,,,,,1,22,female,mixed,at home,2021-07-01_13h46.02.016,ImageRatingTask_S2,2021.1.4,MacIntel,58.82352941,0,4,4,23,1,DreamStudyImages_rs1000x750g/Mammals/IAPS1441_polarbear.jpg,,,
,,6,3.714,2,1.419,9,2.099,1,1.001,8,1.664,0,0,0,0,1,main,1,22,female,mixed,at home,2021-07-01_13h46.02.016,ImageRatingTask_S2,2021.1.4,MacIntel,58.82352941,,,,,,,,,
,,,,,,,,,,,,0,1,1,1,1,second,1,22,female,mixed,at home,2021-07-01_13h46.02.016,ImageRatingTask_S2,2021.1.4,MacIntel,58.82352941,,,,,,,,,
,,,,,,,,,,,,0,2,2,2,1,third,1,22,female,mixed,at home,2021-07-01_13h46.02.016,ImageRatingTask_S2,2021.1.4,MacIntel,58.82352941,,,,,,,,,
,,,,,,,,,,,,0,3,3,3,1,fourth,1,22,female,mixed,at home,2021-07-01_13h46.02.016,ImageRatingTask_S2,2021.1.4,MacIntel,58.82352941,,,,,,,,,
,,,,,,,,,,,,0,4,4,4,1,fifth,1,22,female,mixed,at home,2021-07-01_13h46.02.016,ImageRatingTask_S2,2021.1.4,MacIntel,58.82352941,,,,,,,,,
,,,,,,,,,,,,0,5,5,5,1,sixth,1,22,female,mixed,at home,2021-07-01_13h46.02.016,ImageRatingTask_S2,2021.1.4,MacIntel,58.82352941,,,,,,,,,
,,,,,,,,,,,,0,6,6,6,1,seventh,1,22,female,mixed,at home,2021-07-01_13h46.02.016,ImageRatingTask_S2,2021.1.4,MacIntel,58.82352941,,,,,,,,,
,,,,,,,,,,,,0,7,7,7,1,last,1,22,female,mixed,at home,2021-07-01_13h46.02.016,ImageRatingTask_S2,2021.1.4,MacIntel,58.82352941,,,,,,,,,
,,,,,,,,,,,,,,,,,,1,22,female,mixed,at home,2021-07-01_13h46.02.016,ImageRatingTask_S2,2021.1.4,MacIntel,58.82352941,0,5,5,106,1,DreamStudyImages_rs1000x750g/Water/NDPS125_volcanicwater.jpg,,,
,,4,2.572,2,1.479,9,1.684,1,1.026,3,1.978,0,0,0,0,1,main,1,22,female,mixed,at home,2021-07-01_13h46.02.016,ImageRatingTask_S2,2021.1.4,MacIntel,58.82352941,,,,,,,,,
,,,,,,,,,,,,0,1,1,1,1,second,1,22,female,mixed,at home,2021-07-01_13h46.02.016,ImageRatingTask_S2,2021.1.4,MacIntel,58.82352941,,,,,,,,,
,,,,,,,,,,,,0,2,2,2,1,third,1,22,female,mixed,at home,2021-07-01_13h46.02.016,ImageRatingTask_S2,2021.1.4,MacIntel,58.82352941,,,,,,,,,
,,,,,,,,,,,,0,3,3,3,1,fourth,1,22,female,mixed,at home,2021-07-01_13h46.02.016,ImageRatingTask_S2,2021.1.4,MacIntel,58.82352941,,,,,,,,,
,,,,,,,,,,,,0,4,4,4,1,fifth,1,22,female,mixed,at home,2021-07-01_13h46.02.016,ImageRatingTask_S2,2021.1.4,MacIntel,58.82352941,,,,,,,,,
,,,,,,,,,,,,0,5,5,5,1,sixth,1,22,female,mixed,at home,2021-07-01_13h46.02.016,ImageRatingTask_S2,2021.1.4,MacIntel,58.82352941,,,,,,,,,
,,,,,,,,,,,,0,6,6,6,1,seventh,1,22,female,mixed,at home,2021-07-01_13h46.02.016,ImageRatingTask_S2,2021.1.4,MacIntel,58.82352941,,,,,,,,,
,,,,,,,,,,,,0,7,7,7,1,last,1,22,female,mixed,at home,2021-07-01_13h46.02.016,ImageRatingTask_S2,2021.1.4,MacIntel,58.82352941,,,,,,,,,
,,,,,,,,,,,,,,,,,,1,22,female,mixed,at home,2021-07-01_13h46.02.016,ImageRatingTask_S2,2021.1.4,MacIntel,58.82352941,0,6,6,30,1,DreamStudyImages_rs1000x750g/Mammals/Animals_076_v.jpg,,,
,,6,3.405,1,0.688,8,2.017,1,1.152,8,0.504,0,0,0,0,1,main,1,22,female,mixed,at home,2021-07-01_13h46.02.016,ImageRatingTask_S2,2021.1.4,MacIntel,58.82352941,,,,,,,,,
,,,,,,,,,,,,0,1,1,1,1,second,1,22,female,mixed,at home,2021-07-01_13h46.02.016,ImageRatingTask_S2,2021.1.4,MacIntel,58.82352941,,,,,,,,,
,,,,,,,,,,,,0,2,2,2,1,third,1,22,female,mixed,at home,2021-07-01_13h46.02.016,ImageRatingTask_S2,2021.1.4,MacIntel,58.82352941,,,,,,,,,
,,,,,,,,,,,,0,3,3,3,1,fourth,1,22,female,mixed,at home,2021-07-01_13h46.02.016,ImageRatingTask_S2,2021.1.4,MacIntel,58.82352941,,,,,,,,,
,,,,,,,,,,,,0,4,4,4,1,fifth,1,22,female,mixed,at home,2021-07-01_13h46.02.016,ImageRatingTask_S2,2021.1.4,MacIntel,58.82352941,,,,,,,,,
,,,,,,,,,,,,0,5,5,5,1,sixth,1,22,female,mixed,at home,2021-07-01_13h46.02.016,ImageRatingTask_S2,2021.1.4,MacIntel,58.82352941,,,,,,,,,
,,,,,,,,,,,,0,6,6,6,1,seventh,1,22,female,mixed,at home,2021-07-01_13h46.02.016,ImageRatingTask_S2,2021.1.4,MacIntel,58.82352941,,,,,,,,,
,,,,,,,,,,,,0,7,7,7,1,last,1,22,female,mixed,at home,2021-07-01_13h46.02.016,ImageRatingTask_S2,2021.1.4,MacIntel,58.82352941,,,,,,,,,
,,,,,,,,,,,,,,,,,,1,22,female,mixed,at home,2021-07-01_13h46.02.016,ImageRatingTask_S2,2021.1.4,MacIntel,58.82352941,0,7,7,25,1,DreamStudyImages_rs1000x750g/Water/Landscapes_116_v.jpg,,,
,,1,7.575,6,3.886,5,3.278,2,6.488,8,3.035,0,0,0,0,1,main,1,22,female,mixed,at home,2021-07-01_13h46.02.016,ImageRatingTask_S2,2021.1.4,MacIntel,58.82352941,,,,,,,,,
,,,,,,,,,,6,1.771,0,1,1,1,1,second,1,22,female,mixed,at home,2021-07-01_13h46.02.016,ImageRatingTask_S2,2021.1.4,MacIntel,58.82352941,,,,,,,,,
,,,,,,,,,,,,0,2,2,2,1,third,1,22,female,mixed,at home,2021-07-01_13h46.02.016,ImageRatingTask_S2,2021.1.4,MacIntel,58.82352941,,,,,,,,,
,,,,,,,,,,,,0,3,3,3,1,fourth,1,22,female,mixed,at home,2021-07-01_13h46.02.016,ImageRatingTask_S2,2021.1.4,MacIntel,58.82352941,,,,,,,,,
,,,,,,,,,,,,0,4,4,4,1,fifth,1,22,female,mixed,at home,2021-07-01_13h46.02.016,ImageRatingTask_S2,2021.1.4,MacIntel,58.82352941,,,,,,,,,
,,,,,,,,,,,,0,5,5,5,1,sixth,1,22,female,mixed,at home,2021-07-01_13h46.02.016,ImageRatingTask_S2,2021.1.4,MacIntel,58.82352941,,,,,,,,,
,,,,,,,,,,,,0,6,6,6,1,seventh,1,22,female,mixed,at home,2021-07-01_13h46.02.016,ImageRatingTask_S2,2021.1.4,MacIntel,58.82352941,,,,,,,,,
,,,,,,,,,,,,0,7,7,7,1,last,1,22,female,mixed,at home,2021-07-01_13h46.02.016,ImageRatingTask_S2,2021.1.4,MacIntel,58.82352941,,,,,,,,,
,,,,,,,,,,,,,,,,,,1,22,female,mixed,at home,2021-07-01_13h46.02.016,ImageRatingTask_S2,2021.1.4,MacIntel,58.82352941,0,8,8,16,1,DreamStudyImages_rs1000x750g/Water/Explosion 5.jpg,,,
,,5,5.205,1,1.556,7,2.152,1,1.659,8,2.989,0,0,0,0,1,main,1,22,female,mixed,at home,2021-07-01_13h46.02.016,ImageRatingTask_S2,2021.1.4,MacIntel,58.82352941,,,,,,,,,
,,,,,,,,,,,,0,1,1,1,1,second,1,22,female,mixed,at home,2021-07-01_13h46.02.016,ImageRatingTask_S2,2021.1.4,MacIntel,58.82352941,,,,,,,,,
,,,,,,,,,,,,0,2,2,2,1,third,1,22,female,mixed,at home,2021-07-01_13h46.02.016,ImageRatingTask_S2,2021.1.4,MacIntel,58.82352941,,,,,,,,,
,,,,,,,,,,,,0,3,3,3,1,fourth,1,22,female,mixed,at home,2021-07-01_13h46.02.016,ImageRatingTask_S2,2021.1.4,MacIntel,58.82352941,,,,,,,,,
,,,,,,,,,,,,0,4,4,4,1,fifth,1,22,female,mixed,at home,2021-07-01_13h46.02.016,ImageRatingTask_S2,2021.1.4,MacIntel,58.82352941,,,,,,,,,
,,,,,,,,,,,,0,5,5,5,1,sixth,1,22,female,mixed,at home,2021-07-01_13h46.02.016,ImageRatingTask_S2,2021.1.4,MacIntel,58.82352941,,,,,,,,,
,,,,,,,,,,,,0,6,6,6,1,seventh,1,22,female,mixed,at home,2021-07-01_13h46.02.016,ImageRatingTask_S2,2021.1.4,MacIntel,58.82352941,,,,,,,,,
,,,,,,,,,,,,0,7,7,7,1,last,1,22,female,mixed,at home,2021-07-01_13h46.02.016,ImageRatingTask_S2,2021.1.4,MacIntel,58.82352941,,,,,,,,,
,,,,,,,,,,,,,,,,,,1,22,female,mixed,at home,2021-07-01_13h46.02.016,ImageRatingTask_S2,2021.1.4,MacIntel,58.82352941,0,9,9,96,1,DreamStudyImages_rs1000x750g/Water/sydneyopera.jpg,,,
,,5,2.328,1,1.225,7,1.925,1,0.882,3,0.971,0,0,0,0,1,main,1,22,female,mixed,at home,2021-07-01_13h46.02.016,ImageRatingTask_S2,2021.1.4,MacIntel,58.82352941,,,,,,,,,
,,,,,,,,,,,,0,1,1,1,1,second,1,22,female,mixed,at home,2021-07-01_13h46.02.016,ImageRatingTask_S2,2021.1.4,MacIntel,58.82352941,,,,,,,,,
,,,,,,,,,,,,0,2,2,2,1,third,1,22,female,mixed,at home,2021-07-01_13h46.02.016,ImageRatingTask_S2,2021.1.4,MacIntel,58.82352941,,,,,,,,,
,,,,,,,,,,,,0,3,3,3,1,fourth,1,22,female,mixed,at home,2021-07-01_13h46.02.016,ImageRatingTask_S2,2021.1.4,MacIntel,58.82352941,,,,,,,,,
,,,,,,,,,,,,0,4,4,4,1,fifth,1,22,female,mixed,at home,2021-07-01_13h46.02.016,ImageRatingTask_S2,2021.1.4,MacIntel,58.82352941,,,,,,,,,
,,,,,,,,,,,,0,5,5,5,1,sixth,1,22,female,mixed,at home,2021-07-01_13h46.02.016,ImageRatingTask_S2,2021.1.4,MacIntel,58.82352941,,,,,,,,,
,,,,,,,,,,,,0,6,6,6,1,seventh,1,22,female,mixed,at home,2021-07-01_13h46.02.016,ImageRatingTask_S2,2021.1.4,MacIntel,58.82352941,,,,,,,,,
,,,,,,,,,,,,0,7,7,7,1,last,1,22,female,mixed,at home,2021-07-01_13h46.02.016,ImageRatingTask_S2,2021.1.4,MacIntel,58.82352941,,,,,,,,,
,,,,,,,,,,,,,,,,,,1,22,female,mixed,at home,2021-07-01_13h46.02.016,ImageRatingTask_S2,2021.1.4,MacIntel,58.82352941,0,10,10,82,1,DreamStudyImages_rs1000x750g/Mammals/IAPS1661_orangutan.jpg,,,
,,5,4.374,1,1.555,8,2.044,1,1.892,5,1.243,0,0,0,0,1,main,1,22,female,mixed,at home,2021-07-01_13h46.02.016,ImageRatingTask_S2,2021.1.4,MacIntel,58.82352941,,,,,,,,,
,,,,,,,,,,,,0,1,1,1,1,second,1,22,female,mixed,at home,2021-07-01_13h46.02.016,ImageRatingTask_S2,2021.1.4,MacIntel,58.82352941,,,,,,,,,
,,,,,,,,,,,,0,2,2,2,1,third,1,22,female,mixed,at home,2021-07-01_13h46.02.016,ImageRatingTask_S2,2021.1.4,MacIntel,58.82352941,,,,,,,,,
,,,,,,,,,,,,0,3,3,3,1,fourth,1,22,female,mixed,at home,2021-07-01_13h46.02.016,ImageRatingTask_S2,2021.1.4,MacIntel,58.82352941,,,,,,,,,
,,,,,,,,,,,,0,4,4,4,1,fifth,1,22,female,mixed,at home,2021-07-01_13h46.02.016,ImageRatingTask_S2,2021.1.4,MacIntel,58.82352941,,,,,,,,,
,,,,,,,,,,,,0,5,5,5,1,sixth,1,22,female,mixed,at home,2021-07-01_13h46.02.016,ImageRatingTask_S2,2021.1.4,MacIntel,58.82352941,,,,,,,,,
,,,,,,,,,,,,0,6,6,6,1,seventh,1,22,female,mixed,at home,2021-07-01_13h46.02.016,ImageRatingTask_S2,2021.1.4,MacIntel,58.82352941,,,,,,,,,
,,,,,,,,,,,,0,7,7,7,1,last,1,22,female,mixed,at home,2021-07-01_13h46.02.016,ImageRatingTask_S2,2021.1.4,MacIntel,58.82352941,,,,,,,,,
,,,,,,,,,,,,,,,,,,1,22,female,mixed,at home,2021-07-01_13h46.02.016,ImageRatingTask_S2,2021.1.4,MacIntel,58.82352941,0,11,11,95,1,DreamStudyImages_rs1000x750g/Food/Objects_064_v.jpg,,,
,,6,6.838,2,2.6,8,3.925,1,1.203,8,1.06,0,0,0,0,1,main,1,22,female,mixed,at home,2021-07-01_13h46.02.016,ImageRatingTask_S2,2021.1.4,MacIntel,58.82352941,,,,,,,,,
,,,,,,,,,,,,0,1,1,1,1,second,1,22,female,mixed,at home,2021-07-01_13h46.02.016,ImageRatingTask_S2,2021.1.4,MacIntel,58.82352941,,,,,,,,,
,,,,,,,,,,,,0,2,2,2,1,third,1,22,female,mixed,at home,2021-07-01_13h46.02.016,ImageRatingTask_S2,2021.1.4,MacIntel,58.82352941,,,,,,,,,
,,,,,,,,,,,,0,3,3,3,1,fourth,1,22,female,mixed,at home,2021-07-01_13h46.02.016,ImageRatingTask_S2,2021.1.4,MacIntel,58.82352941,,,,,,,,,
,,,,,,,,,,,,0,4,4,4,1,fifth,1,22,female,mixed,at home,2021-07-01_13h46.02.016,ImageRatingTask_S2,2021.1.4,MacIntel,58.82352941,,,,,,,,,
,,,,,,,,,,,,0,5,5,5,1,sixth,1,22,female,mixed,at home,2021-07-01_13h46.02.016,ImageRatingTask_S2,2021.1.4,MacIntel,58.82352941,,,,,,,,,
,,,,,,,,,,,,0,6,6,6,1,seventh,1,22,female,mixed,at home,2021-07-01_13h46.02.016,ImageRatingTask_S2,2021.1.4,MacIntel,58.82352941,,,,,,,,,
,,,,,,,,,,,,0,7,7,7,1,last,1,22,female,mixed,at home,2021-07-01_13h46.02.016,ImageRatingTask_S2,2021.1.4,MacIntel,58.82352941,,,,,,,,,
,,,,,,,,,,,,,,,,,,1,22,female,mixed,at home,2021-07-01_13h46.02.016,ImageRatingTask_S2,2021.1.4,MacIntel,58.82352941,0,12,12,123,1,DreamStudyImages_rs1000x750g/Water/sunsetlake.jpg,,,
,,5,5.854,3,2.722,7,2.434,1,1.113,8,1.382,0,0,0,0,1,main,1,22,female,mixed,at home,2021-07-01_13h46.02.016,ImageRatingTask_S2,2021.1.4,MacIntel,58.82352941,,,,,,,,,
,,,,,,,,,,,,0,1,1,1,1,second,1,22,female,mixed,at home,2021-07-01_13h46.02.016,ImageRatingTask_S2,2021.1.4,MacIntel,58.82352941,,,,,,,,,
,,,,,,,,,,,,0,2,2,2,1,third,1,22,female,mixed,at home,2021-07-01_13h46.02.016,ImageRatingTask_S2,2021.1.4,MacIntel,58.82352941,,,,,,,,,
,,,,,,,,,,,,0,3,3,3,1,fourth,1,22,female,mixed,at home,2021-07-01_13h46.02.016,ImageRatingTask_S2,2021.1.4,MacIntel,58.82352941,,,,,,,,,
,,,,,,,,,,,,0,4,4,4,1,fifth,1,22,female,mixed,at home,2021-07-01_13h46.02.016,ImageRatingTask_S2,2021.1.4,MacIntel,58.82352941,,,,,,,,,
,,,,,,,,,,,,0,5,5,5,1,sixth,1,22,female,mixed,at home,2021-07-01_13h46.02.016,ImageRatingTask_S2,2021.1.4,MacIntel,58.82352941,,,,,,,,,
,,,,,,,,,,,,0,6,6,6,1,seventh,1,22,female,mixed,at home,2021-07-01_13h46.02.016,ImageRatingTask_S2,2021.1.4,MacIntel,58.82352941,,,,,,,,,
,,,,,,,,,,,,0,7,7,7,1,last,1,22,female,mixed,at home,2021-07-01_13h46.02.016,ImageRatingTask_S2,2021.1.4,MacIntel,58.82352941,,,,,,,,,
,,,,,,,,,,,,,,,,,,1,22,female,mixed,at home,2021-07-01_13h46.02.016,ImageRatingTask_S2,2021.1.4,MacIntel,58.82352941,0,13,13,134,1,DreamStudyImages_rs1000x750g/Water/NDPS124_swamp.jpg,,,
,,8,3.643,3,1.908,9,1.808,1,1.737,3,1.064,0,0,0,0,1,main,1,22,female,mixed,at home,2021-07-01_13h46.02.016,ImageRatingTask_S2,2021.1.4,MacIntel,58.82352941,,,,,,,,,
,,,,,,,,,,,,0,1,1,1,1,second,1,22,female,mixed,at home,2021-07-01_13h46.02.016,ImageRatingTask_S2,2021.1.4,MacIntel,58.82352941,,,,,,,,,
,,,,,,,,,,,,0,2,2,2,1,third,1,22,female,mixed,at home,2021-07-01_13h46.02.016,ImageRatingTask_S2,2021.1.4,MacIntel,58.82352941,,,,,,,,,
,,,,,,,,,,,,0,3,3,3,1,fourth,1,22,female,mixed,at home,2021-07-01_13h46.02.016,ImageRatingTask_S2,2021.1.4,MacIntel,58.82352941,,,,,,,,,
,,,,,,,,,,,,0,4,4,4,1,fifth,1,22,female,mixed,at home,2021-07-01_13h46.02.016,ImageRatingTask_S2,2021.1.4,MacIntel,58.82352941,,,,,,,,,
,,,,,,,,,,,,0,5,5,5,1,sixth,1,22,female,mixed,at home,2021-07-01_13h46.02.016,ImageRatingTask_S2,2021.1.4,MacIntel,58.82352941,,,,,,,,,
,,,,,,,,,,,,0,6,6,6,1,seventh,1,22,female,mixed,at home,2021-07-01_13h46.02.016,ImageRatingTask_S2,2021.1.4,MacIntel,58.82352941,,,,,,,,,
,,,,,,,,,,,,0,7,7,7,1,last,1,22,female,mixed,at home,2021-07-01_13h46.02.016,ImageRatingTask_S2,2021.1.4,MacIntel,58.82352941,,,,,,,,,
,,,,,,,,,,,,,,,,,,1,22,female,mixed,at home,2021-07-01_13h46.02.016,ImageRatingTask_S2,2021.1.4,MacIntel,58.82352941,0,14,14,2,1,DreamStudyImages_rs1000x750g/Mammals/IAPS1630_deer.jpg,,,
,,4,5.955,3,1.335,6,2.637,2,3.144,3,2.209,0,0,0,0,1,main,1,22,female,mixed,at home,2021-07-01_13h46.02.016,ImageRatingTask_S2,2021.1.4,MacIntel,58.82352941,,,,,,,,,
,,,,,,,,,,5,1.148,0,1,1,1,1,second,1,22,female,mixed,at home,2021-07-01_13h46.02.016,ImageRatingTask_S2,2021.1.4,MacIntel,58.82352941,,,,,,,,,
,,,,,,,,,,,,0,2,2,2,1,third,1,22,female,mixed,at home,2021-07-01_13h46.02.016,ImageRatingTask_S2,2021.1.4,MacIntel,58.82352941,,,,,,,,,
,,,,,,,,,,,,0,3,3,3,1,fourth,1,22,female,mixed,at home,2021-07-01_13h46.02.016,ImageRatingTask_S2,2021.1.4,MacIntel,58.82352941,,,,,,,,,
,,,,,,,,,,,,0,4,4,4,1,fifth,1,22,female,mixed,at home,2021-07-01_13h46.02.016,ImageRatingTask_S2,2021.1.4,MacIntel,58.82352941,,,,,,,,,
,,,,,,,,,,,,0,5,5,5,1,sixth,1,22,female,mixed,at home,2021-07-01_13h46.02.016,ImageRatingTask_S2,2021.1.4,MacIntel,58.82352941,,,,,,,,,
,,,,,,,,,,,,0,6,6,6,1,seventh,1,22,female,mixed,at home,2021-07-01_13h46.02.016,ImageRatingTask_S2,2021.1.4,MacIntel,58.82352941,,,,,,,,,
,,,,,,,,,,,,0,7,7,7,1,last,1,22,female,mixed,at home,2021-07-01_13h46.02.016,ImageRatingTask_S2,2021.1.4,MacIntel,58.82352941,,,,,,,,,
,,,,,,,,,,,,,,,,,,1,22,female,mixed,at home,2021-07-01_13h46.02.016,ImageRatingTask_S2,2021.1.4,MacIntel,58.82352941,0,15,15,6,1,DreamStudyImages_rs1000x750g/Mammals/IAPS1310_bigcat.jpg,,,
,,6,2.295,2,1.835,6,2.633,1,3.227,3,1.006,0,0,0,0,1,main,1,22,female,mixed,at home,2021-07-01_13h46.02.016,ImageRatingTask_S2,2021.1.4,MacIntel,58.82352941,,,,,,,,,
,,,,,,,,,,,,0,1,1,1,1,second,1,22,female,mixed,at home,2021-07-01_13h46.02.016,ImageRatingTask_S2,2021.1.4,MacIntel,58.82352941,,,,,,,,,
,,,,,,,,,,,,0,2,2,2,1,third,1,22,female,mixed,at home,2021-07-01_13h46.02.016,ImageRatingTask_S2,2021.1.4,MacIntel,58.82352941,,,,,,,,,
,,,,,,,,,,,,0,3,3,3,1,fourth,1,22,female,mixed,at home,2021-07-01_13h46.02.016,ImageRatingTask_S2,2021.1.4,MacIntel,58.82352941,,,,,,,,,
,,,,,,,,,,,,0,4,4,4,1,fifth,1,22,female,mixed,at home,2021-07-01_13h46.02.016,ImageRatingTask_S2,2021.1.4,MacIntel,58.82352941,,,,,,,,,
,,,,,,,,,,,,0,5,5,5,1,sixth,1,22,female,mixed,at home,2021-07-01_13h46.02.016,ImageRatingTask_S2,2021.1.4,MacIntel,58.82352941,,,,,,,,,
,,,,,,,,,,,,0,6,6,6,1,seventh,1,22,female,mixed,at home,2021-07-01_13h46.02.016,ImageRatingTask_S2,2021.1.4,MacIntel,58.82352941,,,,,,,,,
,,,,,,,,,,,,0,7,7,7,1,last,1,22,female,mixed,at home,2021-07-01_13h46.02.016,ImageRatingTask_S2,2021.1.4,MacIntel,58.82352941,,,,,,,,,
,,,,,,,,,,,,,,,,,,1,22,female,mixed,at home,2021-07-01_13h46.02.016,ImageRatingTask_S2,2021.1.4,MacIntel,58.82352941,0,16,16,144,1,DreamStudyImages_rs1000x750g/Mammals/IAPS1460_babycat.jpg,,,
,,5,2.605,1,0.987,7,1.854,1,0.846,3,1.391,0,0,0,0,1,main,1,22,female,mixed,at home,2021-07-01_13h46.02.016,ImageRatingTask_S2,2021.1.4,MacIntel,58.82352941,,,,,,,,,
,,,,,,,,,,,,0,1,1,1,1,second,1,22,female,mixed,at home,2021-07-01_13h46.02.016,ImageRatingTask_S2,2021.1.4,MacIntel,58.82352941,,,,,,,,,
,,,,,,,,,,,,0,2,2,2,1,third,1,22,female,mixed,at home,2021-07-01_13h46.02.016,ImageRatingTask_S2,2021.1.4,MacIntel,58.82352941,,,,,,,,,
,,,,,,,,,,,,0,3,3,3,1,fourth,1,22,female,mixed,at home,2021-07-01_13h46.02.016,ImageRatingTask_S2,2021.1.4,MacIntel,58.82352941,,,,,,,,,
,,,,,,,,,,,,0,4,4,4,1,fifth,1,22,female,mixed,at home,2021-07-01_13h46.02.016,ImageRatingTask_S2,2021.1.4,MacIntel,58.82352941,,,,,,,,,
,,,,,,,,,,,,0,5,5,5,1,sixth,1,22,female,mixed,at home,2021-07-01_13h46.02.016,ImageRatingTask_S2,2021.1.4,MacIntel,58.82352941,,,,,,,,,
,,,,,,,,,,,,0,6,6,6,1,seventh,1,22,female,mixed,at home,2021-07-01_13h46.02.016,ImageRatingTask_S2,2021.1.4,MacIntel,58.82352941,,,,,,,,,
,,,,,,,,,,,,0,7,7,7,1,last,1,22,female,mixed,at home,2021-07-01_13h46.02.016,ImageRatingTask_S2,2021.1.4,MacIntel,58.82352941,,,,,,,,,
,,,,,,,,,,,,,,,,,,1,22,female,mixed,at home,2021-07-01_13h46.02.016,ImageRatingTask_S2,2021.1.4,MacIntel,58.82352941,0,17,17,154,1,DreamStudyImages_rs1000x750g/Mammals/Animals_171_h.jpg,,,
,,6,2.654,1,2.103,7,2.162,1,1.168,8,1.21,0,0,0,0,1,main,1,22,female,mixed,at home,2021-07-01_13h46.02.016,ImageRatingTask_S2,2021.1.4,MacIntel,58.82352941,,,,,,,,,
,,,,,,,,,,,,0,1,1,1,1,second,1,22,female,mixed,at home,2021-07-01_13h46.02.016,ImageRatingTask_S2,2021.1.4,MacIntel,58.82352941,,,,,,,,,
,,,,,,,,,,,,0,2,2,2,1,third,1,22,female,mixed,at home,2021-07-01_13h46.02.016,ImageRatingTask_S2,2021.1.4,MacIntel,58.82352941,,,,,,,,,
,,,,,,,,,,,,0,3,3,3,1,fourth,1,22,female,mixed,at home,2021-07-01_13h46.02.016,ImageRatingTask_S2,2021.1.4,MacIntel,58.82352941,,,,,,,,,
,,,,,,,,,,,,0,4,4,4,1,fifth,1,22,female,mixed,at home,2021-07-01_13h46.02.016,ImageRatingTask_S2,2021.1.4,MacIntel,58.82352941,,,,,,,,,
,,,,,,,,,,,,0,5,5,5,1,sixth,1,22,female,mixed,at home,2021-07-01_13h46.02.016,ImageRatingTask_S2,2021.1.4,MacIntel,58.82352941,,,,,,,,,
,,,,,,,,,,,,0,6,6,6,1,seventh,1,22,female,mixed,at home,2021-07-01_13h46.02.016,ImageRatingTask_S2,2021.1.4,MacIntel,58.82352941,,,,,,,,,
,,,,,,,,,,,,0,7,7,7,1,last,1,22,female,mixed,at home,2021-07-01_13h46.02.016,ImageRatingTask_S2,2021.1.4,MacIntel,58.82352941,,,,,,,,,
,,,,,,,,,,,,,,,,,,1,22,female,mixed,at home,2021-07-01_13h46.02.016,ImageRatingTask_S2,2021.1.4,MacIntel,58.82352941,0,18,18,58,1,DreamStudyImages_rs1000x750g/Water/Sunset 6.jpg,,,
,,6,1.884,1,0.993,9,3.503,1,1.108,3,1.519,0,0,0,0,1,main,1,22,female,mixed,at home,2021-07-01_13h46.02.016,ImageRatingTask_S2,2021.1.4,MacIntel,58.82352941,,,,,,,,,
,,,,,,,,,,,,0,1,1,1,1,second,1,22,female,mixed,at home,2021-07-01_13h46.02.016,ImageRatingTask_S2,2021.1.4,MacIntel,58.82352941,,,,,,,,,
,,,,,,,,,,,,0,2,2,2,1,third,1,22,female,mixed,at home,2021-07-01_13h46.02.016,ImageRatingTask_S2,2021.1.4,MacIntel,58.82352941,,,,,,,,,
,,,,,,,,,,,,0,3,3,3,1,fourth,1,22,female,mixed,at home,2021-07-01_13h46.02.016,ImageRatingTask_S2,2021.1.4,MacIntel,58.82352941,,,,,,,,,
,,,,,,,,,,,,0,4,4,4,1,fifth,1,22,female,mixed,at home,2021-07-01_13h46.02.016,ImageRatingTask_S2,2021.1.4,MacIntel,58.82352941,,,,,,,,,
,,,,,,,,,,,,0,5,5,5,1,sixth,1,22,female,mixed,at home,2021-07-01_13h46.02.016,ImageRatingTask_S2,2021.1.4,MacIntel,58.82352941,,,,,,,,,
,,,,,,,,,,,,0,6,6,6,1,seventh,1,22,female,mixed,at home,2021-07-01_13h46.02.016,ImageRatingTask_S2,2021.1.4,MacIntel,58.82352941,,,,,,,,,
,,,,,,,,,,,,0,7,7,7,1,last,1,22,female,mixed,at home,2021-07-01_13h46.02.016,ImageRatingTask_S2,2021.1.4,MacIntel,58.82352941,,,,,,,,,
,,,,,,,,,,,,,,,,,,1,22,female,mixed,at home,2021-07-01_13h46.02.016,ImageRatingTask_S2,2021.1.4,MacIntel,58.82352941,0,19,19,52,1,DreamStudyImages_rs1000x750g/Mammals/Animals_210_v.jpg,,,
,,3,9.597,3,2.509,5,3.603,1,3.271,7,1.273,0,0,0,0,1,main,1,22,female,mixed,at home,2021-07-01_13h46.02.016,ImageRatingTask_S2,2021.1.4,MacIntel,58.82352941,,,,,,,,,
,,,,,,,,,,,,0,1,1,1,1,second,1,22,female,mixed,at home,2021-07-01_13h46.02.016,ImageRatingTask_S2,2021.1.4,MacIntel,58.82352941,,,,,,,,,
,,,,,,,,,,,,0,2,2,2,1,third,1,22,female,mixed,at home,2021-07-01_13h46.02.016,ImageRatingTask_S2,2021.1.4,MacIntel,58.82352941,,,,,,,,,
,,,,,,,,,,,,0,3,3,3,1,fourth,1,22,female,mixed,at home,2021-07-01_13h46.02.016,ImageRatingTask_S2,2021.1.4,MacIntel,58.82352941,,,,,,,,,
,,,,,,,,,,,,0,4,4,4,1,fifth,1,22,female,mixed,at home,2021-07-01_13h46.02.016,ImageRatingTask_S2,2021.1.4,MacIntel,58.82352941,,,,,,,,,
,,,,,,,,,,,,0,5,5,5,1,sixth,1,22,female,mixed,at home,2021-07-01_13h46.02.016,ImageRatingTask_S2,2021.1.4,MacIntel,58.82352941,,,,,,,,,
,,,,,,,,,,,,0,6,6,6,1,seventh,1,22,female,mixed,at home,2021-07-01_13h46.02.016,ImageRatingTask_S2,2021.1.4,MacIntel,58.82352941,,,,,,,,,
,,,,,,,,,,,,0,7,7,7,1,last,1,22,female,mixed,at home,2021-07-01_13h46.02.016,ImageRatingTask_S2,2021.1.4,MacIntel,58.82352941,,,,,,,,,
,,,,,,,,,,,,,,,,,,1,22,female,mixed,at home,2021-07-01_13h46.02.016,ImageRatingTask_S2,2021.1.4,MacIntel,58.82352941,0,20,20,66,1,DreamStudyImages_rs1000x750g/Vehicles/6900.jpg,,,
,,4,6.718,4,4.299,8,4.116,1,2.964,8,1.165,0,0,0,0,1,main,1,22,female,mixed,at home,2021-07-01_13h46.02.016,ImageRatingTask_S2,2021.1.4,MacIntel,58.82352941,,,,,,,,,
,,,,,,,,,,,,0,1,1,1,1,second,1,22,female,mixed,at home,2021-07-01_13h46.02.016,ImageRatingTask_S2,2021.1.4,MacIntel,58.82352941,,,,,,,,,
,,,,,,,,,,,,0,2,2,2,1,third,1,22,female,mixed,at home,2021-07-01_13h46.02.016,ImageRatingTask_S2,2021.1.4,MacIntel,58.82352941,,,,,,,,,
,,,,,,,,,,,,0,3,3,3,1,fourth,1,22,female,mixed,at home,2021-07-01_13h46.02.016,ImageRatingTask_S2,2021.1.4,MacIntel,58.82352941,,,,,,,,,
,,,,,,,,,,,,0,4,4,4,1,fifth,1,22,female,mixed,at home,2021-07-01_13h46.02.016,ImageRatingTask_S2,2021.1.4,MacIntel,58.82352941,,,,,,,,,
,,,,,,,,,,,,0,5,5,5,1,sixth,1,22,female,mixed,at home,2021-07-01_13h46.02.016,ImageRatingTask_S2,2021.1.4,MacIntel,58.82352941,,,,,,,,,
,,,,,,,,,,,,0,6,6,6,1,seventh,1,22,female,mixed,at home,2021-07-01_13h46.02.016,ImageRatingTask_S2,2021.1.4,MacIntel,58.82352941,,,,,,,,,
,,,,,,,,,,,,0,7,7,7,1,last,1,22,female,mixed,at home,2021-07-01_13h46.02.016,ImageRatingTask_S2,2021.1.4,MacIntel,58.82352941,,,,,,,,,
,,,,,,,,,,,,,,,,,,1,22,female,mixed,at home,2021-07-01_13h46.02.016,ImageRatingTask_S2,2021.1.4,MacIntel,58.82352941,0,21,21,85,1,DreamStudyImages_rs1000x750g/Water/98.jpg,,,
,,6,5.589,1,1.117,9,1.643,1,1.239,3,1.183,0,0,0,0,1,main,1,22,female,mixed,at home,2021-07-01_13h46.02.016,ImageRatingTask_S2,2021.1.4,MacIntel,58.82352941,,,,,,,,,
,,,,,,,,,,,,0,1,1,1,1,second,1,22,female,mixed,at home,2021-07-01_13h46.02.016,ImageRatingTask_S2,2021.1.4,MacIntel,58.82352941,,,,,,,,,
,,,,,,,,,,,,0,2,2,2,1,third,1,22,female,mixed,at home,2021-07-01_13h46.02.016,ImageRatingTask_S2,2021.1.4,MacIntel,58.82352941,,,,,,,,,
,,,,,,,,,,,,0,3,3,3,1,fourth,1,22,female,mixed,at home,2021-07-01_13h46.02.016,ImageRatingTask_S2,2021.1.4,MacIntel,58.82352941,,,,,,,,,
,,,,,,,,,,,,0,4,4,4,1,fifth,1,22,female,mixed,at home,2021-07-01_13h46.02.016,ImageRatingTask_S2,2021.1.4,MacIntel,58.82352941,,,,,,,,,
,,,,,,,,,,,,0,5,5,5,1,sixth,1,22,female,mixed,at home,2021-07-01_13h46.02.016,ImageRatingTask_S2,2021.1.4,MacIntel,58.82352941,,,,,,,,,
,,,,,,,,,,,,0,6,6,6,1,seventh,1,22,female,mixed,at home,2021-07-01_13h46.02.016,ImageRatingTask_S2,2021.1.4,MacIntel,58.82352941,,,,,,,,,
,,,,,,,,,,,,0,7,7,7,1,last,1,22,female,mixed,at home,2021-07-01_13h46.02.016,ImageRatingTask_S2,2021.1.4,MacIntel,58.82352941,,,,,,,,,
,,,,,,,,,,,,,,,,,,1,22,female,mixed,at home,2021-07-01_13h46.02.016,ImageRatingTask_S2,2021.1.4,MacIntel,58.82352941,0,22,22,36,1,DreamStudyImages_rs1000x750g/Mammals/Animals_133_h.jpg,,,
,,2,3.291,4,2.608,8,2.617,1,4.569,6,2.083,0,0,0,0,1,main,1,22,female,mixed,at home,2021-07-01_13h46.02.016,ImageRatingTask_S2,2021.1.4,MacIntel,58.82352941,,,,,,,,,
,,,,,,,,,,,,0,1,1,1,1,second,1,22,female,mixed,at home,2021-07-01_13h46.02.016,ImageRatingTask_S2,2021.1.4,MacIntel,58.82352941,,,,,,,,,
,,,,,,,,,,,,0,2,2,2,1,third,1,22,female,mixed,at home,2021-07-01_13h46.02.016,ImageRatingTask_S2,2021.1.4,MacIntel,58.82352941,,,,,,,,,
,,,,,,,,,,,,0,3,3,3,1,fourth,1,22,female,mixed,at home,2021-07-01_13h46.02.016,ImageRatingTask_S2,2021.1.4,MacIntel,58.82352941,,,,,,,,,
,,,,,,,,,,,,0,4,4,4,1,fifth,1,22,female,mixed,at home,2021-07-01_13h46.02.016,ImageRatingTask_S2,2021.1.4,MacIntel,58.82352941,,,,,,,,,
,,,,,,,,,,,,0,5,5,5,1,sixth,1,22,female,mixed,at home,2021-07-01_13h46.02.016,ImageRatingTask_S2,2021.1.4,MacIntel,58.82352941,,,,,,,,,
,,,,,,,,,,,,0,6,6,6,1,seventh,1,22,female,mixed,at home,2021-07-01_13h46.02.016,ImageRatingTask_S2,2021.1.4,MacIntel,58.82352941,,,,,,,,,
,,,,,,,,,,,,0,7,7,7,1,last,1,22,female,mixed,at home,2021-07-01_13h46.02.016,ImageRatingTask_S2,2021.1.4,MacIntel,58.82352941,,,,,,,,,
,,,,,,,,,,,,,,,,,,1,22,female,mixed,at home,2021-07-01_13h46.02.016,ImageRatingTask_S2,2021.1.4,MacIntel,58.82352941,0,23,23,140,1,DreamStudyImages_rs1000x750g/Houses/NDPS29_buildings7.jpg,,,
,,3,7.494,4,5.247,8,2.471,1,2.75,2,0.768,0,0,0,0,1,main,1,22,female,mixed,at home,2021-07-01_13h46.02.016,ImageRatingTask_S2,2021.1.4,MacIntel,58.82352941,,,,,,,,,
,,,,,,,,,,,,0,1,1,1,1,second,1,22,female,mixed,at home,2021-07-01_13h46.02.016,ImageRatingTask_S2,2021.1.4,MacIntel,58.82352941,,,,,,,,,
,,,,,,,,,,,,0,2,2,2,1,third,1,22,female,mixed,at home,2021-07-01_13h46.02.016,ImageRatingTask_S2,2021.1.4,MacIntel,58.82352941,,,,,,,,,
,,,,,,,,,,,,0,3,3,3,1,fourth,1,22,female,mixed,at home,2021-07-01_13h46.02.016,ImageRatingTask_S2,2021.1.4,MacIntel,58.82352941,,,,,,,,,
,,,,,,,,,,,,0,4,4,4,1,fifth,1,22,female,mixed,at home,2021-07-01_13h46.02.016,ImageRatingTask_S2,2021.1.4,MacIntel,58.82352941,,,,,,,,,
,,,,,,,,,,,,0,5,5,5,1,sixth,1,22,female,mixed,at home,2021-07-01_13h46.02.016,ImageRatingTask_S2,2021.1.4,MacIntel,58.82352941,,,,,,,,,
,,,,,,,,,,,,0,6,6,6,1,seventh,1,22,female,mixed,at home,2021-07-01_13h46.02.016,ImageRatingTask_S2,2021.1.4,MacIntel,58.82352941,,,,,,,,,
,,,,,,,,,,,,0,7,7,7,1,last,1,22,female,mixed,at home,2021-07-01_13h46.02.016,ImageRatingTask_S2,2021.1.4,MacIntel,58.82352941,,,,,,,,,
,,,,,,,,,,,,,,,,,,1,22,female,mixed,at home,2021-07-01_13h46.02.016,ImageRatingTask_S2,2021.1.4,MacIntel,58.82352941,0,24,24,10,1,DreamStudyImages_rs1000x750g/Children/People_039_v.jpg,,,
,,6,2.306,2,2.179,8,2.294,1,1.254,2,0.817,0,0,0,0,1,main,1,22,female,mixed,at home,2021-07-01_13h46.02.016,ImageRatingTask_S2,2021.1.4,MacIntel,58.82352941,,,,,,,,,
,,,,,,,,,,,,0,1,1,1,1,second,1,22,female,mixed,at home,2021-07-01_13h46.02.016,ImageRatingTask_S2,2021.1.4,MacIntel,58.82352941,,,,,,,,,
,,,,,,,,,,,,0,2,2,2,1,third,1,22,female,mixed,at home,2021-07-01_13h46.02.016,ImageRatingTask_S2,2021.1.4,MacIntel,58.82352941,,,,,,,,,
,,,,,,,,,,,,0,3,3,3,1,fourth,1,22,female,mixed,at home,2021-07-01_13h46.02.016,ImageRatingTask_S2,2021.1.4,MacIntel,58.82352941,,,,,,,,,
,,,,,,,,,,,,0,4,4,4,1,fifth,1,22,female,mixed,at home,2021-07-01_13h46.02.016,ImageRatingTask_S2,2021.1.4,MacIntel,58.82352941,,,,,,,,,
,,,,,,,,,,,,0,5,5,5,1,sixth,1,22,female,mixed,at home,2021-07-01_13h46.02.016,ImageRatingTask_S2,2021.1.4,MacIntel,58.82352941,,,,,,,,,
,,,,,,,,,,,,0,6,6,6,1,seventh,1,22,female,mixed,at home,2021-07-01_13h46.02.016,ImageRatingTask_S2,2021.1.4,MacIntel,58.82352941,,,,,,,,,
,,,,,,,,,,,,0,7,7,7,1,last,1,22,female,mixed,at home,2021-07-01_13h46.02.016,ImageRatingTask_S2,2021.1.4,MacIntel,58.82352941,,,,,,,,,
,,,,,,,,,,,,,,,,,,1,22,female,mixed,at home,2021-07-01_13h46.02.016,ImageRatingTask_S2,2021.1.4,MacIntel,58.82352941,0,25,25,62,1,DreamStudyImages_rs1000x750g/Children/Faces_114_h.jpg,,,
,,5,2.229,1,1.148,7,3.726,1,1.612,8,1.896,0,0,0,0,1,main,1,22,female,mixed,at home,2021-07-01_13h46.02.016,ImageRatingTask_S2,2021.1.4,MacIntel,58.82352941,,,,,,,,,
,,,,,,,,,,,,0,1,1,1,1,second,1,22,female,mixed,at home,2021-07-01_13h46.02.016,ImageRatingTask_S2,2021.1.4,MacIntel,58.82352941,,,,,,,,,
,,,,,,,,,,,,0,2,2,2,1,third,1,22,female,mixed,at home,2021-07-01_13h46.02.016,ImageRatingTask_S2,2021.1.4,MacIntel,58.82352941,,,,,,,,,
,,,,,,,,,,,,0,3,3,3,1,fourth,1,22,female,mixed,at home,2021-07-01_13h46.02.016,ImageRatingTask_S2,2021.1.4,MacIntel,58.82352941,,,,,,,,,
,,,,,,,,,,,,0,4,4,4,1,fifth,1,22,female,mixed,at home,2021-07-01_13h46.02.016,ImageRatingTask_S2,2021.1.4,MacIntel,58.82352941,,,,,,,,,
,,,,,,,,,,,,0,5,5,5,1,sixth,1,22,female,mixed,at home,2021-07-01_13h46.02.016,ImageRatingTask_S2,2021.1.4,MacIntel,58.82352941,,,,,,,,,
,,,,,,,,,,,,0,6,6,6,1,seventh,1,22,female,mixed,at home,2021-07-01_13h46.02.016,ImageRatingTask_S2,2021.1.4,MacIntel,58.82352941,,,,,,,,,
,,,,,,,,,,,,0,7,7,7,1,last,1,22,female,mixed,at home,2021-07-01_13h46.02.016,ImageRatingTask_S2,2021.1.4,MacIntel,58.82352941,,,,,,,,,
,,,,,,,,,,,,,,,,,,1,22,female,mixed,at home,2021-07-01_13h46.02.016,ImageRatingTask_S2,2021.1.4,MacIntel,58.82352941,0,26,26,48,1,DreamStudyImages_rs1000x750g/Water/Lake 5.jpg,,,
,,5,4.443,1,1.65,7,5.083,1,1.101,3,2.041,0,0,0,0,1,main,1,22,female,mixed,at home,2021-07-01_13h46.02.016,ImageRatingTask_S2,2021.1.4,MacIntel,58.82352941,,,,,,,,,
,,,,,,,,,,,,0,1,1,1,1,second,1,22,female,mixed,at home,2021-07-01_13h46.02.016,ImageRatingTask_S2,2021.1.4,MacIntel,58.82352941,,,,,,,,,
,,,,,,,,,,,,0,2,2,2,1,third,1,22,female,mixed,at home,2021-07-01_13h46.02.016,ImageRatingTask_S2,2021.1.4,MacIntel,58.82352941,,,,,,,,,
,,,,,,,,,,,,0,3,3,3,1,fourth,1,22,female,mixed,at home,2021-07-01_13h46.02.016,ImageRatingTask_S2,2021.1.4,MacIntel,58.82352941,,,,,,,,,
,,,,,,,,,,,,0,4,4,4,1,fifth,1,22,female,mixed,at home,2021-07-01_13h46.02.016,ImageRatingTask_S2,2021.1.4,MacIntel,58.82352941,,,,,,,,,
,,,,,,,,,,,,0,5,5,5,1,sixth,1,22,female,mixed,at home,2021-07-01_13h46.02.016,ImageRatingTask_S2,2021.1.4,MacIntel,58.82352941,,,,,,,,,
,,,,,,,,,,,,0,6,6,6,1,seventh,1,22,female,mixed,at home,2021-07-01_13h46.02.016,ImageRatingTask_S2,2021.1.4,MacIntel,58.82352941,,,,,,,,,
,,,,,,,,,,,,0,7,7,7,1,last,1,22,female,mixed,at home,2021-07-01_13h46.02.016,ImageRatingTask_S2,2021.1.4,MacIntel,58.82352941,,,,,,,,,
,,,,,,,,,,,,,,,,,,1,22,female,mixed,at home,2021-07-01_13h46.02.016,ImageRatingTask_S2,2021.1.4,MacIntel,58.82352941,0,27,27,107,1,DreamStudyImages_rs1000x750g/Mammals/Animals_197_h.jpg,,,
,,2,3.936,7,3.837,8,3.116,1,2.537,7,1.167,0,0,0,0,1,main,1,22,female,mixed,at home,2021-07-01_13h46.02.016,ImageRatingTask_S2,2021.1.4,MacIntel,58.82352941,,,,,,,,,
,,,,,,,,,,,,0,1,1,1,1,second,1,22,female,mixed,at home,2021-07-01_13h46.02.016,ImageRatingTask_S2,2021.1.4,MacIntel,58.82352941,,,,,,,,,
,,,,,,,,,,,,0,2,2,2,1,third,1,22,female,mixed,at home,2021-07-01_13h46.02.016,ImageRatingTask_S2,2021.1.4,MacIntel,58.82352941,,,,,,,,,
,,,,,,,,,,,,0,3,3,3,1,fourth,1,22,female,mixed,at home,2021-07-01_13h46.02.016,ImageRatingTask_S2,2021.1.4,MacIntel,58.82352941,,,,,,,,,
,,,,,,,,,,,,0,4,4,4,1,fifth,1,22,female,mixed,at home,2021-07-01_13h46.02.016,ImageRatingTask_S2,2021.1.4,MacIntel,58.82352941,,,,,,,,,
,,,,,,,,,,,,0,5,5,5,1,sixth,1,22,female,mixed,at home,2021-07-01_13h46.02.016,ImageRatingTask_S2,2021.1.4,MacIntel,58.82352941,,,,,,,,,
,,,,,,,,,,,,0,6,6,6,1,seventh,1,22,female,mixed,at home,2021-07-01_13h46.02.016,ImageRatingTask_S2,2021.1.4,MacIntel,58.82352941,,,,,,,,,
,,,,,,,,,,,,0,7,7,7,1,last,1,22,female,mixed,at home,2021-07-01_13h46.02.016,ImageRatingTask_S2,2021.1.4,MacIntel,58.82352941,,,,,,,,,
,,,,,,,,,,,,,,,,,,1,22,female,mixed,at home,2021-07-01_13h46.02.016,ImageRatingTask_S2,2021.1.4,MacIntel,58.82352941,0,28,28,103,1,DreamStudyImages_rs1000x750g/Vehicles/Explosion 3.jpg,,,
,,7,4.93,1,1.182,8,2.303,1,3.281,8,1.26,0,0,0,0,1,main,1,22,female,mixed,at home,2021-07-01_13h46.02.016,ImageRatingTask_S2,2021.1.4,MacIntel,58.82352941,,,,,,,,,
,,,,,,,,,,,,0,1,1,1,1,second,1,22,female,mixed,at home,2021-07-01_13h46.02.016,ImageRatingTask_S2,2021.1.4,MacIntel,58.82352941,,,,,,,,,
,,,,,,,,,,,,0,2,2,2,1,third,1,22,female,mixed,at home,2021-07-01_13h46.02.016,ImageRatingTask_S2,2021.1.4,MacIntel,58.82352941,,,,,,,,,
,,,,,,,,,,,,0,3,3,3,1,fourth,1,22,female,mixed,at home,2021-07-01_13h46.02.016,ImageRatingTask_S2,2021.1.4,MacIntel,58.82352941,,,,,,,,,
,,,,,,,,,,,,0,4,4,4,1,fifth,1,22,female,mixed,at home,2021-07-01_13h46.02.016,ImageRatingTask_S2,2021.1.4,MacIntel,58.82352941,,,,,,,,,
,,,,,,,,,,,,0,5,5,5,1,sixth,1,22,female,mixed,at home,2021-07-01_13h46.02.016,ImageRatingTask_S2,2021.1.4,MacIntel,58.82352941,,,,,,,,,
,,,,,,,,,,,,0,6,6,6,1,seventh,1,22,female,mixed,at home,2021-07-01_13h46.02.016,ImageRatingTask_S2,2021.1.4,MacIntel,58.82352941,,,,,,,,,
,,,,,,,,,,,,0,7,7,7,1,last,1,22,female,mixed,at home,2021-07-01_13h46.02.016,ImageRatingTask_S2,2021.1.4,MacIntel,58.82352941,,,,,,,,,
,,,,,,,,,,,,,,,,,,1,22,female,mixed,at home,2021-07-01_13h46.02.016,ImageRatingTask_S2,2021.1.4,MacIntel,58.82352941,0,29,29,118,1,DreamStudyImages_rs1000x750g/Water/5825.jpg,,,
,,7,4.316,1,1.452,6,2.31,1,1.151,5,1.057,0,0,0,0,1,main,1,22,female,mixed,at home,2021-07-01_13h46.02.016,ImageRatingTask_S2,2021.1.4,MacIntel,58.82352941,,,,,,,,,
,,,,,,,,,,,,0,1,1,1,1,second,1,22,female,mixed,at home,2021-07-01_13h46.02.016,ImageRatingTask_S2,2021.1.4,MacIntel,58.82352941,,,,,,,,,
,,,,,,,,,,,,0,2,2,2,1,third,1,22,female,mixed,at home,2021-07-01_13h46.02.016,ImageRatingTask_S2,2021.1.4,MacIntel,58.82352941,,,,,,,,,
,,,,,,,,,,,,0,3,3,3,1,fourth,1,22,female,mixed,at home,2021-07-01_13h46.02.016,ImageRatingTask_S2,2021.1.4,MacIntel,58.82352941,,,,,,,,,
,,,,,,,,,,,,0,4,4,4,1,fifth,1,22,female,mixed,at home,2021-07-01_13h46.02.016,ImageRatingTask_S2,2021.1.4,MacIntel,58.82352941,,,,,,,,,
,,,,,,,,,,,,0,5,5,5,1,sixth,1,22,female,mixed,at home,2021-07-01_13h46.02.016,ImageRatingTask_S2,2021.1.4,MacIntel,58.82352941,,,,,,,,,
,,,,,,,,,,,,0,6,6,6,1,seventh,1,22,female,mixed,at home,2021-07-01_13h46.02.016,ImageRatingTask_S2,2021.1.4,MacIntel,58.82352941,,,,,,,,,
,,,,,,,,,,,,0,7,7,7,1,last,1,22,female,mixed,at home,2021-07-01_13h46.02.016,ImageRatingTask_S2,2021.1.4,MacIntel,58.82352941,,,,,,,,,
,,,,,,,,,,,,,,,,,,1,22,female,mixed,at home,2021-07-01_13h46.02.016,ImageRatingTask_S2,2021.1.4,MacIntel,58.82352941,0,30,30,89,1,DreamStudyImages_rs1000x750g/Food/IAPS7430_chocolate3.jpg,,,
,,5,2.387,2,1.201,8,3.111,1,1.384,3,1.01,0,0,0,0,1,main,1,22,female,mixed,at home,2021-07-01_13h46.02.016,ImageRatingTask_S2,2021.1.4,MacIntel,58.82352941,,,,,,,,,
,,,,,,,,,,,,0,1,1,1,1,second,1,22,female,mixed,at home,2021-07-01_13h46.02.016,ImageRatingTask_S2,2021.1.4,MacIntel,58.82352941,,,,,,,,,
,,,,,,,,,,,,0,2,2,2,1,third,1,22,female,mixed,at home,2021-07-01_13h46.02.016,ImageRatingTask_S2,2021.1.4,MacIntel,58.82352941,,,,,,,,,
,,,,,,,,,,,,0,3,3,3,1,fourth,1,22,female,mixed,at home,2021-07-01_13h46.02.016,ImageRatingTask_S2,2021.1.4,MacIntel,58.82352941,,,,,,,,,
,,,,,,,,,,,,0,4,4,4,1,fifth,1,22,female,mixed,at home,2021-07-01_13h46.02.016,ImageRatingTask_S2,2021.1.4,MacIntel,58.82352941,,,,,,,,,
,,,,,,,,,,,,0,5,5,5,1,sixth,1,22,female,mixed,at home,2021-07-01_13h46.02.016,ImageRatingTask_S2,2021.1.4,MacIntel,58.82352941,,,,,,,,,
,,,,,,,,,,,,0,6,6,6,1,seventh,1,22,female,mixed,at home,2021-07-01_13h46.02.016,ImageRatingTask_S2,2021.1.4,MacIntel,58.82352941,,,,,,,,,
,,,,,,,,,,,,0,7,7,7,1,last,1,22,female,mixed,at home,2021-07-01_13h46.02.016,ImageRatingTask_S2,2021.1.4,MacIntel,58.82352941,,,,,,,,,
,,,,,,,,,,,,,,,,,,1,22,female,mixed,at home,2021-07-01_13h46.02.016,ImageRatingTask_S2,2021.1.4,MacIntel,58.82352941,0,31,31,119,1,DreamStudyImages_rs1000x750g/Mammals/Lion 1.jpg,,,
,,5,8.159,1,1.321,8,2.403,1,1.331,5,1.675,0,0,0,0,1,main,1,22,female,mixed,at home,2021-07-01_13h46.02.016,ImageRatingTask_S2,2021.1.4,MacIntel,58.82352941,,,,,,,,,
,,,,,,,,,,,,0,1,1,1,1,second,1,22,female,mixed,at home,2021-07-01_13h46.02.016,ImageRatingTask_S2,2021.1.4,MacIntel,58.82352941,,,,,,,,,
,,,,,,,,,,,,0,2,2,2,1,third,1,22,female,mixed,at home,2021-07-01_13h46.02.016,ImageRatingTask_S2,2021.1.4,MacIntel,58.82352941,,,,,,,,,
,,,,,,,,,,,,0,3,3,3,1,fourth,1,22,female,mixed,at home,2021-07-01_13h46.02.016,ImageRatingTask_S2,2021.1.4,MacIntel,58.82352941,,,,,,,,,
,,,,,,,,,,,,0,4,4,4,1,fifth,1,22,female,mixed,at home,2021-07-01_13h46.02.016,ImageRatingTask_S2,2021.1.4,MacIntel,58.82352941,,,,,,,,,
,,,,,,,,,,,,0,5,5,5,1,sixth,1,22,female,mixed,at home,2021-07-01_13h46.02.016,ImageRatingTask_S2,2021.1.4,MacIntel,58.82352941,,,,,,,,,
,,,,,,,,,,,,0,6,6,6,1,seventh,1,22,female,mixed,at home,2021-07-01_13h46.02.016,ImageRatingTask_S2,2021.1.4,MacIntel,58.82352941,,,,,,,,,
,,,,,,,,,,,,0,7,7,7,1,last,1,22,female,mixed,at home,2021-07-01_13h46.02.016,ImageRatingTask_S2,2021.1.4,MacIntel,58.82352941,,,,,,,,,
,,,,,,,,,,,,,,,,,,1,22,female,mixed,at home,2021-07-01_13h46.02.016,ImageRatingTask_S2,2021.1.4,MacIntel,58.82352941,0,32,32,125,1,DreamStudyImages_rs1000x750g/Food/Objects_030_v.jpg,,,
,,3,4.476,4,2.475,8,4.568,1,1.086,6,0.993,0,0,0,0,1,main,1,22,female,mixed,at home,2021-07-01_13h46.02.016,ImageRatingTask_S2,2021.1.4,MacIntel,58.82352941,,,,,,,,,
,,,,,,,,,,,,0,1,1,1,1,second,1,22,female,mixed,at home,2021-07-01_13h46.02.016,ImageRatingTask_S2,2021.1.4,MacIntel,58.82352941,,,,,,,,,
,,,,,,,,,,,,0,2,2,2,1,third,1,22,female,mixed,at home,2021-07-01_13h46.02.016,ImageRatingTask_S2,2021.1.4,MacIntel,58.82352941,,,,,,,,,
,,,,,,,,,,,,0,3,3,3,1,fourth,1,22,female,mixed,at home,2021-07-01_13h46.02.016,ImageRatingTask_S2,2021.1.4,MacIntel,58.82352941,,,,,,,,,
,,,,,,,,,,,,0,4,4,4,1,fifth,1,22,female,mixed,at home,2021-07-01_13h46.02.016,ImageRatingTask_S2,2021.1.4,MacIntel,58.82352941,,,,,,,,,
,,,,,,,,,,,,0,5,5,5,1,sixth,1,22,female,mixed,at home,2021-07-01_13h46.02.016,ImageRatingTask_S2,2021.1.4,MacIntel,58.82352941,,,,,,,,,
,,,,,,,,,,,,0,6,6,6,1,seventh,1,22,female,mixed,at home,2021-07-01_13h46.02.016,ImageRatingTask_S2,2021.1.4,MacIntel,58.82352941,,,,,,,,,
,,,,,,,,,,,,0,7,7,7,1,last,1,22,female,mixed,at home,2021-07-01_13h46.02.016,ImageRatingTask_S2,2021.1.4,MacIntel,58.82352941,,,,,,,,,
,,,,,,,,,,,,,,,,,,1,22,female,mixed,at home,2021-07-01_13h46.02.016,ImageRatingTask_S2,2021.1.4,MacIntel,58.82352941,0,33,33,100,1,DreamStudyImages_rs1000x750g/Houses/9470.jpg,,,
,,5,2.75,1,2.362,9,2.848,1,1.015,2,0.995,0,0,0,0,1,main,1,22,female,mixed,at home,2021-07-01_13h46.02.016,ImageRatingTask_S2,2021.1.4,MacIntel,58.82352941,,,,,,,,,
,,,,,,,,,,,,0,1,1,1,1,second,1,22,female,mixed,at home,2021-07-01_13h46.02.016,ImageRatingTask_S2,2021.1.4,MacIntel,58.82352941,,,,,,,,,
,,,,,,,,,,,,0,2,2,2,1,third,1,22,female,mixed,at home,2021-07-01_13h46.02.016,ImageRatingTask_S2,2021.1.4,MacIntel,58.82352941,,,,,,,,,
,,,,,,,,,,,,0,3,3,3,1,fourth,1,22,female,mixed,at home,2021-07-01_13h46.02.016,ImageRatingTask_S2,2021.1.4,MacIntel,58.82352941,,,,,,,,,
,,,,,,,,,,,,0,4,4,4,1,fifth,1,22,female,mixed,at home,2021-07-01_13h46.02.016,ImageRatingTask_S2,2021.1.4,MacIntel,58.82352941,,,,,,,,,
,,,,,,,,,,,,0,5,5,5,1,sixth,1,22,female,mixed,at home,2021-07-01_13h46.02.016,ImageRatingTask_S2,2021.1.4,MacIntel,58.82352941,,,,,,,,,
,,,,,,,,,,,,0,6,6,6,1,seventh,1,22,female,mixed,at home,2021-07-01_13h46.02.016,ImageRatingTask_S2,2021.1.4,MacIntel,58.82352941,,,,,,,,,
,,,,,,,,,,,,0,7,7,7,1,last,1,22,female,mixed,at home,2021-07-01_13h46.02.016,ImageRatingTask_S2,2021.1.4,MacIntel,58.82352941,,,,,,,,,
,,,,,,,,,,,,,,,,,,1,22,female,mixed,at home,2021-07-01_13h46.02.016,ImageRatingTask_S2,2021.1.4,MacIntel,58.82352941,0,34,34,47,1,DreamStudyImages_rs1000x750g/Children/Faces_056_h.jpg,,,
,,6,3.981,1,1.124,6,7.409,1,1.654,8,1.206,0,0,0,0,1,main,1,22,female,mixed,at home,2021-07-01_13h46.02.016,ImageRatingTask_S2,2021.1.4,MacIntel,58.82352941,,,,,,,,,
,,,,,,,,,,,,0,1,1,1,1,second,1,22,female,mixed,at home,2021-07-01_13h46.02.016,ImageRatingTask_S2,2021.1.4,MacIntel,58.82352941,,,,,,,,,
,,,,,,,,,,,,0,2,2,2,1,third,1,22,female,mixed,at home,2021-07-01_13h46.02.016,ImageRatingTask_S2,2021.1.4,MacIntel,58.82352941,,,,,,,,,
,,,,,,,,,,,,0,3,3,3,1,fourth,1,22,female,mixed,at home,2021-07-01_13h46.02.016,ImageRatingTask_S2,2021.1.4,MacIntel,58.82352941,,,,,,,,,
,,,,,,,,,,,,0,4,4,4,1,fifth,1,22,female,mixed,at home,2021-07-01_13h46.02.016,ImageRatingTask_S2,2021.1.4,MacIntel,58.82352941,,,,,,,,,
,,,,,,,,,,,,0,5,5,5,1,sixth,1,22,female,mixed,at home,2021-07-01_13h46.02.016,ImageRatingTask_S2,2021.1.4,MacIntel,58.82352941,,,,,,,,,
,,,,,,,,,,,,0,6,6,6,1,seventh,1,22,female,mixed,at home,2021-07-01_13h46.02.016,ImageRatingTask_S2,2021.1.4,MacIntel,58.82352941,,,,,,,,,
,,,,,,,,,,,,0,7,7,7,1,last,1,22,female,mixed,at home,2021-07-01_13h46.02.016,ImageRatingTask_S2,2021.1.4,MacIntel,58.82352941,,,,,,,,,
,,,,,,,,,,,,,,,,,,1,22,female,mixed,at home,2021-07-01_13h46.02.016,ImageRatingTask_S2,2021.1.4,MacIntel,58.82352941,0,35,35,129,1,DreamStudyImages_rs1000x750g/Water/IAPS5780_lake2.jpg,,,
,,4,3.3,4,2.599,6,2.035,2,3.875,2,2.374,0,0,0,0,1,main,1,22,female,mixed,at home,2021-07-01_13h46.02.016,ImageRatingTask_S2,2021.1.4,MacIntel,58.82352941,,,,,,,,,
,,,,,,,,,,1,0.721,0,1,1,1,1,second,1,22,female,mixed,at home,2021-07-01_13h46.02.016,ImageRatingTask_S2,2021.1.4,MacIntel,58.82352941,,,,,,,,,
,,,,,,,,,,,,0,2,2,2,1,third,1,22,female,mixed,at home,2021-07-01_13h46.02.016,ImageRatingTask_S2,2021.1.4,MacIntel,58.82352941,,,,,,,,,
,,,,,,,,,,,,0,3,3,3,1,fourth,1,22,female,mixed,at home,2021-07-01_13h46.02.016,ImageRatingTask_S2,2021.1.4,MacIntel,58.82352941,,,,,,,,,
,,,,,,,,,,,,0,4,4,4,1,fifth,1,22,female,mixed,at home,2021-07-01_13h46.02.016,ImageRatingTask_S2,2021.1.4,MacIntel,58.82352941,,,,,,,,,
,,,,,,,,,,,,0,5,5,5,1,sixth,1,22,female,mixed,at home,2021-07-01_13h46.02.016,ImageRatingTask_S2,2021.1.4,MacIntel,58.82352941,,,,,,,,,
,,,,,,,,,,,,0,6,6,6,1,seventh,1,22,female,mixed,at home,2021-07-01_13h46.02.016,ImageRatingTask_S2,2021.1.4,MacIntel,58.82352941,,,,,,,,,
,,,,,,,,,,,,0,7,7,7,1,last,1,22,female,mixed,at home,2021-07-01_13h46.02.016,ImageRatingTask_S2,2021.1.4,MacIntel,58.82352941,,,,,,,,,
,,,,,,,,,,,,,,,,,,1,22,female,mixed,at home,2021-07-01_13h46.02.016,ImageRatingTask_S2,2021.1.4,MacIntel,58.82352941,0,36,36,59,1,DreamStudyImages_rs1000x750g/Children/IAPS3280_boy14_humans.jpg,,,
,,7,3.485,2,4.097,8,1.847,1,2.394,8,1.008,0,0,0,0,1,main,1,22,female,mixed,at home,2021-07-01_13h46.02.016,ImageRatingTask_S2,2021.1.4,MacIntel,58.82352941,,,,,,,,,
,,,,,,,,,,,,0,1,1,1,1,second,1,22,female,mixed,at home,2021-07-01_13h46.02.016,ImageRatingTask_S2,2021.1.4,MacIntel,58.82352941,,,,,,,,,
,,,,,,,,,,,,0,2,2,2,1,third,1,22,female,mixed,at home,2021-07-01_13h46.02.016,ImageRatingTask_S2,2021.1.4,MacIntel,58.82352941,,,,,,,,,
,,,,,,,,,,,,0,3,3,3,1,fourth,1,22,female,mixed,at home,2021-07-01_13h46.02.016,ImageRatingTask_S2,2021.1.4,MacIntel,58.82352941,,,,,,,,,
,,,,,,,,,,,,0,4,4,4,1,fifth,1,22,female,mixed,at home,2021-07-01_13h46.02.016,ImageRatingTask_S2,2021.1.4,MacIntel,58.82352941,,,,,,,,,
,,,,,,,,,,,,0,5,5,5,1,sixth,1,22,female,mixed,at home,2021-07-01_13h46.02.016,ImageRatingTask_S2,2021.1.4,MacIntel,58.82352941,,,,,,,,,
,,,,,,,,,,,,0,6,6,6,1,seventh,1,22,female,mixed,at home,2021-07-01_13h46.02.016,ImageRatingTask_S2,2021.1.4,MacIntel,58.82352941,,,,,,,,,
,,,,,,,,,,,,0,7,7,7,1,last,1,22,female,mixed,at home,2021-07-01_13h46.02.016,ImageRatingTask_S2,2021.1.4,MacIntel,58.82352941,,,,,,,,,
,,,,,,,,,,,,,,,,,,1,22,female,mixed,at home,2021-07-01_13h46.02.016,ImageRatingTask_S2,2021.1.4,MacIntel,58.82352941,0,37,37,19,1,DreamStudyImages_rs1000x750g/Water/wavybeach.jpg,,,
,,6,3.478,2,2.802,8,1.8,2,2.528,2,1.061,0,0,0,0,1,main,1,22,female,mixed,at home,2021-07-01_13h46.02.016,ImageRatingTask_S2,2021.1.4,MacIntel,58.82352941,,,,,,,,,
,,,,,,,,,,6,1.38,0,1,1,1,1,second,1,22,female,mixed,at home,2021-07-01_13h46.02.016,ImageRatingTask_S2,2021.1.4,MacIntel,58.82352941,,,,,,,,,
,,,,,,,,,,,,0,2,2,2,1,third,1,22,female,mixed,at home,2021-07-01_13h46.02.016,ImageRatingTask_S2,2021.1.4,MacIntel,58.82352941,,,,,,,,,
,,,,,,,,,,,,0,3,3,3,1,fourth,1,22,female,mixed,at home,2021-07-01_13h46.02.016,ImageRatingTask_S2,2021.1.4,MacIntel,58.82352941,,,,,,,,,
,,,,,,,,,,,,0,4,4,4,1,fifth,1,22,female,mixed,at home,2021-07-01_13h46.02.016,ImageRatingTask_S2,2021.1.4,MacIntel,58.82352941,,,,,,,,,
,,,,,,,,,,,,0,5,5,5,1,sixth,1,22,female,mixed,at home,2021-07-01_13h46.02.016,ImageRatingTask_S2,2021.1.4,MacIntel,58.82352941,,,,,,,,,
,,,,,,,,,,,,0,6,6,6,1,seventh,1,22,female,mixed,at home,2021-07-01_13h46.02.016,ImageRatingTask_S2,2021.1.4,MacIntel,58.82352941,,,,,,,,,
,,,,,,,,,,,,0,7,7,7,1,last,1,22,female,mixed,at home,2021-07-01_13h46.02.016,ImageRatingTask_S2,2021.1.4,MacIntel,58.82352941,,,,,,,,,
,,,,,,,,,,,,,,,,,,1,22,female,mixed,at home,2021-07-01_13h46.02.016,ImageRatingTask_S2,2021.1.4,MacIntel,58.82352941,0,38,38,45,1,DreamStudyImages_rs1000x750g/Children/IAPS2274_children7.jpg,,,
,,5,1.959,1,1.197,7,1.773,1,1.188,3,2.727,0,0,0,0,1,main,1,22,female,mixed,at home,2021-07-01_13h46.02.016,ImageRatingTask_S2,2021.1.4,MacIntel,58.82352941,,,,,,,,,
,,,,,,,,,,,,0,1,1,1,1,second,1,22,female,mixed,at home,2021-07-01_13h46.02.016,ImageRatingTask_S2,2021.1.4,MacIntel,58.82352941,,,,,,,,,
,,,,,,,,,,,,0,2,2,2,1,third,1,22,female,mixed,at home,2021-07-01_13h46.02.016,ImageRatingTask_S2,2021.1.4,MacIntel,58.82352941,,,,,,,,,
,,,,,,,,,,,,0,3,3,3,1,fourth,1,22,female,mixed,at home,2021-07-01_13h46.02.016,ImageRatingTask_S2,2021.1.4,MacIntel,58.82352941,,,,,,,,,
,,,,,,,,,,,,0,4,4,4,1,fifth,1,22,female,mixed,at home,2021-07-01_13h46.02.016,ImageRatingTask_S2,2021.1.4,MacIntel,58.82352941,,,,,,,,,
,,,,,,,,,,,,0,5,5,5,1,sixth,1,22,female,mixed,at home,2021-07-01_13h46.02.016,ImageRatingTask_S2,2021.1.4,MacIntel,58.82352941,,,,,,,,,
,,,,,,,,,,,,0,6,6,6,1,seventh,1,22,female,mixed,at home,2021-07-01_13h46.02.016,ImageRatingTask_S2,2021.1.4,MacIntel,58.82352941,,,,,,,,,
,,,,,,,,,,,,0,7,7,7,1,last,1,22,female,mixed,at home,2021-07-01_13h46.02.016,ImageRatingTask_S2,2021.1.4,MacIntel,58.82352941,,,,,,,,,
,,,,,,,,,,,,,,,,,,1,22,female,mixed,at home,2021-07-01_13h46.02.016,ImageRatingTask_S2,2021.1.4,MacIntel,58.82352941,0,39,39,74,1,DreamStudyImages_rs1000x750g/Mammals/IAPS1500_dog6.jpg,,,
,,2,3.33,4,1.993,8,2.497,1,6.152,6,1.616,0,0,0,0,1,main,1,22,female,mixed,at home,2021-07-01_13h46.02.016,ImageRatingTask_S2,2021.1.4,MacIntel,58.82352941,,,,,,,,,
,,,,,,,,,,,,0,1,1,1,1,second,1,22,female,mixed,at home,2021-07-01_13h46.02.016,ImageRatingTask_S2,2021.1.4,MacIntel,58.82352941,,,,,,,,,
,,,,,,,,,,,,0,2,2,2,1,third,1,22,female,mixed,at home,2021-07-01_13h46.02.016,ImageRatingTask_S2,2021.1.4,MacIntel,58.82352941,,,,,,,,,
,,,,,,,,,,,,0,3,3,3,1,fourth,1,22,female,mixed,at home,2021-07-01_13h46.02.016,ImageRatingTask_S2,2021.1.4,MacIntel,58.82352941,,,,,,,,,
,,,,,,,,,,,,0,4,4,4,1,fifth,1,22,female,mixed,at home,2021-07-01_13h46.02.016,ImageRatingTask_S2,2021.1.4,MacIntel,58.82352941,,,,,,,,,
,,,,,,,,,,,,0,5,5,5,1,sixth,1,22,female,mixed,at home,2021-07-01_13h46.02.016,ImageRatingTask_S2,2021.1.4,MacIntel,58.82352941,,,,,,,,,
,,,,,,,,,,,,0,6,6,6,1,seventh,1,22,female,mixed,at home,2021-07-01_13h46.02.016,ImageRatingTask_S2,2021.1.4,MacIntel,58.82352941,,,,,,,,,
,,,,,,,,,,,,0,7,7,7,1,last,1,22,female,mixed,at home,2021-07-01_13h46.02.016,ImageRatingTask_S2,2021.1.4,MacIntel,58.82352941,,,,,,,,,
,,,,,,,,,,,,,,,,,,1,22,female,mixed,at home,2021-07-01_13h46.02.016,ImageRatingTask_S2,2021.1.4,MacIntel,58.82352941,0,40,40,3,1,DreamStudyImages_rs1000x750g/Houses/NDPS25_houses3.jpg,,,
,,6,2.435,2,5.54,8,2.451,1,1.052,2,1.038,0,0,0,0,1,main,1,22,female,mixed,at home,2021-07-01_13h46.02.016,ImageRatingTask_S2,2021.1.4,MacIntel,58.82352941,,,,,,,,,
,,,,,,,,,,,,0,1,1,1,1,second,1,22,female,mixed,at home,2021-07-01_13h46.02.016,ImageRatingTask_S2,2021.1.4,MacIntel,58.82352941,,,,,,,,,
,,,,,,,,,,,,0,2,2,2,1,third,1,22,female,mixed,at home,2021-07-01_13h46.02.016,ImageRatingTask_S2,2021.1.4,MacIntel,58.82352941,,,,,,,,,
,,,,,,,,,,,,0,3,3,3,1,fourth,1,22,female,mixed,at home,2021-07-01_13h46.02.016,ImageRatingTask_S2,2021.1.4,MacIntel,58.82352941,,,,,,,,,
,,,,,,,,,,,,0,4,4,4,1,fifth,1,22,female,mixed,at home,2021-07-01_13h46.02.016,ImageRatingTask_S2,2021.1.4,MacIntel,58.82352941,,,,,,,,,
,,,,,,,,,,,,0,5,5,5,1,sixth,1,22,female,mixed,at home,2021-07-01_13h46.02.016,ImageRatingTask_S2,2021.1.4,MacIntel,58.82352941,,,,,,,,,
,,,,,,,,,,,,0,6,6,6,1,seventh,1,22,female,mixed,at home,2021-07-01_13h46.02.016,ImageRatingTask_S2,2021.1.4,MacIntel,58.82352941,,,,,,,,,
,,,,,,,,,,,,0,7,7,7,1,last,1,22,female,mixed,at home,2021-07-01_13h46.02.016,ImageRatingTask_S2,2021.1.4,MacIntel,58.82352941,,,,,,,,,
,,,,,,,,,,,,,,,,,,1,22,female,mixed,at home,2021-07-01_13h46.02.016,ImageRatingTask_S2,2021.1.4,MacIntel,58.82352941,0,41,41,80,1,DreamStudyImages_rs1000x750g/Children/People_055_h.jpg,,,
,,3,2.52,3,2.551,7,2.868,1,1.339,2,0.957,0,0,0,0,1,main,1,22,female,mixed,at home,2021-07-01_13h46.02.016,ImageRatingTask_S2,2021.1.4,MacIntel,58.82352941,,,,,,,,,
,,,,,,,,,,,,0,1,1,1,1,second,1,22,female,mixed,at home,2021-07-01_13h46.02.016,ImageRatingTask_S2,2021.1.4,MacIntel,58.82352941,,,,,,,,,
,,,,,,,,,,,,0,2,2,2,1,third,1,22,female,mixed,at home,2021-07-01_13h46.02.016,ImageRatingTask_S2,2021.1.4,MacIntel,58.82352941,,,,,,,,,
,,,,,,,,,,,,0,3,3,3,1,fourth,1,22,female,mixed,at home,2021-07-01_13h46.02.016,ImageRatingTask_S2,2021.1.4,MacIntel,58.82352941,,,,,,,,,
,,,,,,,,,,,,0,4,4,4,1,fifth,1,22,female,mixed,at home,2021-07-01_13h46.02.016,ImageRatingTask_S2,2021.1.4,MacIntel,58.82352941,,,,,,,,,
,,,,,,,,,,,,0,5,5,5,1,sixth,1,22,female,mixed,at home,2021-07-01_13h46.02.016,ImageRatingTask_S2,2021.1.4,MacIntel,58.82352941,,,,,,,,,
,,,,,,,,,,,,0,6,6,6,1,seventh,1,22,female,mixed,at home,2021-07-01_13h46.02.016,ImageRatingTask_S2,2021.1.4,MacIntel,58.82352941,,,,,,,,,
,,,,,,,,,,,,0,7,7,7,1,last,1,22,female,mixed,at home,2021-07-01_13h46.02.016,ImageRatingTask_S2,2021.1.4,MacIntel,58.82352941,,,,,,,,,
,,,,,,,,,,,,,,,,,,1,22,female,mixed,at home,2021-07-01_13h46.02.016,ImageRatingTask_S2,2021.1.4,MacIntel,58.82352941,0,42,42,51,1,DreamStudyImages_rs1000x750g/Children/Sad face 9.jpg,,,
,,6,2.875,2,2.28,7,5.852,1,1.653,2,0.954,0,0,0,0,1,main,1,22,female,mixed,at home,2021-07-01_13h46.02.016,ImageRatingTask_S2,2021.1.4,MacIntel,58.82352941,,,,,,,,,
,,,,,,,,,,,,0,1,1,1,1,second,1,22,female,mixed,at home,2021-07-01_13h46.02.016,ImageRatingTask_S2,2021.1.4,MacIntel,58.82352941,,,,,,,,,
,,,,,,,,,,,,0,2,2,2,1,third,1,22,female,mixed,at home,2021-07-01_13h46.02.016,ImageRatingTask_S2,2021.1.4,MacIntel,58.82352941,,,,,,,,,
,,,,,,,,,,,,0,3,3,3,1,fourth,1,22,female,mixed,at home,2021-07-01_13h46.02.016,ImageRatingTask_S2,2021.1.4,MacIntel,58.82352941,,,,,,,,,
,,,,,,,,,,,,0,4,4,4,1,fifth,1,22,female,mixed,at home,2021-07-01_13h46.02.016,ImageRatingTask_S2,2021.1.4,MacIntel,58.82352941,,,,,,,,,
,,,,,,,,,,,,0,5,5,5,1,sixth,1,22,female,mixed,at home,2021-07-01_13h46.02.016,ImageRatingTask_S2,2021.1.4,MacIntel,58.82352941,,,,,,,,,
,,,,,,,,,,,,0,6,6,6,1,seventh,1,22,female,mixed,at home,2021-07-01_13h46.02.016,ImageRatingTask_S2,2021.1.4,MacIntel,58.82352941,,,,,,,,,
,,,,,,,,,,,,0,7,7,7,1,last,1,22,female,mixed,at home,2021-07-01_13h46.02.016,ImageRatingTask_S2,2021.1.4,MacIntel,58.82352941,,,,,,,,,
,,,,,,,,,,,,,,,,,,1,22,female,mixed,at home,2021-07-01_13h46.02.016,ImageRatingTask_S2,2021.1.4,MacIntel,58.82352941,0,43,43,28,1,DreamStudyImages_rs1000x750g/Children/Faces_086_v.jpg,,,
,,5,7.271,2,6.55,8,2.34,1,1.571,7,1.708,0,0,0,0,1,main,1,22,female,mixed,at home,2021-07-01_13h46.02.016,ImageRatingTask_S2,2021.1.4,MacIntel,58.82352941,,,,,,,,,
,,,,,,,,,,,,0,1,1,1,1,second,1,22,female,mixed,at home,2021-07-01_13h46.02.016,ImageRatingTask_S2,2021.1.4,MacIntel,58.82352941,,,,,,,,,
,,,,,,,,,,,,0,2,2,2,1,third,1,22,female,mixed,at home,2021-07-01_13h46.02.016,ImageRatingTask_S2,2021.1.4,MacIntel,58.82352941,,,,,,,,,
,,,,,,,,,,,,0,3,3,3,1,fourth,1,22,female,mixed,at home,2021-07-01_13h46.02.016,ImageRatingTask_S2,2021.1.4,MacIntel,58.82352941,,,,,,,,,
,,,,,,,,,,,,0,4,4,4,1,fifth,1,22,female,mixed,at home,2021-07-01_13h46.02.016,ImageRatingTask_S2,2021.1.4,MacIntel,58.82352941,,,,,,,,,
,,,,,,,,,,,,0,5,5,5,1,sixth,1,22,female,mixed,at home,2021-07-01_13h46.02.016,ImageRatingTask_S2,2021.1.4,MacIntel,58.82352941,,,,,,,,,
,,,,,,,,,,,,0,6,6,6,1,seventh,1,22,female,mixed,at home,2021-07-01_13h46.02.016,ImageRatingTask_S2,2021.1.4,MacIntel,58.82352941,,,,,,,,,
,,,,,,,,,,,,0,7,7,7,1,last,1,22,female,mixed,at home,2021-07-01_13h46.02.016,ImageRatingTask_S2,2021.1.4,MacIntel,58.82352941,,,,,,,,,
,,,,,,,,,,,,,,,,,,1,22,female,mixed,at home,2021-07-01_13h46.02.016,ImageRatingTask_S2,2021.1.4,MacIntel,58.82352941,0,44,44,4,1,DreamStudyImages_rs1000x750g/Vehicles/desertroad.jpg,,,
,,7,3.355,2,2.98,7,2.836,1,1.157,5,1.155,0,0,0,0,1,main,1,22,female,mixed,at home,2021-07-01_13h46.02.016,ImageRatingTask_S2,2021.1.4,MacIntel,58.82352941,,,,,,,,,
,,,,,,,,,,,,0,1,1,1,1,second,1,22,female,mixed,at home,2021-07-01_13h46.02.016,ImageRatingTask_S2,2021.1.4,MacIntel,58.82352941,,,,,,,,,
,,,,,,,,,,,,0,2,2,2,1,third,1,22,female,mixed,at home,2021-07-01_13h46.02.016,ImageRatingTask_S2,2021.1.4,MacIntel,58.82352941,,,,,,,,,
,,,,,,,,,,,,0,3,3,3,1,fourth,1,22,female,mixed,at home,2021-07-01_13h46.02.016,ImageRatingTask_S2,2021.1.4,MacIntel,58.82352941,,,,,,,,,
,,,,,,,,,,,,0,4,4,4,1,fifth,1,22,female,mixed,at home,2021-07-01_13h46.02.016,ImageRatingTask_S2,2021.1.4,MacIntel,58.82352941,,,,,,,,,
,,,,,,,,,,,,0,5,5,5,1,sixth,1,22,female,mixed,at home,2021-07-01_13h46.02.016,ImageRatingTask_S2,2021.1.4,MacIntel,58.82352941,,,,,,,,,
,,,,,,,,,,,,0,6,6,6,1,seventh,1,22,female,mixed,at home,2021-07-01_13h46.02.016,ImageRatingTask_S2,2021.1.4,MacIntel,58.82352941,,,,,,,,,
,,,,,,,,,,,,0,7,7,7,1,last,1,22,female,mixed,at home,2021-07-01_13h46.02.016,ImageRatingTask_S2,2021.1.4,MacIntel,58.82352941,,,,,,,,,
,,,,,,,,,,,,,,,,,,1,22,female,mixed,at home,2021-07-01_13h46.02.016,ImageRatingTask_S2,2021.1.4,MacIntel,58.82352941,0,45,45,56,1,DreamStudyImages_rs1000x750g/Food/Dessert 4.jpg,,,
,,5,5.261,1,1.575,7,3.56,1,0.71,5,1.202,0,0,0,0,1,main,1,22,female,mixed,at home,2021-07-01_13h46.02.016,ImageRatingTask_S2,2021.1.4,MacIntel,58.82352941,,,,,,,,,
,,,,,,,,,,,,0,1,1,1,1,second,1,22,female,mixed,at home,2021-07-01_13h46.02.016,ImageRatingTask_S2,2021.1.4,MacIntel,58.82352941,,,,,,,,,
,,,,,,,,,,,,0,2,2,2,1,third,1,22,female,mixed,at home,2021-07-01_13h46.02.016,ImageRatingTask_S2,2021.1.4,MacIntel,58.82352941,,,,,,,,,
,,,,,,,,,,,,0,3,3,3,1,fourth,1,22,female,mixed,at home,2021-07-01_13h46.02.016,ImageRatingTask_S2,2021.1.4,MacIntel,58.82352941,,,,,,,,,
,,,,,,,,,,,,0,4,4,4,1,fifth,1,22,female,mixed,at home,2021-07-01_13h46.02.016,ImageRatingTask_S2,2021.1.4,MacIntel,58.82352941,,,,,,,,,
,,,,,,,,,,,,0,5,5,5,1,sixth,1,22,female,mixed,at home,2021-07-01_13h46.02.016,ImageRatingTask_S2,2021.1.4,MacIntel,58.82352941,,,,,,,,,
,,,,,,,,,,,,0,6,6,6,1,seventh,1,22,female,mixed,at home,2021-07-01_13h46.02.016,ImageRatingTask_S2,2021.1.4,MacIntel,58.82352941,,,,,,,,,
,,,,,,,,,,,,0,7,7,7,1,last,1,22,female,mixed,at home,2021-07-01_13h46.02.016,ImageRatingTask_S2,2021.1.4,MacIntel,58.82352941,,,,,,,,,
,,,,,,,,,,,,,,,,,,1,22,female,mixed,at home,2021-07-01_13h46.02.016,ImageRatingTask_S2,2021.1.4,MacIntel,58.82352941,0,46,46,84,1,DreamStudyImages_rs1000x750g/Mammals/Animals_205_h.jpg,,,
,,5,3.138,1,0.707,8,1.742,1,2.814,6,2.093,0,0,0,0,1,main,1,22,female,mixed,at home,2021-07-01_13h46.02.016,ImageRatingTask_S2,2021.1.4,MacIntel,58.82352941,,,,,,,,,
,,,,,,,,,,,,0,1,1,1,1,second,1,22,female,mixed,at home,2021-07-01_13h46.02.016,ImageRatingTask_S2,2021.1.4,MacIntel,58.82352941,,,,,,,,,
,,,,,,,,,,,,0,2,2,2,1,third,1,22,female,mixed,at home,2021-07-01_13h46.02.016,ImageRatingTask_S2,2021.1.4,MacIntel,58.82352941,,,,,,,,,
,,,,,,,,,,,,0,3,3,3,1,fourth,1,22,female,mixed,at home,2021-07-01_13h46.02.016,ImageRatingTask_S2,2021.1.4,MacIntel,58.82352941,,,,,,,,,
,,,,,,,,,,,,0,4,4,4,1,fifth,1,22,female,mixed,at home,2021-07-01_13h46.02.016,ImageRatingTask_S2,2021.1.4,MacIntel,58.82352941,,,,,,,,,
,,,,,,,,,,,,0,5,5,5,1,sixth,1,22,female,mixed,at home,2021-07-01_13h46.02.016,ImageRatingTask_S2,2021.1.4,MacIntel,58.82352941,,,,,,,,,
,,,,,,,,,,,,0,6,6,6,1,seventh,1,22,female,mixed,at home,2021-07-01_13h46.02.016,ImageRatingTask_S2,2021.1.4,MacIntel,58.82352941,,,,,,,,,
,,,,,,,,,,,,0,7,7,7,1,last,1,22,female,mixed,at home,2021-07-01_13h46.02.016,ImageRatingTask_S2,2021.1.4,MacIntel,58.82352941,,,,,,,,,
,,,,,,,,,,,,,,,,,,1,22,female,mixed,at home,2021-07-01_13h46.02.016,ImageRatingTask_S2,2021.1.4,MacIntel,58.82352941,0,47,47,68,1,DreamStudyImages_rs1000x750g/Houses/Landscapes_072_h.jpg,,,
,,3,6.62,3,4.768,7,4.731,1,5.588,2,0.776,0,0,0,0,1,main,1,22,female,mixed,at home,2021-07-01_13h46.02.016,ImageRatingTask_S2,2021.1.4,MacIntel,58.82352941,,,,,,,,,
,,,,,,,,,,,,0,1,1,1,1,second,1,22,female,mixed,at home,2021-07-01_13h46.02.016,ImageRatingTask_S2,2021.1.4,MacIntel,58.82352941,,,,,,,,,
,,,,,,,,,,,,0,2,2,2,1,third,1,22,female,mixed,at home,2021-07-01_13h46.02.016,ImageRatingTask_S2,2021.1.4,MacIntel,58.82352941,,,,,,,,,
,,,,,,,,,,,,0,3,3,3,1,fourth,1,22,female,mixed,at home,2021-07-01_13h46.02.016,ImageRatingTask_S2,2021.1.4,MacIntel,58.82352941,,,,,,,,,
,,,,,,,,,,,,0,4,4,4,1,fifth,1,22,female,mixed,at home,2021-07-01_13h46.02.016,ImageRatingTask_S2,2021.1.4,MacIntel,58.82352941,,,,,,,,,
,,,,,,,,,,,,0,5,5,5,1,sixth,1,22,female,mixed,at home,2021-07-01_13h46.02.016,ImageRatingTask_S2,2021.1.4,MacIntel,58.82352941,,,,,,,,,
,,,,,,,,,,,,0,6,6,6,1,seventh,1,22,female,mixed,at home,2021-07-01_13h46.02.016,ImageRatingTask_S2,2021.1.4,MacIntel,58.82352941,,,,,,,,,
,,,,,,,,,,,,0,7,7,7,1,last,1,22,female,mixed,at home,2021-07-01_13h46.02.016,ImageRatingTask_S2,2021.1.4,MacIntel,58.82352941,,,,,,,,,
,,,,,,,,,,,,,,,,,,1,22,female,mixed,at home,2021-07-01_13h46.02.016,ImageRatingTask_S2,2021.1.4,MacIntel,58.82352941,0,48,48,34,1,DreamStudyImages_rs1000x750g/Children/Faces_029_h.jpg,,,
,,6,3.611,1,0.474,7,1.914,1,2.165,8,1.494,0,0,0,0,1,main,1,22,female,mixed,at home,2021-07-01_13h46.02.016,ImageRatingTask_S2,2021.1.4,MacIntel,58.82352941,,,,,,,,,
,,,,,,,,,,,,0,1,1,1,1,second,1,22,female,mixed,at home,2021-07-01_13h46.02.016,ImageRatingTask_S2,2021.1.4,MacIntel,58.82352941,,,,,,,,,
,,,,,,,,,,,,0,2,2,2,1,third,1,22,female,mixed,at home,2021-07-01_13h46.02.016,ImageRatingTask_S2,2021.1.4,MacIntel,58.82352941,,,,,,,,,
,,,,,,,,,,,,0,3,3,3,1,fourth,1,22,female,mixed,at home,2021-07-01_13h46.02.016,ImageRatingTask_S2,2021.1.4,MacIntel,58.82352941,,,,,,,,,
,,,,,,,,,,,,0,4,4,4,1,fifth,1,22,female,mixed,at home,2021-07-01_13h46.02.016,ImageRatingTask_S2,2021.1.4,MacIntel,58.82352941,,,,,,,,,
,,,,,,,,,,,,0,5,5,5,1,sixth,1,22,female,mixed,at home,2021-07-01_13h46.02.016,ImageRatingTask_S2,2021.1.4,MacIntel,58.82352941,,,,,,,,,
,,,,,,,,,,,,0,6,6,6,1,seventh,1,22,female,mixed,at home,2021-07-01_13h46.02.016,ImageRatingTask_S2,2021.1.4,MacIntel,58.82352941,,,,,,,,,
,,,,,,,,,,,,0,7,7,7,1,last,1,22,female,mixed,at home,2021-07-01_13h46.02.016,ImageRatingTask_S2,2021.1.4,MacIntel,58.82352941,,,,,,,,,
,,,,,,,,,,,,,,,,,,1,22,female,mixed,at home,2021-07-01_13h46.02.016,ImageRatingTask_S2,2021.1.4,MacIntel,58.82352941,0,49,49,92,1,DreamStudyImages_rs1000x750g/Water/fishingsunset_CROPPED.jpg,,,
,,5,1.851,1,1.254,8,2.42,1,1.981,7,0.835,0,0,0,0,1,main,1,22,female,mixed,at home,2021-07-01_13h46.02.016,ImageRatingTask_S2,2021.1.4,MacIntel,58.82352941,,,,,,,,,
,,,,,,,,,,,,0,1,1,1,1,second,1,22,female,mixed,at home,2021-07-01_13h46.02.016,ImageRatingTask_S2,2021.1.4,MacIntel,58.82352941,,,,,,,,,
,,,,,,,,,,,,0,2,2,2,1,third,1,22,female,mixed,at home,2021-07-01_13h46.02.016,ImageRatingTask_S2,2021.1.4,MacIntel,58.82352941,,,,,,,,,
,,,,,,,,,,,,0,3,3,3,1,fourth,1,22,female,mixed,at home,2021-07-01_13h46.02.016,ImageRatingTask_S2,2021.1.4,MacIntel,58.82352941,,,,,,,,,
,,,,,,,,,,,,0,4,4,4,1,fifth,1,22,female,mixed,at home,2021-07-01_13h46.02.016,ImageRatingTask_S2,2021.1.4,MacIntel,58.82352941,,,,,,,,,
,,,,,,,,,,,,0,5,5,5,1,sixth,1,22,female,mixed,at home,2021-07-01_13h46.02.016,ImageRatingTask_S2,2021.1.4,MacIntel,58.82352941,,,,,,,,,
,,,,,,,,,,,,0,6,6,6,1,seventh,1,22,female,mixed,at home,2021-07-01_13h46.02.016,ImageRatingTask_S2,2021.1.4,MacIntel,58.82352941,,,,,,,,,
,,,,,,,,,,,,0,7,7,7,1,last,1,22,female,mixed,at home,2021-07-01_13h46.02.016,ImageRatingTask_S2,2021.1.4,MacIntel,58.82352941,,,,,,,,,
,,,,,,,,,,,,,,,,,,1,22,female,mixed,at home,2021-07-01_13h46.02.016,ImageRatingTask_S2,2021.1.4,MacIntel,58.82352941,0,50,50,156,1,DreamStudyImages_rs1000x750g/Vehicles/Objects_297_h.jpg,,,
,,3,8.285,3,4.068,4,4.217,0,4.072,,,0,0,0,0,1,main,1,22,female,mixed,at home,2021-07-01_13h46.02.016,ImageRatingTask_S2,2021.1.4,MacIntel,58.82352941,,,,,,,,,
,,,,,,,,,,,,0,1,1,1,1,second,1,22,female,mixed,at home,2021-07-01_13h46.02.016,ImageRatingTask_S2,2021.1.4,MacIntel,58.82352941,,,,,,,,,
,,,,,,,,,,,,0,2,2,2,1,third,1,22,female,mixed,at home,2021-07-01_13h46.02.016,ImageRatingTask_S2,2021.1.4,MacIntel,58.82352941,,,,,,,,,
,,,,,,,,,,,,0,3,3,3,1,fourth,1,22,female,mixed,at home,2021-07-01_13h46.02.016,ImageRatingTask_S2,2021.1.4,MacIntel,58.82352941,,,,,,,,,
,,,,,,,,,,,,0,4,4,4,1,fifth,1,22,female,mixed,at home,2021-07-01_13h46.02.016,ImageRatingTask_S2,2021.1.4,MacIntel,58.82352941,,,,,,,,,
,,,,,,,,,,,,0,5,5,5,1,sixth,1,22,female,mixed,at home,2021-07-01_13h46.02.016,ImageRatingTask_S2,2021.1.4,MacIntel,58.82352941,,,,,,,,,
,,,,,,,,,,,,0,6,6,6,1,seventh,1,22,female,mixed,at home,2021-07-01_13h46.02.016,ImageRatingTask_S2,2021.1.4,MacIntel,58.82352941,,,,,,,,,
,,,,,,,,,,,,0,7,7,7,1,last,1,22,female,mixed,at home,2021-07-01_13h46.02.016,ImageRatingTask_S2,2021.1.4,MacIntel,58.82352941,,,,,,,,,
,,,,,,,,,,,,,,,,,,1,22,female,mixed,at home,2021-07-01_13h46.02.016,ImageRatingTask_S2,2021.1.4,MacIntel,58.82352941,0,51,51,99,1,DreamStudyImages_rs1000x750g/Houses/Graveyard 4.jpg,,,
,,7,3.371,2,1.589,7,3.722,1,4.054,3,1.352,0,0,0,0,1,main,1,22,female,mixed,at home,2021-07-01_13h46.02.016,ImageRatingTask_S2,2021.1.4,MacIntel,58.82352941,,,,,,,,,
,,,,,,,,,,,,0,1,1,1,1,second,1,22,female,mixed,at home,2021-07-01_13h46.02.016,ImageRatingTask_S2,2021.1.4,MacIntel,58.82352941,,,,,,,,,
,,,,,,,,,,,,0,2,2,2,1,third,1,22,female,mixed,at home,2021-07-01_13h46.02.016,ImageRatingTask_S2,2021.1.4,MacIntel,58.82352941,,,,,,,,,
,,,,,,,,,,,,0,3,3,3,1,fourth,1,22,female,mixed,at home,2021-07-01_13h46.02.016,ImageRatingTask_S2,2021.1.4,MacIntel,58.82352941,,,,,,,,,
,,,,,,,,,,,,0,4,4,4,1,fifth,1,22,female,mixed,at home,2021-07-01_13h46.02.016,ImageRatingTask_S2,2021.1.4,MacIntel,58.82352941,,,,,,,,,
,,,,,,,,,,,,0,5,5,5,1,sixth,1,22,female,mixed,at home,2021-07-01_13h46.02.016,ImageRatingTask_S2,2021.1.4,MacIntel,58.82352941,,,,,,,,,
,,,,,,,,,,,,0,6,6,6,1,seventh,1,22,female,mixed,at home,2021-07-01_13h46.02.016,ImageRatingTask_S2,2021.1.4,MacIntel,58.82352941,,,,,,,,,
,,,,,,,,,,,,0,7,7,7,1,last,1,22,female,mixed,at home,2021-07-01_13h46.02.016,ImageRatingTask_S2,2021.1.4,MacIntel,58.82352941,,,,,,,,,
,,,,,,,,,,,,,,,,,,1,22,female,mixed,at home,2021-07-01_13h46.02.016,ImageRatingTask_S2,2021.1.4,MacIntel,58.82352941,0,52,52,31,1,DreamStudyImages_rs1000x750g/Mammals/Animals_120_h.jpg,,,
,,5,4.505,2,1.381,7,5.967,2,3.566,2,2.676,0,0,0,0,1,main,1,22,female,mixed,at home,2021-07-01_13h46.02.016,ImageRatingTask_S2,2021.1.4,MacIntel,58.82352941,,,,,,,,,
,,,,,,,,,,1,1.985,0,1,1,1,1,second,1,22,female,mixed,at home,2021-07-01_13h46.02.016,ImageRatingTask_S2,2021.1.4,MacIntel,58.82352941,,,,,,,,,
,,,,,,,,,,,,0,2,2,2,1,third,1,22,female,mixed,at home,2021-07-01_13h46.02.016,ImageRatingTask_S2,2021.1.4,MacIntel,58.82352941,,,,,,,,,
,,,,,,,,,,,,0,3,3,3,1,fourth,1,22,female,mixed,at home,2021-07-01_13h46.02.016,ImageRatingTask_S2,2021.1.4,MacIntel,58.82352941,,,,,,,,,
,,,,,,,,,,,,0,4,4,4,1,fifth,1,22,female,mixed,at home,2021-07-01_13h46.02.016,ImageRatingTask_S2,2021.1.4,MacIntel,58.82352941,,,,,,,,,
,,,,,,,,,,,,0,5,5,5,1,sixth,1,22,female,mixed,at home,2021-07-01_13h46.02.016,ImageRatingTask_S2,2021.1.4,MacIntel,58.82352941,,,,,,,,,
,,,,,,,,,,,,0,6,6,6,1,seventh,1,22,female,mixed,at home,2021-07-01_13h46.02.016,ImageRatingTask_S2,2021.1.4,MacIntel,58.82352941,,,,,,,,,
,,,,,,,,,,,,0,7,7,7,1,last,1,22,female,mixed,at home,2021-07-01_13h46.02.016,ImageRatingTask_S2,2021.1.4,MacIntel,58.82352941,,,,,,,,,
,,,,,,,,,,,,,,,,,,1,22,female,mixed,at home,2021-07-01_13h46.02.016,ImageRatingTask_S2,2021.1.4,MacIntel,58.82352941,0,53,53,147,1,DreamStudyImages_rs1000x750g/Children/Faces_055_h.jpg,,,
,,2,8.892,5,2.256,7,4.761,1,1.634,7,0.821,0,0,0,0,1,main,1,22,female,mixed,at home,2021-07-01_13h46.02.016,ImageRatingTask_S2,2021.1.4,MacIntel,58.82352941,,,,,,,,,
,,,,,,,,,,,,0,1,1,1,1,second,1,22,female,mixed,at home,2021-07-01_13h46.02.016,ImageRatingTask_S2,2021.1.4,MacIntel,58.82352941,,,,,,,,,
,,,,,,,,,,,,0,2,2,2,1,third,1,22,female,mixed,at home,2021-07-01_13h46.02.016,ImageRatingTask_S2,2021.1.4,MacIntel,58.82352941,,,,,,,,,
,,,,,,,,,,,,0,3,3,3,1,fourth,1,22,female,mixed,at home,2021-07-01_13h46.02.016,ImageRatingTask_S2,2021.1.4,MacIntel,58.82352941,,,,,,,,,
,,,,,,,,,,,,0,4,4,4,1,fifth,1,22,female,mixed,at home,2021-07-01_13h46.02.016,ImageRatingTask_S2,2021.1.4,MacIntel,58.82352941,,,,,,,,,
,,,,,,,,,,,,0,5,5,5,1,sixth,1,22,female,mixed,at home,2021-07-01_13h46.02.016,ImageRatingTask_S2,2021.1.4,MacIntel,58.82352941,,,,,,,,,
,,,,,,,,,,,,0,6,6,6,1,seventh,1,22,female,mixed,at home,2021-07-01_13h46.02.016,ImageRatingTask_S2,2021.1.4,MacIntel,58.82352941,,,,,,,,,
,,,,,,,,,,,,0,7,7,7,1,last,1,22,female,mixed,at home,2021-07-01_13h46.02.016,ImageRatingTask_S2,2021.1.4,MacIntel,58.82352941,,,,,,,,,
,,,,,,,,,,,,,,,,,,1,22,female,mixed,at home,2021-07-01_13h46.02.016,ImageRatingTask_S2,2021.1.4,MacIntel,58.82352941,0,54,54,150,1,DreamStudyImages_rs1000x750g/Vehicles/9610.jpg,,,
,,5,2.469,1,3.998,6,1.908,1,3.547,8,1.016,0,0,0,0,1,main,1,22,female,mixed,at home,2021-07-01_13h46.02.016,ImageRatingTask_S2,2021.1.4,MacIntel,58.82352941,,,,,,,,,
,,,,,,,,,,,,0,1,1,1,1,second,1,22,female,mixed,at home,2021-07-01_13h46.02.016,ImageRatingTask_S2,2021.1.4,MacIntel,58.82352941,,,,,,,,,
,,,,,,,,,,,,0,2,2,2,1,third,1,22,female,mixed,at home,2021-07-01_13h46.02.016,ImageRatingTask_S2,2021.1.4,MacIntel,58.82352941,,,,,,,,,
,,,,,,,,,,,,0,3,3,3,1,fourth,1,22,female,mixed,at home,2021-07-01_13h46.02.016,ImageRatingTask_S2,2021.1.4,MacIntel,58.82352941,,,,,,,,,
,,,,,,,,,,,,0,4,4,4,1,fifth,1,22,female,mixed,at home,2021-07-01_13h46.02.016,ImageRatingTask_S2,2021.1.4,MacIntel,58.82352941,,,,,,,,,
,,,,,,,,,,,,0,5,5,5,1,sixth,1,22,female,mixed,at home,2021-07-01_13h46.02.016,ImageRatingTask_S2,2021.1.4,MacIntel,58.82352941,,,,,,,,,
,,,,,,,,,,,,0,6,6,6,1,seventh,1,22,female,mixed,at home,2021-07-01_13h46.02.016,ImageRatingTask_S2,2021.1.4,MacIntel,58.82352941,,,,,,,,,
,,,,,,,,,,,,0,7,7,7,1,last,1,22,female,mixed,at home,2021-07-01_13h46.02.016,ImageRatingTask_S2,2021.1.4,MacIntel,58.82352941,,,,,,,,,
,,,,,,,,,,,,,,,,,,1,22,female,mixed,at home,2021-07-01_13h46.02.016,ImageRatingTask_S2,2021.1.4,MacIntel,58.82352941,0,55,55,93,1,DreamStudyImages_rs1000x750g/Water/Lake 2.jpg,,,
,,7,4.358,3,3.936,8,3.632,1,1.131,5,1.973,0,0,0,0,1,main,1,22,female,mixed,at home,2021-07-01_13h46.02.016,ImageRatingTask_S2,2021.1.4,MacIntel,58.82352941,,,,,,,,,
,,,,,,,,,,,,0,1,1,1,1,second,1,22,female,mixed,at home,2021-07-01_13h46.02.016,ImageRatingTask_S2,2021.1.4,MacIntel,58.82352941,,,,,,,,,
,,,,,,,,,,,,0,2,2,2,1,third,1,22,female,mixed,at home,2021-07-01_13h46.02.016,ImageRatingTask_S2,2021.1.4,MacIntel,58.82352941,,,,,,,,,
,,,,,,,,,,,,0,3,3,3,1,fourth,1,22,female,mixed,at home,2021-07-01_13h46.02.016,ImageRatingTask_S2,2021.1.4,MacIntel,58.82352941,,,,,,,,,
,,,,,,,,,,,,0,4,4,4,1,fifth,1,22,female,mixed,at home,2021-07-01_13h46.02.016,ImageRatingTask_S2,2021.1.4,MacIntel,58.82352941,,,,,,,,,
,,,,,,,,,,,,0,5,5,5,1,sixth,1,22,female,mixed,at home,2021-07-01_13h46.02.016,ImageRatingTask_S2,2021.1.4,MacIntel,58.82352941,,,,,,,,,
,,,,,,,,,,,,0,6,6,6,1,seventh,1,22,female,mixed,at home,2021-07-01_13h46.02.016,ImageRatingTask_S2,2021.1.4,MacIntel,58.82352941,,,,,,,,,
,,,,,,,,,,,,0,7,7,7,1,last,1,22,female,mixed,at home,2021-07-01_13h46.02.016,ImageRatingTask_S2,2021.1.4,MacIntel,58.82352941,,,,,,,,,
,,,,,,,,,,,,,,,,,,1,22,female,mixed,at home,2021-07-01_13h46.02.016,ImageRatingTask_S2,2021.1.4,MacIntel,58.82352941,0,56,56,143,1,DreamStudyImages_rs1000x750g/Food/Objects_092_v.jpg,,,
,,7,4.425,3,2.875,8,2.983,1,3.484,2,0.821,0,0,0,0,1,main,1,22,female,mixed,at home,2021-07-01_13h46.02.016,ImageRatingTask_S2,2021.1.4,MacIntel,58.82352941,,,,,,,,,
,,,,,,,,,,,,0,1,1,1,1,second,1,22,female,mixed,at home,2021-07-01_13h46.02.016,ImageRatingTask_S2,2021.1.4,MacIntel,58.82352941,,,,,,,,,
,,,,,,,,,,,,0,2,2,2,1,third,1,22,female,mixed,at home,2021-07-01_13h46.02.016,ImageRatingTask_S2,2021.1.4,MacIntel,58.82352941,,,,,,,,,
,,,,,,,,,,,,0,3,3,3,1,fourth,1,22,female,mixed,at home,2021-07-01_13h46.02.016,ImageRatingTask_S2,2021.1.4,MacIntel,58.82352941,,,,,,,,,
,,,,,,,,,,,,0,4,4,4,1,fifth,1,22,female,mixed,at home,2021-07-01_13h46.02.016,ImageRatingTask_S2,2021.1.4,MacIntel,58.82352941,,,,,,,,,
,,,,,,,,,,,,0,5,5,5,1,sixth,1,22,female,mixed,at home,2021-07-01_13h46.02.016,ImageRatingTask_S2,2021.1.4,MacIntel,58.82352941,,,,,,,,,
,,,,,,,,,,,,0,6,6,6,1,seventh,1,22,female,mixed,at home,2021-07-01_13h46.02.016,ImageRatingTask_S2,2021.1.4,MacIntel,58.82352941,,,,,,,,,
,,,,,,,,,,,,0,7,7,7,1,last,1,22,female,mixed,at home,2021-07-01_13h46.02.016,ImageRatingTask_S2,2021.1.4,MacIntel,58.82352941,,,,,,,,,
,,,,,,,,,,,,,,,,,,1,22,female,mixed,at home,2021-07-01_13h46.02.016,ImageRatingTask_S2,2021.1.4,MacIntel,58.82352941,0,57,57,87,1,DreamStudyImages_rs1000x750g/Children/IAPS2347_children12.jpg,,,
,,2,6.06,5,4.492,7,5.099,1,1.147,3,2.225,0,0,0,0,1,main,1,22,female,mixed,at home,2021-07-01_13h46.02.016,ImageRatingTask_S2,2021.1.4,MacIntel,58.82352941,,,,,,,,,
,,,,,,,,,,,,0,1,1,1,1,second,1,22,female,mixed,at home,2021-07-01_13h46.02.016,ImageRatingTask_S2,2021.1.4,MacIntel,58.82352941,,,,,,,,,
,,,,,,,,,,,,0,2,2,2,1,third,1,22,female,mixed,at home,2021-07-01_13h46.02.016,ImageRatingTask_S2,2021.1.4,MacIntel,58.82352941,,,,,,,,,
,,,,,,,,,,,,0,3,3,3,1,fourth,1,22,female,mixed,at home,2021-07-01_13h46.02.016,ImageRatingTask_S2,2021.1.4,MacIntel,58.82352941,,,,,,,,,
,,,,,,,,,,,,0,4,4,4,1,fifth,1,22,female,mixed,at home,2021-07-01_13h46.02.016,ImageRatingTask_S2,2021.1.4,MacIntel,58.82352941,,,,,,,,,
,,,,,,,,,,,,0,5,5,5,1,sixth,1,22,female,mixed,at home,2021-07-01_13h46.02.016,ImageRatingTask_S2,2021.1.4,MacIntel,58.82352941,,,,,,,,,
,,,,,,,,,,,,0,6,6,6,1,seventh,1,22,female,mixed,at home,2021-07-01_13h46.02.016,ImageRatingTask_S2,2021.1.4,MacIntel,58.82352941,,,,,,,,,
,,,,,,,,,,,,0,7,7,7,1,last,1,22,female,mixed,at home,2021-07-01_13h46.02.016,ImageRatingTask_S2,2021.1.4,MacIntel,58.82352941,,,,,,,,,
,,,,,,,,,,,,,,,,,,1,22,female,mixed,at home,2021-07-01_13h46.02.016,ImageRatingTask_S2,2021.1.4,MacIntel,58.82352941,0,58,58,18,1,DreamStudyImages_rs1000x750g/Mammals/Animals_207_h.jpg,,,
,,2,3.71,5,3.62,7,9.135,1,5.158,7,0.891,0,0,0,0,1,main,1,22,female,mixed,at home,2021-07-01_13h46.02.016,ImageRatingTask_S2,2021.1.4,MacIntel,58.82352941,,,,,,,,,
,,,,,,,,,,,,0,1,1,1,1,second,1,22,female,mixed,at home,2021-07-01_13h46.02.016,ImageRatingTask_S2,2021.1.4,MacIntel,58.82352941,,,,,,,,,
,,,,,,,,,,,,0,2,2,2,1,third,1,22,female,mixed,at home,2021-07-01_13h46.02.016,ImageRatingTask_S2,2021.1.4,MacIntel,58.82352941,,,,,,,,,
,,,,,,,,,,,,0,3,3,3,1,fourth,1,22,female,mixed,at home,2021-07-01_13h46.02.016,ImageRatingTask_S2,2021.1.4,MacIntel,58.82352941,,,,,,,,,
,,,,,,,,,,,,0,4,4,4,1,fifth,1,22,female,mixed,at home,2021-07-01_13h46.02.016,ImageRatingTask_S2,2021.1.4,MacIntel,58.82352941,,,,,,,,,
,,,,,,,,,,,,0,5,5,5,1,sixth,1,22,female,mixed,at home,2021-07-01_13h46.02.016,ImageRatingTask_S2,2021.1.4,MacIntel,58.82352941,,,,,,,,,
,,,,,,,,,,,,0,6,6,6,1,seventh,1,22,female,mixed,at home,2021-07-01_13h46.02.016,ImageRatingTask_S2,2021.1.4,MacIntel,58.82352941,,,,,,,,,
,,,,,,,,,,,,0,7,7,7,1,last,1,22,female,mixed,at home,2021-07-01_13h46.02.016,ImageRatingTask_S2,2021.1.4,MacIntel,58.82352941,,,,,,,,,
,,,,,,,,,,,,,,,,,,1,22,female,mixed,at home,2021-07-01_13h46.02.016,ImageRatingTask_S2,2021.1.4,MacIntel,58.82352941,0,59,59,128,1,DreamStudyImages_rs1000x750g/Vehicles/Ambulance 2.jpg,,,
,,1,4.046,6,5.643,7,3.083,1,4.91,8,0.977,0,0,0,0,1,main,1,22,female,mixed,at home,2021-07-01_13h46.02.016,ImageRatingTask_S2,2021.1.4,MacIntel,58.82352941,,,,,,,,,
,,,,,,,,,,,,0,1,1,1,1,second,1,22,female,mixed,at home,2021-07-01_13h46.02.016,ImageRatingTask_S2,2021.1.4,MacIntel,58.82352941,,,,,,,,,
,,,,,,,,,,,,0,2,2,2,1,third,1,22,female,mixed,at home,2021-07-01_13h46.02.016,ImageRatingTask_S2,2021.1.4,MacIntel,58.82352941,,,,,,,,,
,,,,,,,,,,,,0,3,3,3,1,fourth,1,22,female,mixed,at home,2021-07-01_13h46.02.016,ImageRatingTask_S2,2021.1.4,MacIntel,58.82352941,,,,,,,,,
,,,,,,,,,,,,0,4,4,4,1,fifth,1,22,female,mixed,at home,2021-07-01_13h46.02.016,ImageRatingTask_S2,2021.1.4,MacIntel,58.82352941,,,,,,,,,
,,,,,,,,,,,,0,5,5,5,1,sixth,1,22,female,mixed,at home,2021-07-01_13h46.02.016,ImageRatingTask_S2,2021.1.4,MacIntel,58.82352941,,,,,,,,,
,,,,,,,,,,,,0,6,6,6,1,seventh,1,22,female,mixed,at home,2021-07-01_13h46.02.016,ImageRatingTask_S2,2021.1.4,MacIntel,58.82352941,,,,,,,,,
,,,,,,,,,,,,0,7,7,7,1,last,1,22,female,mixed,at home,2021-07-01_13h46.02.016,ImageRatingTask_S2,2021.1.4,MacIntel,58.82352941,,,,,,,,,
,,,,,,,,,,,,,,,,,,1,22,female,mixed,at home,2021-07-01_13h46.02.016,ImageRatingTask_S2,2021.1.4,MacIntel,58.82352941,0,60,60,152,1,DreamStudyImages_rs1000x750g/Water/15.jpg,,,
,,5,2.603,1,2.766,9,1.669,1,1.015,8,0.756,0,0,0,0,1,main,1,22,female,mixed,at home,2021-07-01_13h46.02.016,ImageRatingTask_S2,2021.1.4,MacIntel,58.82352941,,,,,,,,,
,,,,,,,,,,,,0,1,1,1,1,second,1,22,female,mixed,at home,2021-07-01_13h46.02.016,ImageRatingTask_S2,2021.1.4,MacIntel,58.82352941,,,,,,,,,
,,,,,,,,,,,,0,2,2,2,1,third,1,22,female,mixed,at home,2021-07-01_13h46.02.016,ImageRatingTask_S2,2021.1.4,MacIntel,58.82352941,,,,,,,,,
,,,,,,,,,,,,0,3,3,3,1,fourth,1,22,female,mixed,at home,2021-07-01_13h46.02.016,ImageRatingTask_S2,2021.1.4,MacIntel,58.82352941,,,,,,,,,
,,,,,,,,,,,,0,4,4,4,1,fifth,1,22,female,mixed,at home,2021-07-01_13h46.02.016,ImageRatingTask_S2,2021.1.4,MacIntel,58.82352941,,,,,,,,,
,,,,,,,,,,,,0,5,5,5,1,sixth,1,22,female,mixed,at home,2021-07-01_13h46.02.016,ImageRatingTask_S2,2021.1.4,MacIntel,58.82352941,,,,,,,,,
,,,,,,,,,,,,0,6,6,6,1,seventh,1,22,female,mixed,at home,2021-07-01_13h46.02.016,ImageRatingTask_S2,2021.1.4,MacIntel,58.82352941,,,,,,,,,
,,,,,,,,,,,,0,7,7,7,1,last,1,22,female,mixed,at home,2021-07-01_13h46.02.016,ImageRatingTask_S2,2021.1.4,MacIntel,58.82352941,,,,,,,,,
,,,,,,,,,,,,,,,,,,1,22,female,mixed,at home,2021-07-01_13h46.02.016,ImageRatingTask_S2,2021.1.4,MacIntel,58.82352941,0,61,61,117,1,DreamStudyImages_rs1000x750g/Water/Landscapes_104_h.jpg,,,
,,4,3.511,2,2.247,7,1.78,2,2.04,2,1.633,0,0,0,0,1,main,1,22,female,mixed,at home,2021-07-01_13h46.02.016,ImageRatingTask_S2,2021.1.4,MacIntel,58.82352941,,,,,,,,,
,,,,,,,,,,6,1.241,0,1,1,1,1,second,1,22,female,mixed,at home,2021-07-01_13h46.02.016,ImageRatingTask_S2,2021.1.4,MacIntel,58.82352941,,,,,,,,,
,,,,,,,,,,,,0,2,2,2,1,third,1,22,female,mixed,at home,2021-07-01_13h46.02.016,ImageRatingTask_S2,2021.1.4,MacIntel,58.82352941,,,,,,,,,
,,,,,,,,,,,,0,3,3,3,1,fourth,1,22,female,mixed,at home,2021-07-01_13h46.02.016,ImageRatingTask_S2,2021.1.4,MacIntel,58.82352941,,,,,,,,,
,,,,,,,,,,,,0,4,4,4,1,fifth,1,22,female,mixed,at home,2021-07-01_13h46.02.016,ImageRatingTask_S2,2021.1.4,MacIntel,58.82352941,,,,,,,,,
,,,,,,,,,,,,0,5,5,5,1,sixth,1,22,female,mixed,at home,2021-07-01_13h46.02.016,ImageRatingTask_S2,2021.1.4,MacIntel,58.82352941,,,,,,,,,
,,,,,,,,,,,,0,6,6,6,1,seventh,1,22,female,mixed,at home,2021-07-01_13h46.02.016,ImageRatingTask_S2,2021.1.4,MacIntel,58.82352941,,,,,,,,,
,,,,,,,,,,,,0,7,7,7,1,last,1,22,female,mixed,at home,2021-07-01_13h46.02.016,ImageRatingTask_S2,2021.1.4,MacIntel,58.82352941,,,,,,,,,
,,,,,,,,,,,,,,,,,,1,22,female,mixed,at home,2021-07-01_13h46.02.016,ImageRatingTask_S2,2021.1.4,MacIntel,58.82352941,0,62,62,104,1,DreamStudyImages_rs1000x750g/Children/Faces_024_h.jpg,,,
,,5,3.83,1,4.85,6,1.79,1,2.13,6,1.714,0,0,0,0,1,main,1,22,female,mixed,at home,2021-07-01_13h46.02.016,ImageRatingTask_S2,2021.1.4,MacIntel,58.82352941,,,,,,,,,
,,,,,,,,,,,,0,1,1,1,1,second,1,22,female,mixed,at home,2021-07-01_13h46.02.016,ImageRatingTask_S2,2021.1.4,MacIntel,58.82352941,,,,,,,,,
,,,,,,,,,,,,0,2,2,2,1,third,1,22,female,mixed,at home,2021-07-01_13h46.02.016,ImageRatingTask_S2,2021.1.4,MacIntel,58.82352941,,,,,,,,,
,,,,,,,,,,,,0,3,3,3,1,fourth,1,22,female,mixed,at home,2021-07-01_13h46.02.016,ImageRatingTask_S2,2021.1.4,MacIntel,58.82352941,,,,,,,,,
,,,,,,,,,,,,0,4,4,4,1,fifth,1,22,female,mixed,at home,2021-07-01_13h46.02.016,ImageRatingTask_S2,2021.1.4,MacIntel,58.82352941,,,,,,,,,
,,,,,,,,,,,,0,5,5,5,1,sixth,1,22,female,mixed,at home,2021-07-01_13h46.02.016,ImageRatingTask_S2,2021.1.4,MacIntel,58.82352941,,,,,,,,,
,,,,,,,,,,,,0,6,6,6,1,seventh,1,22,female,mixed,at home,2021-07-01_13h46.02.016,ImageRatingTask_S2,2021.1.4,MacIntel,58.82352941,,,,,,,,,
,,,,,,,,,,,,0,7,7,7,1,last,1,22,female,mixed,at home,2021-07-01_13h46.02.016,ImageRatingTask_S2,2021.1.4,MacIntel,58.82352941,,,,,,,,,
,,,,,,,,,,,,,,,,,,1,22,female,mixed,at home,2021-07-01_13h46.02.016,ImageRatingTask_S2,2021.1.4,MacIntel,58.82352941,0,63,63,57,1,DreamStudyImages_rs1000x750g/Houses/whitehouse.jpg,,,
,,6,3.436,1,3.432,8,3.19,1,1.591,3,1.459,0,0,0,0,1,main,1,22,female,mixed,at home,2021-07-01_13h46.02.016,ImageRatingTask_S2,2021.1.4,MacIntel,58.82352941,,,,,,,,,
,,,,,,,,,,,,0,1,1,1,1,second,1,22,female,mixed,at home,2021-07-01_13h46.02.016,ImageRatingTask_S2,2021.1.4,MacIntel,58.82352941,,,,,,,,,
,,,,,,,,,,,,0,2,2,2,1,third,1,22,female,mixed,at home,2021-07-01_13h46.02.016,ImageRatingTask_S2,2021.1.4,MacIntel,58.82352941,,,,,,,,,
,,,,,,,,,,,,0,3,3,3,1,fourth,1,22,female,mixed,at home,2021-07-01_13h46.02.016,ImageRatingTask_S2,2021.1.4,MacIntel,58.82352941,,,,,,,,,
,,,,,,,,,,,,0,4,4,4,1,fifth,1,22,female,mixed,at home,2021-07-01_13h46.02.016,ImageRatingTask_S2,2021.1.4,MacIntel,58.82352941,,,,,,,,,
,,,,,,,,,,,,0,5,5,5,1,sixth,1,22,female,mixed,at home,2021-07-01_13h46.02.016,ImageRatingTask_S2,2021.1.4,MacIntel,58.82352941,,,,,,,,,
,,,,,,,,,,,,0,6,6,6,1,seventh,1,22,female,mixed,at home,2021-07-01_13h46.02.016,ImageRatingTask_S2,2021.1.4,MacIntel,58.82352941,,,,,,,,,
,,,,,,,,,,,,0,7,7,7,1,last,1,22,female,mixed,at home,2021-07-01_13h46.02.016,ImageRatingTask_S2,2021.1.4,MacIntel,58.82352941,,,,,,,,,
,,,,,,,,,,,,,,,,,,1,22,female,mixed,at home,2021-07-01_13h46.02.016,ImageRatingTask_S2,2021.1.4,MacIntel,58.82352941,0,64,64,88,1,DreamStudyImages_rs1000x750g/Mammals/Animals_214_h.jpg,,,
,,3,3.45,3,0.951,8,2.151,1,1.212,6,1.875,0,0,0,0,1,main,1,22,female,mixed,at home,2021-07-01_13h46.02.016,ImageRatingTask_S2,2021.1.4,MacIntel,58.82352941,,,,,,,,,
,,,,,,,,,,,,0,1,1,1,1,second,1,22,female,mixed,at home,2021-07-01_13h46.02.016,ImageRatingTask_S2,2021.1.4,MacIntel,58.82352941,,,,,,,,,
,,,,,,,,,,,,0,2,2,2,1,third,1,22,female,mixed,at home,2021-07-01_13h46.02.016,ImageRatingTask_S2,2021.1.4,MacIntel,58.82352941,,,,,,,,,
,,,,,,,,,,,,0,3,3,3,1,fourth,1,22,female,mixed,at home,2021-07-01_13h46.02.016,ImageRatingTask_S2,2021.1.4,MacIntel,58.82352941,,,,,,,,,
,,,,,,,,,,,,0,4,4,4,1,fifth,1,22,female,mixed,at home,2021-07-01_13h46.02.016,ImageRatingTask_S2,2021.1.4,MacIntel,58.82352941,,,,,,,,,
,,,,,,,,,,,,0,5,5,5,1,sixth,1,22,female,mixed,at home,2021-07-01_13h46.02.016,ImageRatingTask_S2,2021.1.4,MacIntel,58.82352941,,,,,,,,,
,,,,,,,,,,,,0,6,6,6,1,seventh,1,22,female,mixed,at home,2021-07-01_13h46.02.016,ImageRatingTask_S2,2021.1.4,MacIntel,58.82352941,,,,,,,,,
,,,,,,,,,,,,0,7,7,7,1,last,1,22,female,mixed,at home,2021-07-01_13h46.02.016,ImageRatingTask_S2,2021.1.4,MacIntel,58.82352941,,,,,,,,,
,,,,,,,,,,,,,,,,,,1,22,female,mixed,at home,2021-07-01_13h46.02.016,ImageRatingTask_S2,2021.1.4,MacIntel,58.82352941,0,65,65,126,1,DreamStudyImages_rs1000x750g/Houses/NDPS92_destroyedhouse.jpg,,,
,,7,3.052,2,1.364,7,1.788,1,1.06,3,1.403,0,0,0,0,1,main,1,22,female,mixed,at home,2021-07-01_13h46.02.016,ImageRatingTask_S2,2021.1.4,MacIntel,58.82352941,,,,,,,,,
,,,,,,,,,,,,0,1,1,1,1,second,1,22,female,mixed,at home,2021-07-01_13h46.02.016,ImageRatingTask_S2,2021.1.4,MacIntel,58.82352941,,,,,,,,,
,,,,,,,,,,,,0,2,2,2,1,third,1,22,female,mixed,at home,2021-07-01_13h46.02.016,ImageRatingTask_S2,2021.1.4,MacIntel,58.82352941,,,,,,,,,
,,,,,,,,,,,,0,3,3,3,1,fourth,1,22,female,mixed,at home,2021-07-01_13h46.02.016,ImageRatingTask_S2,2021.1.4,MacIntel,58.82352941,,,,,,,,,
,,,,,,,,,,,,0,4,4,4,1,fifth,1,22,female,mixed,at home,2021-07-01_13h46.02.016,ImageRatingTask_S2,2021.1.4,MacIntel,58.82352941,,,,,,,,,
,,,,,,,,,,,,0,5,5,5,1,sixth,1,22,female,mixed,at home,2021-07-01_13h46.02.016,ImageRatingTask_S2,2021.1.4,MacIntel,58.82352941,,,,,,,,,
,,,,,,,,,,,,0,6,6,6,1,seventh,1,22,female,mixed,at home,2021-07-01_13h46.02.016,ImageRatingTask_S2,2021.1.4,MacIntel,58.82352941,,,,,,,,,
,,,,,,,,,,,,0,7,7,7,1,last,1,22,female,mixed,at home,2021-07-01_13h46.02.016,ImageRatingTask_S2,2021.1.4,MacIntel,58.82352941,,,,,,,,,
,,,,,,,,,,,,,,,,,,1,22,female,mixed,at home,2021-07-01_13h46.02.016,ImageRatingTask_S2,2021.1.4,MacIntel,58.82352941,0,66,66,53,1,DreamStudyImages_rs1000x750g/Mammals/Goat 1.jpg,,,
,,5,11.704,3,2.315,8,3.229,1,1.11,8,1.053,0,0,0,0,1,main,1,22,female,mixed,at home,2021-07-01_13h46.02.016,ImageRatingTask_S2,2021.1.4,MacIntel,58.82352941,,,,,,,,,
,,,,,,,,,,,,0,1,1,1,1,second,1,22,female,mixed,at home,2021-07-01_13h46.02.016,ImageRatingTask_S2,2021.1.4,MacIntel,58.82352941,,,,,,,,,
,,,,,,,,,,,,0,2,2,2,1,third,1,22,female,mixed,at home,2021-07-01_13h46.02.016,ImageRatingTask_S2,2021.1.4,MacIntel,58.82352941,,,,,,,,,
,,,,,,,,,,,,0,3,3,3,1,fourth,1,22,female,mixed,at home,2021-07-01_13h46.02.016,ImageRatingTask_S2,2021.1.4,MacIntel,58.82352941,,,,,,,,,
,,,,,,,,,,,,0,4,4,4,1,fifth,1,22,female,mixed,at home,2021-07-01_13h46.02.016,ImageRatingTask_S2,2021.1.4,MacIntel,58.82352941,,,,,,,,,
,,,,,,,,,,,,0,5,5,5,1,sixth,1,22,female,mixed,at home,2021-07-01_13h46.02.016,ImageRatingTask_S2,2021.1.4,MacIntel,58.82352941,,,,,,,,,
,,,,,,,,,,,,0,6,6,6,1,seventh,1,22,female,mixed,at home,2021-07-01_13h46.02.016,ImageRatingTask_S2,2021.1.4,MacIntel,58.82352941,,,,,,,,,
,,,,,,,,,,,,0,7,7,7,1,last,1,22,female,mixed,at home,2021-07-01_13h46.02.016,ImageRatingTask_S2,2021.1.4,MacIntel,58.82352941,,,,,,,,,
,,,,,,,,,,,,,,,,,,1,22,female,mixed,at home,2021-07-01_13h46.02.016,ImageRatingTask_S2,2021.1.4,MacIntel,58.82352941,0,67,67,148,1,DreamStudyImages_rs1000x750g/Water/97.jpg,,,
,,3,4.528,4,1.612,5,2.147,1,3.237,7,0.948,0,0,0,0,1,main,1,22,female,mixed,at home,2021-07-01_13h46.02.016,ImageRatingTask_S2,2021.1.4,MacIntel,58.82352941,,,,,,,,,
,,,,,,,,,,,,0,1,1,1,1,second,1,22,female,mixed,at home,2021-07-01_13h46.02.016,ImageRatingTask_S2,2021.1.4,MacIntel,58.82352941,,,,,,,,,
,,,,,,,,,,,,0,2,2,2,1,third,1,22,female,mixed,at home,2021-07-01_13h46.02.016,ImageRatingTask_S2,2021.1.4,MacIntel,58.82352941,,,,,,,,,
,,,,,,,,,,,,0,3,3,3,1,fourth,1,22,female,mixed,at home,2021-07-01_13h46.02.016,ImageRatingTask_S2,2021.1.4,MacIntel,58.82352941,,,,,,,,,
,,,,,,,,,,,,0,4,4,4,1,fifth,1,22,female,mixed,at home,2021-07-01_13h46.02.016,ImageRatingTask_S2,2021.1.4,MacIntel,58.82352941,,,,,,,,,
,,,,,,,,,,,,0,5,5,5,1,sixth,1,22,female,mixed,at home,2021-07-01_13h46.02.016,ImageRatingTask_S2,2021.1.4,MacIntel,58.82352941,,,,,,,,,
,,,,,,,,,,,,0,6,6,6,1,seventh,1,22,female,mixed,at home,2021-07-01_13h46.02.016,ImageRatingTask_S2,2021.1.4,MacIntel,58.82352941,,,,,,,,,
,,,,,,,,,,,,0,7,7,7,1,last,1,22,female,mixed,at home,2021-07-01_13h46.02.016,ImageRatingTask_S2,2021.1.4,MacIntel,58.82352941,,,,,,,,,
,,,,,,,,,,,,,,,,,,1,22,female,mixed,at home,2021-07-01_13h46.02.016,ImageRatingTask_S2,2021.1.4,MacIntel,58.82352941,0,68,68,29,1,DreamStudyImages_rs1000x750g/Vehicles/IAPS6910_aircraft.jpg,,,
,,2,6.191,4,1.501,9,3.708,1,1.72,2,2.062,0,0,0,0,1,main,1,22,female,mixed,at home,2021-07-01_13h46.02.016,ImageRatingTask_S2,2021.1.4,MacIntel,58.82352941,,,,,,,,,
,,,,,,,,,,,,0,1,1,1,1,second,1,22,female,mixed,at home,2021-07-01_13h46.02.016,ImageRatingTask_S2,2021.1.4,MacIntel,58.82352941,,,,,,,,,
,,,,,,,,,,,,0,2,2,2,1,third,1,22,female,mixed,at home,2021-07-01_13h46.02.016,ImageRatingTask_S2,2021.1.4,MacIntel,58.82352941,,,,,,,,,
,,,,,,,,,,,,0,3,3,3,1,fourth,1,22,female,mixed,at home,2021-07-01_13h46.02.016,ImageRatingTask_S2,2021.1.4,MacIntel,58.82352941,,,,,,,,,
,,,,,,,,,,,,0,4,4,4,1,fifth,1,22,female,mixed,at home,2021-07-01_13h46.02.016,ImageRatingTask_S2,2021.1.4,MacIntel,58.82352941,,,,,,,,,
,,,,,,,,,,,,0,5,5,5,1,sixth,1,22,female,mixed,at home,2021-07-01_13h46.02.016,ImageRatingTask_S2,2021.1.4,MacIntel,58.82352941,,,,,,,,,
,,,,,,,,,,,,0,6,6,6,1,seventh,1,22,female,mixed,at home,2021-07-01_13h46.02.016,ImageRatingTask_S2,2021.1.4,MacIntel,58.82352941,,,,,,,,,
,,,,,,,,,,,,0,7,7,7,1,last,1,22,female,mixed,at home,2021-07-01_13h46.02.016,ImageRatingTask_S2,2021.1.4,MacIntel,58.82352941,,,,,,,,,
,,,,,,,,,,,,,,,,,,1,22,female,mixed,at home,2021-07-01_13h46.02.016,ImageRatingTask_S2,2021.1.4,MacIntel,58.82352941,0,69,69,121,1,DreamStudyImages_rs1000x750g/Children/IAPS9041_child9.jpg,,,
,,7,3.759,2,1.642,7,4.314,1,1.308,3,3.864,0,0,0,0,1,main,1,22,female,mixed,at home,2021-07-01_13h46.02.016,ImageRatingTask_S2,2021.1.4,MacIntel,58.82352941,,,,,,,,,
,,,,,,,,,,,,0,1,1,1,1,second,1,22,female,mixed,at home,2021-07-01_13h46.02.016,ImageRatingTask_S2,2021.1.4,MacIntel,58.82352941,,,,,,,,,
,,,,,,,,,,,,0,2,2,2,1,third,1,22,female,mixed,at home,2021-07-01_13h46.02.016,ImageRatingTask_S2,2021.1.4,MacIntel,58.82352941,,,,,,,,,
,,,,,,,,,,,,0,3,3,3,1,fourth,1,22,female,mixed,at home,2021-07-01_13h46.02.016,ImageRatingTask_S2,2021.1.4,MacIntel,58.82352941,,,,,,,,,
,,,,,,,,,,,,0,4,4,4,1,fifth,1,22,female,mixed,at home,2021-07-01_13h46.02.016,ImageRatingTask_S2,2021.1.4,MacIntel,58.82352941,,,,,,,,,
,,,,,,,,,,,,0,5,5,5,1,sixth,1,22,female,mixed,at home,2021-07-01_13h46.02.016,ImageRatingTask_S2,2021.1.4,MacIntel,58.82352941,,,,,,,,,
,,,,,,,,,,,,0,6,6,6,1,seventh,1,22,female,mixed,at home,2021-07-01_13h46.02.016,ImageRatingTask_S2,2021.1.4,MacIntel,58.82352941,,,,,,,,,
,,,,,,,,,,,,0,7,7,7,1,last,1,22,female,mixed,at home,2021-07-01_13h46.02.016,ImageRatingTask_S2,2021.1.4,MacIntel,58.82352941,,,,,,,,,
,,,,,,,,,,,,,,,,,,1,22,female,mixed,at home,2021-07-01_13h46.02.016,ImageRatingTask_S2,2021.1.4,MacIntel,58.82352941,0,70,70,108,1,DreamStudyImages_rs1000x750g/Mammals/Lamb 1.jpg,,,
,,4,2.833,3,2.978,8,1.987,1,1.056,3,0.969,0,0,0,0,1,main,1,22,female,mixed,at home,2021-07-01_13h46.02.016,ImageRatingTask_S2,2021.1.4,MacIntel,58.82352941,,,,,,,,,
,,,,,,,,,,,,0,1,1,1,1,second,1,22,female,mixed,at home,2021-07-01_13h46.02.016,ImageRatingTask_S2,2021.1.4,MacIntel,58.82352941,,,,,,,,,
,,,,,,,,,,,,0,2,2,2,1,third,1,22,female,mixed,at home,2021-07-01_13h46.02.016,ImageRatingTask_S2,2021.1.4,MacIntel,58.82352941,,,,,,,,,
,,,,,,,,,,,,0,3,3,3,1,fourth,1,22,female,mixed,at home,2021-07-01_13h46.02.016,ImageRatingTask_S2,2021.1.4,MacIntel,58.82352941,,,,,,,,,
,,,,,,,,,,,,0,4,4,4,1,fifth,1,22,female,mixed,at home,2021-07-01_13h46.02.016,ImageRatingTask_S2,2021.1.4,MacIntel,58.82352941,,,,,,,,,
,,,,,,,,,,,,0,5,5,5,1,sixth,1,22,female,mixed,at home,2021-07-01_13h46.02.016,ImageRatingTask_S2,2021.1.4,MacIntel,58.82352941,,,,,,,,,
,,,,,,,,,,,,0,6,6,6,1,seventh,1,22,female,mixed,at home,2021-07-01_13h46.02.016,ImageRatingTask_S2,2021.1.4,MacIntel,58.82352941,,,,,,,,,
,,,,,,,,,,,,0,7,7,7,1,last,1,22,female,mixed,at home,2021-07-01_13h46.02.016,ImageRatingTask_S2,2021.1.4,MacIntel,58.82352941,,,,,,,,,
,,,,,,,,,,,,,,,,,,1,22,female,mixed,at home,2021-07-01_13h46.02.016,ImageRatingTask_S2,2021.1.4,MacIntel,58.82352941,0,71,71,101,1,DreamStudyImages_rs1000x750g/Mammals/Animals_050_h.jpg,,,
,,5,8.872,1,0.756,8,4.316,1,2.203,2,3.369,0,0,0,0,1,main,1,22,female,mixed,at home,2021-07-01_13h46.02.016,ImageRatingTask_S2,2021.1.4,MacIntel,58.82352941,,,,,,,,,
,,,,,,,,,,,,0,1,1,1,1,second,1,22,female,mixed,at home,2021-07-01_13h46.02.016,ImageRatingTask_S2,2021.1.4,MacIntel,58.82352941,,,,,,,,,
,,,,,,,,,,,,0,2,2,2,1,third,1,22,female,mixed,at home,2021-07-01_13h46.02.016,ImageRatingTask_S2,2021.1.4,MacIntel,58.82352941,,,,,,,,,
,,,,,,,,,,,,0,3,3,3,1,fourth,1,22,female,mixed,at home,2021-07-01_13h46.02.016,ImageRatingTask_S2,2021.1.4,MacIntel,58.82352941,,,,,,,,,
,,,,,,,,,,,,0,4,4,4,1,fifth,1,22,female,mixed,at home,2021-07-01_13h46.02.016,ImageRatingTask_S2,2021.1.4,MacIntel,58.82352941,,,,,,,,,
,,,,,,,,,,,,0,5,5,5,1,sixth,1,22,female,mixed,at home,2021-07-01_13h46.02.016,ImageRatingTask_S2,2021.1.4,MacIntel,58.82352941,,,,,,,,,
,,,,,,,,,,,,0,6,6,6,1,seventh,1,22,female,mixed,at home,2021-07-01_13h46.02.016,ImageRatingTask_S2,2021.1.4,MacIntel,58.82352941,,,,,,,,,
,,,,,,,,,,,,0,7,7,7,1,last,1,22,female,mixed,at home,2021-07-01_13h46.02.016,ImageRatingTask_S2,2021.1.4,MacIntel,58.82352941,,,,,,,,,
,,,,,,,,,,,,,,,,,,1,22,female,mixed,at home,2021-07-01_13h46.02.016,ImageRatingTask_S2,2021.1.4,MacIntel,58.82352941,0,72,72,37,1,DreamStudyImages_rs1000x750g/Children/Faces_062_v.jpg,,,
,,2,8.93,3,2.704,8,1.761,1,4.917,3,2.041,0,0,0,0,1,main,1,22,female,mixed,at home,2021-07-01_13h46.02.016,ImageRatingTask_S2,2021.1.4,MacIntel,58.82352941,,,,,,,,,
,,,,,,,,,,,,0,1,1,1,1,second,1,22,female,mixed,at home,2021-07-01_13h46.02.016,ImageRatingTask_S2,2021.1.4,MacIntel,58.82352941,,,,,,,,,
,,,,,,,,,,,,0,2,2,2,1,third,1,22,female,mixed,at home,2021-07-01_13h46.02.016,ImageRatingTask_S2,2021.1.4,MacIntel,58.82352941,,,,,,,,,
,,,,,,,,,,,,0,3,3,3,1,fourth,1,22,female,mixed,at home,2021-07-01_13h46.02.016,ImageRatingTask_S2,2021.1.4,MacIntel,58.82352941,,,,,,,,,
,,,,,,,,,,,,0,4,4,4,1,fifth,1,22,female,mixed,at home,2021-07-01_13h46.02.016,ImageRatingTask_S2,2021.1.4,MacIntel,58.82352941,,,,,,,,,
,,,,,,,,,,,,0,5,5,5,1,sixth,1,22,female,mixed,at home,2021-07-01_13h46.02.016,ImageRatingTask_S2,2021.1.4,MacIntel,58.82352941,,,,,,,,,
,,,,,,,,,,,,0,6,6,6,1,seventh,1,22,female,mixed,at home,2021-07-01_13h46.02.016,ImageRatingTask_S2,2021.1.4,MacIntel,58.82352941,,,,,,,,,
,,,,,,,,,,,,0,7,7,7,1,last,1,22,female,mixed,at home,2021-07-01_13h46.02.016,ImageRatingTask_S2,2021.1.4,MacIntel,58.82352941,,,,,,,,,
,,,,,,,,,,,,,,,,,,1,22,female,mixed,at home,2021-07-01_13h46.02.016,ImageRatingTask_S2,2021.1.4,MacIntel,58.82352941,0,73,73,5,1,DreamStudyImages_rs1000x750g/Mammals/Animals_025_h.jpg,,,
,,6,4.05,2,1.307,7,2.434,1,1.952,5,1.303,0,0,0,0,1,main,1,22,female,mixed,at home,2021-07-01_13h46.02.016,ImageRatingTask_S2,2021.1.4,MacIntel,58.82352941,,,,,,,,,
,,,,,,,,,,,,0,1,1,1,1,second,1,22,female,mixed,at home,2021-07-01_13h46.02.016,ImageRatingTask_S2,2021.1.4,MacIntel,58.82352941,,,,,,,,,
,,,,,,,,,,,,0,2,2,2,1,third,1,22,female,mixed,at home,2021-07-01_13h46.02.016,ImageRatingTask_S2,2021.1.4,MacIntel,58.82352941,,,,,,,,,
,,,,,,,,,,,,0,3,3,3,1,fourth,1,22,female,mixed,at home,2021-07-01_13h46.02.016,ImageRatingTask_S2,2021.1.4,MacIntel,58.82352941,,,,,,,,,
,,,,,,,,,,,,0,4,4,4,1,fifth,1,22,female,mixed,at home,2021-07-01_13h46.02.016,ImageRatingTask_S2,2021.1.4,MacIntel,58.82352941,,,,,,,,,
,,,,,,,,,,,,0,5,5,5,1,sixth,1,22,female,mixed,at home,2021-07-01_13h46.02.016,ImageRatingTask_S2,2021.1.4,MacIntel,58.82352941,,,,,,,,,
,,,,,,,,,,,,0,6,6,6,1,seventh,1,22,female,mixed,at home,2021-07-01_13h46.02.016,ImageRatingTask_S2,2021.1.4,MacIntel,58.82352941,,,,,,,,,
,,,,,,,,,,,,0,7,7,7,1,last,1,22,female,mixed,at home,2021-07-01_13h46.02.016,ImageRatingTask_S2,2021.1.4,MacIntel,58.82352941,,,,,,,,,
,,,,,,,,,,,,,,,,,,1,22,female,mixed,at home,2021-07-01_13h46.02.016,ImageRatingTask_S2,2021.1.4,MacIntel,58.82352941,0,74,74,98,1,DreamStudyImages_rs1000x750g/Food/Objects_101_h.jpg,,,
,,5,10.619,1,0.916,6,2.528,1,1.539,8,1.252,0,0,0,0,1,main,1,22,female,mixed,at home,2021-07-01_13h46.02.016,ImageRatingTask_S2,2021.1.4,MacIntel,58.82352941,,,,,,,,,
,,,,,,,,,,,,0,1,1,1,1,second,1,22,female,mixed,at home,2021-07-01_13h46.02.016,ImageRatingTask_S2,2021.1.4,MacIntel,58.82352941,,,,,,,,,
,,,,,,,,,,,,0,2,2,2,1,third,1,22,female,mixed,at home,2021-07-01_13h46.02.016,ImageRatingTask_S2,2021.1.4,MacIntel,58.82352941,,,,,,,,,
,,,,,,,,,,,,0,3,3,3,1,fourth,1,22,female,mixed,at home,2021-07-01_13h46.02.016,ImageRatingTask_S2,2021.1.4,MacIntel,58.82352941,,,,,,,,,
,,,,,,,,,,,,0,4,4,4,1,fifth,1,22,female,mixed,at home,2021-07-01_13h46.02.016,ImageRatingTask_S2,2021.1.4,MacIntel,58.82352941,,,,,,,,,
,,,,,,,,,,,,0,5,5,5,1,sixth,1,22,female,mixed,at home,2021-07-01_13h46.02.016,ImageRatingTask_S2,2021.1.4,MacIntel,58.82352941,,,,,,,,,
,,,,,,,,,,,,0,6,6,6,1,seventh,1,22,female,mixed,at home,2021-07-01_13h46.02.016,ImageRatingTask_S2,2021.1.4,MacIntel,58.82352941,,,,,,,,,
,,,,,,,,,,,,0,7,7,7,1,last,1,22,female,mixed,at home,2021-07-01_13h46.02.016,ImageRatingTask_S2,2021.1.4,MacIntel,58.82352941,,,,,,,,,
,,,,,,,,,,,,,,,,,,1,22,female,mixed,at home,2021-07-01_13h46.02.016,ImageRatingTask_S2,2021.1.4,MacIntel,58.82352941,0,75,75,112,1,DreamStudyImages_rs1000x750g/Water/Lake 15.jpg,,,
,,3,3.48,3,2.85,9,2.557,1,1.316,3,1.394,0,0,0,0,1,main,1,22,female,mixed,at home,2021-07-01_13h46.02.016,ImageRatingTask_S2,2021.1.4,MacIntel,58.82352941,,,,,,,,,
