slider_pre.response,slider_pre.rt,key_val.keys,key_val.rt,key_aro.keys,key_aro.rt,key_qual.keys,key_qual.rt,key_ncat.keys,key_ncat.rt,key_cats.keys,key_cats.rt,ncat_order.thisRepN,ncat_order.thisTrialN,ncat_order.thisN,ncat_order.thisIndex,ncat_order.ran,cond_cat,participant,age,gender,handedness (L/R),site (IMT/Donders),date,expName,psychopyVersion,OS,frameRate,img_trials.thisRepN,img_trials.thisTrialN,img_trials.thisN,img_trials.thisIndex,img_trials.ran,filename,slider_post.response,slider_post.rt,textbox_openfb.text
6,5.9316,6,8.7404,3,1.7223,7,2.0619,1,2.1484,7,0.8626,0,0,0,0,1,main,3,21,female,right,donders,2021-07-08_16h04.26.034,ImageRatingTask_S2,2021.1.4,Win32,33.39121143,,,,,,,,,
,,,,,,,,,,,,0,1,1,1,1,second,3,21,female,right,donders,2021-07-08_16h04.26.034,ImageRatingTask_S2,2021.1.4,Win32,33.39121143,,,,,,,,,
,,,,,,,,,,,,0,2,2,2,1,third,3,21,female,right,donders,2021-07-08_16h04.26.034,ImageRatingTask_S2,2021.1.4,Win32,33.39121143,,,,,,,,,
,,,,,,,,,,,,0,3,3,3,1,fourth,3,21,female,right,donders,2021-07-08_16h04.26.034,ImageRatingTask_S2,2021.1.4,Win32,33.39121143,,,,,,,,,
,,,,,,,,,,,,0,4,4,4,1,fifth,3,21,female,right,donders,2021-07-08_16h04.26.034,ImageRatingTask_S2,2021.1.4,Win32,33.39121143,,,,,,,,,
,,,,,,,,,,,,0,5,5,5,1,sixth,3,21,female,right,donders,2021-07-08_16h04.26.034,ImageRatingTask_S2,2021.1.4,Win32,33.39121143,,,,,,,,,
,,,,,,,,,,,,0,6,6,6,1,seventh,3,21,female,right,donders,2021-07-08_16h04.26.034,ImageRatingTask_S2,2021.1.4,Win32,33.39121143,,,,,,,,,
,,,,,,,,,,,,0,7,7,7,1,last,3,21,female,right,donders,2021-07-08_16h04.26.034,ImageRatingTask_S2,2021.1.4,Win32,33.39121143,,,,,,,,,
,,,,,,,,,,,,,,,,,,3,21,female,right,donders,2021-07-08_16h04.26.034,ImageRatingTask_S2,2021.1.4,Win32,33.39121143,0,0,0,159,1,DreamStudyImages_rs1000x750g/Vehicles/rheingoldtrain_CROPPED.jpg,,,
,,4,2.3908,2,1.0463,6,2.0435,1,1.8064,3,1.3523,0,0,0,0,1,main,3,21,female,right,donders,2021-07-08_16h04.26.034,ImageRatingTask_S2,2021.1.4,Win32,33.39121143,,,,,,,,,
,,,,,,,,,,,,0,1,1,1,1,second,3,21,female,right,donders,2021-07-08_16h04.26.034,ImageRatingTask_S2,2021.1.4,Win32,33.39121143,,,,,,,,,
,,,,,,,,,,,,0,2,2,2,1,third,3,21,female,right,donders,2021-07-08_16h04.26.034,ImageRatingTask_S2,2021.1.4,Win32,33.39121143,,,,,,,,,
,,,,,,,,,,,,0,3,3,3,1,fourth,3,21,female,right,donders,2021-07-08_16h04.26.034,ImageRatingTask_S2,2021.1.4,Win32,33.39121143,,,,,,,,,
,,,,,,,,,,,,0,4,4,4,1,fifth,3,21,female,right,donders,2021-07-08_16h04.26.034,ImageRatingTask_S2,2021.1.4,Win32,33.39121143,,,,,,,,,
,,,,,,,,,,,,0,5,5,5,1,sixth,3,21,female,right,donders,2021-07-08_16h04.26.034,ImageRatingTask_S2,2021.1.4,Win32,33.39121143,,,,,,,,,
,,,,,,,,,,,,0,6,6,6,1,seventh,3,21,female,right,donders,2021-07-08_16h04.26.034,ImageRatingTask_S2,2021.1.4,Win32,33.39121143,,,,,,,,,
,,,,,,,,,,,,0,7,7,7,1,last,3,21,female,right,donders,2021-07-08_16h04.26.034,ImageRatingTask_S2,2021.1.4,Win32,33.39121143,,,,,,,,,
,,,,,,,,,,,,,,,,,,3,21,female,right,donders,2021-07-08_16h04.26.034,ImageRatingTask_S2,2021.1.4,Win32,33.39121143,0,1,1,19,1,DreamStudyImages_rs1000x750g/Mammals/Animals_005_h.jpg,,,
,,6,4.5755,2,1.0451,8,2.2277,1,0.782,5,1.2938,0,0,0,0,1,main,3,21,female,right,donders,2021-07-08_16h04.26.034,ImageRatingTask_S2,2021.1.4,Win32,33.39121143,,,,,,,,,
,,,,,,,,,,,,0,1,1,1,1,second,3,21,female,right,donders,2021-07-08_16h04.26.034,ImageRatingTask_S2,2021.1.4,Win32,33.39121143,,,,,,,,,
,,,,,,,,,,,,0,2,2,2,1,third,3,21,female,right,donders,2021-07-08_16h04.26.034,ImageRatingTask_S2,2021.1.4,Win32,33.39121143,,,,,,,,,
,,,,,,,,,,,,0,3,3,3,1,fourth,3,21,female,right,donders,2021-07-08_16h04.26.034,ImageRatingTask_S2,2021.1.4,Win32,33.39121143,,,,,,,,,
,,,,,,,,,,,,0,4,4,4,1,fifth,3,21,female,right,donders,2021-07-08_16h04.26.034,ImageRatingTask_S2,2021.1.4,Win32,33.39121143,,,,,,,,,
,,,,,,,,,,,,0,5,5,5,1,sixth,3,21,female,right,donders,2021-07-08_16h04.26.034,ImageRatingTask_S2,2021.1.4,Win32,33.39121143,,,,,,,,,
,,,,,,,,,,,,0,6,6,6,1,seventh,3,21,female,right,donders,2021-07-08_16h04.26.034,ImageRatingTask_S2,2021.1.4,Win32,33.39121143,,,,,,,,,
,,,,,,,,,,,,0,7,7,7,1,last,3,21,female,right,donders,2021-07-08_16h04.26.034,ImageRatingTask_S2,2021.1.4,Win32,33.39121143,,,,,,,,,
,,,,,,,,,,,,,,,,,,3,21,female,right,donders,2021-07-08_16h04.26.034,ImageRatingTask_S2,2021.1.4,Win32,33.39121143,0,2,2,20,1,DreamStudyImages_rs1000x750g/Food/Objects_052_h.jpg,,,
,,4,3.0564,3,1.369,9,2.4918,1,0.6011,8,3.0416,0,0,0,0,1,main,3,21,female,right,donders,2021-07-08_16h04.26.034,ImageRatingTask_S2,2021.1.4,Win32,33.39121143,,,,,,,,,
,,,,,,,,,,,,0,1,1,1,1,second,3,21,female,right,donders,2021-07-08_16h04.26.034,ImageRatingTask_S2,2021.1.4,Win32,33.39121143,,,,,,,,,
,,,,,,,,,,,,0,2,2,2,1,third,3,21,female,right,donders,2021-07-08_16h04.26.034,ImageRatingTask_S2,2021.1.4,Win32,33.39121143,,,,,,,,,
,,,,,,,,,,,,0,3,3,3,1,fourth,3,21,female,right,donders,2021-07-08_16h04.26.034,ImageRatingTask_S2,2021.1.4,Win32,33.39121143,,,,,,,,,
,,,,,,,,,,,,0,4,4,4,1,fifth,3,21,female,right,donders,2021-07-08_16h04.26.034,ImageRatingTask_S2,2021.1.4,Win32,33.39121143,,,,,,,,,
,,,,,,,,,,,,0,5,5,5,1,sixth,3,21,female,right,donders,2021-07-08_16h04.26.034,ImageRatingTask_S2,2021.1.4,Win32,33.39121143,,,,,,,,,
,,,,,,,,,,,,0,6,6,6,1,seventh,3,21,female,right,donders,2021-07-08_16h04.26.034,ImageRatingTask_S2,2021.1.4,Win32,33.39121143,,,,,,,,,
,,,,,,,,,,,,0,7,7,7,1,last,3,21,female,right,donders,2021-07-08_16h04.26.034,ImageRatingTask_S2,2021.1.4,Win32,33.39121143,,,,,,,,,
,,,,,,,,,,,,,,,,,,3,21,female,right,donders,2021-07-08_16h04.26.034,ImageRatingTask_S2,2021.1.4,Win32,33.39121143,0,3,3,28,1,DreamStudyImages_rs1000x750g/Water/16_CHECK.jpg,,,
,,4,2.481,3,2.8639,7,1.5866,1,1.0086,3,1.1693,0,0,0,0,1,main,3,21,female,right,donders,2021-07-08_16h04.26.034,ImageRatingTask_S2,2021.1.4,Win32,33.39121143,,,,,,,,,
,,,,,,,,,,,,0,1,1,1,1,second,3,21,female,right,donders,2021-07-08_16h04.26.034,ImageRatingTask_S2,2021.1.4,Win32,33.39121143,,,,,,,,,
,,,,,,,,,,,,0,2,2,2,1,third,3,21,female,right,donders,2021-07-08_16h04.26.034,ImageRatingTask_S2,2021.1.4,Win32,33.39121143,,,,,,,,,
,,,,,,,,,,,,0,3,3,3,1,fourth,3,21,female,right,donders,2021-07-08_16h04.26.034,ImageRatingTask_S2,2021.1.4,Win32,33.39121143,,,,,,,,,
,,,,,,,,,,,,0,4,4,4,1,fifth,3,21,female,right,donders,2021-07-08_16h04.26.034,ImageRatingTask_S2,2021.1.4,Win32,33.39121143,,,,,,,,,
,,,,,,,,,,,,0,5,5,5,1,sixth,3,21,female,right,donders,2021-07-08_16h04.26.034,ImageRatingTask_S2,2021.1.4,Win32,33.39121143,,,,,,,,,
,,,,,,,,,,,,0,6,6,6,1,seventh,3,21,female,right,donders,2021-07-08_16h04.26.034,ImageRatingTask_S2,2021.1.4,Win32,33.39121143,,,,,,,,,
,,,,,,,,,,,,0,7,7,7,1,last,3,21,female,right,donders,2021-07-08_16h04.26.034,ImageRatingTask_S2,2021.1.4,Win32,33.39121143,,,,,,,,,
,,,,,,,,,,,,,,,,,,3,21,female,right,donders,2021-07-08_16h04.26.034,ImageRatingTask_S2,2021.1.4,Win32,33.39121143,0,4,4,50,1,DreamStudyImages_rs1000x750g/Mammals/IAPS1300_dog1.jpg,,,
,,5,3.129,1,0.9262,7,1.8436,1,1.1168,7,2.4278,0,0,0,0,1,main,3,21,female,right,donders,2021-07-08_16h04.26.034,ImageRatingTask_S2,2021.1.4,Win32,33.39121143,,,,,,,,,
,,,,,,,,,,,,0,1,1,1,1,second,3,21,female,right,donders,2021-07-08_16h04.26.034,ImageRatingTask_S2,2021.1.4,Win32,33.39121143,,,,,,,,,
,,,,,,,,,,,,0,2,2,2,1,third,3,21,female,right,donders,2021-07-08_16h04.26.034,ImageRatingTask_S2,2021.1.4,Win32,33.39121143,,,,,,,,,
,,,,,,,,,,,,0,3,3,3,1,fourth,3,21,female,right,donders,2021-07-08_16h04.26.034,ImageRatingTask_S2,2021.1.4,Win32,33.39121143,,,,,,,,,
,,,,,,,,,,,,0,4,4,4,1,fifth,3,21,female,right,donders,2021-07-08_16h04.26.034,ImageRatingTask_S2,2021.1.4,Win32,33.39121143,,,,,,,,,
,,,,,,,,,,,,0,5,5,5,1,sixth,3,21,female,right,donders,2021-07-08_16h04.26.034,ImageRatingTask_S2,2021.1.4,Win32,33.39121143,,,,,,,,,
,,,,,,,,,,,,0,6,6,6,1,seventh,3,21,female,right,donders,2021-07-08_16h04.26.034,ImageRatingTask_S2,2021.1.4,Win32,33.39121143,,,,,,,,,
,,,,,,,,,,,,0,7,7,7,1,last,3,21,female,right,donders,2021-07-08_16h04.26.034,ImageRatingTask_S2,2021.1.4,Win32,33.39121143,,,,,,,,,
,,,,,,,,,,,,,,,,,,3,21,female,right,donders,2021-07-08_16h04.26.034,ImageRatingTask_S2,2021.1.4,Win32,33.39121143,0,5,5,131,1,DreamStudyImages_rs1000x750g/Vehicles/Explosion 3.jpg,,,
,,4,4.1285,2,1.2224,8,1.1902,1,1.1705,3,0.7891,0,0,0,0,1,main,3,21,female,right,donders,2021-07-08_16h04.26.034,ImageRatingTask_S2,2021.1.4,Win32,33.39121143,,,,,,,,,
,,,,,,,,,,,,0,1,1,1,1,second,3,21,female,right,donders,2021-07-08_16h04.26.034,ImageRatingTask_S2,2021.1.4,Win32,33.39121143,,,,,,,,,
,,,,,,,,,,,,0,2,2,2,1,third,3,21,female,right,donders,2021-07-08_16h04.26.034,ImageRatingTask_S2,2021.1.4,Win32,33.39121143,,,,,,,,,
,,,,,,,,,,,,0,3,3,3,1,fourth,3,21,female,right,donders,2021-07-08_16h04.26.034,ImageRatingTask_S2,2021.1.4,Win32,33.39121143,,,,,,,,,
,,,,,,,,,,,,0,4,4,4,1,fifth,3,21,female,right,donders,2021-07-08_16h04.26.034,ImageRatingTask_S2,2021.1.4,Win32,33.39121143,,,,,,,,,
,,,,,,,,,,,,0,5,5,5,1,sixth,3,21,female,right,donders,2021-07-08_16h04.26.034,ImageRatingTask_S2,2021.1.4,Win32,33.39121143,,,,,,,,,
,,,,,,,,,,,,0,6,6,6,1,seventh,3,21,female,right,donders,2021-07-08_16h04.26.034,ImageRatingTask_S2,2021.1.4,Win32,33.39121143,,,,,,,,,
,,,,,,,,,,,,0,7,7,7,1,last,3,21,female,right,donders,2021-07-08_16h04.26.034,ImageRatingTask_S2,2021.1.4,Win32,33.39121143,,,,,,,,,
,,,,,,,,,,,,,,,,,,3,21,female,right,donders,2021-07-08_16h04.26.034,ImageRatingTask_S2,2021.1.4,Win32,33.39121143,0,6,6,116,1,DreamStudyImages_rs1000x750g/Mammals/Scared cat 1.jpg,,,
,,6,1.6471,2,0.8583,8,13.0216,1,0.7569,3,0.7639,0,0,0,0,1,main,3,21,female,right,donders,2021-07-08_16h04.26.034,ImageRatingTask_S2,2021.1.4,Win32,33.39121143,,,,,,,,,
,,,,,,,,,,,,0,1,1,1,1,second,3,21,female,right,donders,2021-07-08_16h04.26.034,ImageRatingTask_S2,2021.1.4,Win32,33.39121143,,,,,,,,,
,,,,,,,,,,,,0,2,2,2,1,third,3,21,female,right,donders,2021-07-08_16h04.26.034,ImageRatingTask_S2,2021.1.4,Win32,33.39121143,,,,,,,,,
,,,,,,,,,,,,0,3,3,3,1,fourth,3,21,female,right,donders,2021-07-08_16h04.26.034,ImageRatingTask_S2,2021.1.4,Win32,33.39121143,,,,,,,,,
,,,,,,,,,,,,0,4,4,4,1,fifth,3,21,female,right,donders,2021-07-08_16h04.26.034,ImageRatingTask_S2,2021.1.4,Win32,33.39121143,,,,,,,,,
,,,,,,,,,,,,0,5,5,5,1,sixth,3,21,female,right,donders,2021-07-08_16h04.26.034,ImageRatingTask_S2,2021.1.4,Win32,33.39121143,,,,,,,,,
,,,,,,,,,,,,0,6,6,6,1,seventh,3,21,female,right,donders,2021-07-08_16h04.26.034,ImageRatingTask_S2,2021.1.4,Win32,33.39121143,,,,,,,,,
,,,,,,,,,,,,0,7,7,7,1,last,3,21,female,right,donders,2021-07-08_16h04.26.034,ImageRatingTask_S2,2021.1.4,Win32,33.39121143,,,,,,,,,
,,,,,,,,,,,,,,,,,,3,21,female,right,donders,2021-07-08_16h04.26.034,ImageRatingTask_S2,2021.1.4,Win32,33.39121143,0,7,7,86,1,DreamStudyImages_rs1000x750g/Mammals/Chipmunk 3.jpg,,,
,,5,11.0698,1,0.5836,9,3.1265,1,1.0415,5,0.9945,0,0,0,0,1,main,3,21,female,right,donders,2021-07-08_16h04.26.034,ImageRatingTask_S2,2021.1.4,Win32,33.39121143,,,,,,,,,
,,,,,,,,,,,,0,1,1,1,1,second,3,21,female,right,donders,2021-07-08_16h04.26.034,ImageRatingTask_S2,2021.1.4,Win32,33.39121143,,,,,,,,,
,,,,,,,,,,,,0,2,2,2,1,third,3,21,female,right,donders,2021-07-08_16h04.26.034,ImageRatingTask_S2,2021.1.4,Win32,33.39121143,,,,,,,,,
,,,,,,,,,,,,0,3,3,3,1,fourth,3,21,female,right,donders,2021-07-08_16h04.26.034,ImageRatingTask_S2,2021.1.4,Win32,33.39121143,,,,,,,,,
,,,,,,,,,,,,0,4,4,4,1,fifth,3,21,female,right,donders,2021-07-08_16h04.26.034,ImageRatingTask_S2,2021.1.4,Win32,33.39121143,,,,,,,,,
,,,,,,,,,,,,0,5,5,5,1,sixth,3,21,female,right,donders,2021-07-08_16h04.26.034,ImageRatingTask_S2,2021.1.4,Win32,33.39121143,,,,,,,,,
,,,,,,,,,,,,0,6,6,6,1,seventh,3,21,female,right,donders,2021-07-08_16h04.26.034,ImageRatingTask_S2,2021.1.4,Win32,33.39121143,,,,,,,,,
,,,,,,,,,,,,0,7,7,7,1,last,3,21,female,right,donders,2021-07-08_16h04.26.034,ImageRatingTask_S2,2021.1.4,Win32,33.39121143,,,,,,,,,
,,,,,,,,,,,,,,,,,,3,21,female,right,donders,2021-07-08_16h04.26.034,ImageRatingTask_S2,2021.1.4,Win32,33.39121143,0,8,8,105,1,DreamStudyImages_rs1000x750g/Food/Objects_027_h.jpg,,,
,,6,3.4826,2,0.5292,9,1.5074,1,0.9695,6,0.8427,0,0,0,0,1,main,3,21,female,right,donders,2021-07-08_16h04.26.034,ImageRatingTask_S2,2021.1.4,Win32,33.39121143,,,,,,,,,
,,,,,,,,,,,,0,1,1,1,1,second,3,21,female,right,donders,2021-07-08_16h04.26.034,ImageRatingTask_S2,2021.1.4,Win32,33.39121143,,,,,,,,,
,,,,,,,,,,,,0,2,2,2,1,third,3,21,female,right,donders,2021-07-08_16h04.26.034,ImageRatingTask_S2,2021.1.4,Win32,33.39121143,,,,,,,,,
,,,,,,,,,,,,0,3,3,3,1,fourth,3,21,female,right,donders,2021-07-08_16h04.26.034,ImageRatingTask_S2,2021.1.4,Win32,33.39121143,,,,,,,,,
,,,,,,,,,,,,0,4,4,4,1,fifth,3,21,female,right,donders,2021-07-08_16h04.26.034,ImageRatingTask_S2,2021.1.4,Win32,33.39121143,,,,,,,,,
,,,,,,,,,,,,0,5,5,5,1,sixth,3,21,female,right,donders,2021-07-08_16h04.26.034,ImageRatingTask_S2,2021.1.4,Win32,33.39121143,,,,,,,,,
,,,,,,,,,,,,0,6,6,6,1,seventh,3,21,female,right,donders,2021-07-08_16h04.26.034,ImageRatingTask_S2,2021.1.4,Win32,33.39121143,,,,,,,,,
,,,,,,,,,,,,0,7,7,7,1,last,3,21,female,right,donders,2021-07-08_16h04.26.034,ImageRatingTask_S2,2021.1.4,Win32,33.39121143,,,,,,,,,
,,,,,,,,,,,,,,,,,,3,21,female,right,donders,2021-07-08_16h04.26.034,ImageRatingTask_S2,2021.1.4,Win32,33.39121143,0,9,9,59,1,DreamStudyImages_rs1000x750g/Houses/Landscapes_087_h.jpg,,,
,,6,3.8287,2,0.7462,7,3.2408,1,1.475,2,0.6051,0,0,0,0,1,main,3,21,female,right,donders,2021-07-08_16h04.26.034,ImageRatingTask_S2,2021.1.4,Win32,33.39121143,,,,,,,,,
,,,,,,,,,,,,0,1,1,1,1,second,3,21,female,right,donders,2021-07-08_16h04.26.034,ImageRatingTask_S2,2021.1.4,Win32,33.39121143,,,,,,,,,
,,,,,,,,,,,,0,2,2,2,1,third,3,21,female,right,donders,2021-07-08_16h04.26.034,ImageRatingTask_S2,2021.1.4,Win32,33.39121143,,,,,,,,,
,,,,,,,,,,,,0,3,3,3,1,fourth,3,21,female,right,donders,2021-07-08_16h04.26.034,ImageRatingTask_S2,2021.1.4,Win32,33.39121143,,,,,,,,,
,,,,,,,,,,,,0,4,4,4,1,fifth,3,21,female,right,donders,2021-07-08_16h04.26.034,ImageRatingTask_S2,2021.1.4,Win32,33.39121143,,,,,,,,,
,,,,,,,,,,,,0,5,5,5,1,sixth,3,21,female,right,donders,2021-07-08_16h04.26.034,ImageRatingTask_S2,2021.1.4,Win32,33.39121143,,,,,,,,,
,,,,,,,,,,,,0,6,6,6,1,seventh,3,21,female,right,donders,2021-07-08_16h04.26.034,ImageRatingTask_S2,2021.1.4,Win32,33.39121143,,,,,,,,,
,,,,,,,,,,,,0,7,7,7,1,last,3,21,female,right,donders,2021-07-08_16h04.26.034,ImageRatingTask_S2,2021.1.4,Win32,33.39121143,,,,,,,,,
,,,,,,,,,,,,,,,,,,3,21,female,right,donders,2021-07-08_16h04.26.034,ImageRatingTask_S2,2021.1.4,Win32,33.39121143,0,10,10,102,1,DreamStudyImages_rs1000x750g/Children/IAPS2810_boy11.jpg,,,
,,6,1.7189,2,0.3782,9,1.9248,1,0.8415,8,0.8448,0,0,0,0,1,main,3,21,female,right,donders,2021-07-08_16h04.26.034,ImageRatingTask_S2,2021.1.4,Win32,33.39121143,,,,,,,,,
,,,,,,,,,,,,0,1,1,1,1,second,3,21,female,right,donders,2021-07-08_16h04.26.034,ImageRatingTask_S2,2021.1.4,Win32,33.39121143,,,,,,,,,
,,,,,,,,,,,,0,2,2,2,1,third,3,21,female,right,donders,2021-07-08_16h04.26.034,ImageRatingTask_S2,2021.1.4,Win32,33.39121143,,,,,,,,,
,,,,,,,,,,,,0,3,3,3,1,fourth,3,21,female,right,donders,2021-07-08_16h04.26.034,ImageRatingTask_S2,2021.1.4,Win32,33.39121143,,,,,,,,,
,,,,,,,,,,,,0,4,4,4,1,fifth,3,21,female,right,donders,2021-07-08_16h04.26.034,ImageRatingTask_S2,2021.1.4,Win32,33.39121143,,,,,,,,,
,,,,,,,,,,,,0,5,5,5,1,sixth,3,21,female,right,donders,2021-07-08_16h04.26.034,ImageRatingTask_S2,2021.1.4,Win32,33.39121143,,,,,,,,,
,,,,,,,,,,,,0,6,6,6,1,seventh,3,21,female,right,donders,2021-07-08_16h04.26.034,ImageRatingTask_S2,2021.1.4,Win32,33.39121143,,,,,,,,,
,,,,,,,,,,,,0,7,7,7,1,last,3,21,female,right,donders,2021-07-08_16h04.26.034,ImageRatingTask_S2,2021.1.4,Win32,33.39121143,,,,,,,,,
,,,,,,,,,,,,,,,,,,3,21,female,right,donders,2021-07-08_16h04.26.034,ImageRatingTask_S2,2021.1.4,Win32,33.39121143,0,11,11,127,1,DreamStudyImages_rs1000x750g/Water/Lake 7.jpg,,,
,,5,3.0154,1,0.6334,7,2.4552,1,0.6625,5,1.1115,0,0,0,0,1,main,3,21,female,right,donders,2021-07-08_16h04.26.034,ImageRatingTask_S2,2021.1.4,Win32,33.39121143,,,,,,,,,
,,,,,,,,,,,,0,1,1,1,1,second,3,21,female,right,donders,2021-07-08_16h04.26.034,ImageRatingTask_S2,2021.1.4,Win32,33.39121143,,,,,,,,,
,,,,,,,,,,,,0,2,2,2,1,third,3,21,female,right,donders,2021-07-08_16h04.26.034,ImageRatingTask_S2,2021.1.4,Win32,33.39121143,,,,,,,,,
,,,,,,,,,,,,0,3,3,3,1,fourth,3,21,female,right,donders,2021-07-08_16h04.26.034,ImageRatingTask_S2,2021.1.4,Win32,33.39121143,,,,,,,,,
,,,,,,,,,,,,0,4,4,4,1,fifth,3,21,female,right,donders,2021-07-08_16h04.26.034,ImageRatingTask_S2,2021.1.4,Win32,33.39121143,,,,,,,,,
,,,,,,,,,,,,0,5,5,5,1,sixth,3,21,female,right,donders,2021-07-08_16h04.26.034,ImageRatingTask_S2,2021.1.4,Win32,33.39121143,,,,,,,,,
,,,,,,,,,,,,0,6,6,6,1,seventh,3,21,female,right,donders,2021-07-08_16h04.26.034,ImageRatingTask_S2,2021.1.4,Win32,33.39121143,,,,,,,,,
,,,,,,,,,,,,0,7,7,7,1,last,3,21,female,right,donders,2021-07-08_16h04.26.034,ImageRatingTask_S2,2021.1.4,Win32,33.39121143,,,,,,,,,
,,,,,,,,,,,,,,,,,,3,21,female,right,donders,2021-07-08_16h04.26.034,ImageRatingTask_S2,2021.1.4,Win32,33.39121143,0,12,12,92,1,DreamStudyImages_rs1000x750g/Food/IAPS7476_soup.jpg,,,
,,5,1.3159,1,0.5603,8,1.6093,1,0.4416,6,0.8624,0,0,0,0,1,main,3,21,female,right,donders,2021-07-08_16h04.26.034,ImageRatingTask_S2,2021.1.4,Win32,33.39121143,,,,,,,,,
,,,,,,,,,,,,0,1,1,1,1,second,3,21,female,right,donders,2021-07-08_16h04.26.034,ImageRatingTask_S2,2021.1.4,Win32,33.39121143,,,,,,,,,
,,,,,,,,,,,,0,2,2,2,1,third,3,21,female,right,donders,2021-07-08_16h04.26.034,ImageRatingTask_S2,2021.1.4,Win32,33.39121143,,,,,,,,,
,,,,,,,,,,,,0,3,3,3,1,fourth,3,21,female,right,donders,2021-07-08_16h04.26.034,ImageRatingTask_S2,2021.1.4,Win32,33.39121143,,,,,,,,,
,,,,,,,,,,,,0,4,4,4,1,fifth,3,21,female,right,donders,2021-07-08_16h04.26.034,ImageRatingTask_S2,2021.1.4,Win32,33.39121143,,,,,,,,,
,,,,,,,,,,,,0,5,5,5,1,sixth,3,21,female,right,donders,2021-07-08_16h04.26.034,ImageRatingTask_S2,2021.1.4,Win32,33.39121143,,,,,,,,,
,,,,,,,,,,,,0,6,6,6,1,seventh,3,21,female,right,donders,2021-07-08_16h04.26.034,ImageRatingTask_S2,2021.1.4,Win32,33.39121143,,,,,,,,,
,,,,,,,,,,,,0,7,7,7,1,last,3,21,female,right,donders,2021-07-08_16h04.26.034,ImageRatingTask_S2,2021.1.4,Win32,33.39121143,,,,,,,,,
,,,,,,,,,,,,,,,,,,3,21,female,right,donders,2021-07-08_16h04.26.034,ImageRatingTask_S2,2021.1.4,Win32,33.39121143,0,13,13,41,1,DreamStudyImages_rs1000x750g/Houses/whitehouse.jpg,,,
,,7,19.034,2,1.7838,8,1.9329,1,0.4709,8,0.6568,0,0,0,0,1,main,3,21,female,right,donders,2021-07-08_16h04.26.034,ImageRatingTask_S2,2021.1.4,Win32,33.39121143,,,,,,,,,
,,,,,,,,,,,,0,1,1,1,1,second,3,21,female,right,donders,2021-07-08_16h04.26.034,ImageRatingTask_S2,2021.1.4,Win32,33.39121143,,,,,,,,,
,,,,,,,,,,,,0,2,2,2,1,third,3,21,female,right,donders,2021-07-08_16h04.26.034,ImageRatingTask_S2,2021.1.4,Win32,33.39121143,,,,,,,,,
,,,,,,,,,,,,0,3,3,3,1,fourth,3,21,female,right,donders,2021-07-08_16h04.26.034,ImageRatingTask_S2,2021.1.4,Win32,33.39121143,,,,,,,,,
,,,,,,,,,,,,0,4,4,4,1,fifth,3,21,female,right,donders,2021-07-08_16h04.26.034,ImageRatingTask_S2,2021.1.4,Win32,33.39121143,,,,,,,,,
,,,,,,,,,,,,0,5,5,5,1,sixth,3,21,female,right,donders,2021-07-08_16h04.26.034,ImageRatingTask_S2,2021.1.4,Win32,33.39121143,,,,,,,,,
,,,,,,,,,,,,0,6,6,6,1,seventh,3,21,female,right,donders,2021-07-08_16h04.26.034,ImageRatingTask_S2,2021.1.4,Win32,33.39121143,,,,,,,,,
,,,,,,,,,,,,0,7,7,7,1,last,3,21,female,right,donders,2021-07-08_16h04.26.034,ImageRatingTask_S2,2021.1.4,Win32,33.39121143,,,,,,,,,
,,,,,,,,,,,,,,,,,,3,21,female,right,donders,2021-07-08_16h04.26.034,ImageRatingTask_S2,2021.1.4,Win32,33.39121143,0,14,14,121,1,DreamStudyImages_rs1000x750g/Water/Sunset 6.jpg,,,
,,8,4.7725,4,1.6794,9,1.1356,1,1.047,8,0.7432,0,0,0,0,1,main,3,21,female,right,donders,2021-07-08_16h04.26.034,ImageRatingTask_S2,2021.1.4,Win32,33.39121143,,,,,,,,,
,,,,,,,,,,,,0,1,1,1,1,second,3,21,female,right,donders,2021-07-08_16h04.26.034,ImageRatingTask_S2,2021.1.4,Win32,33.39121143,,,,,,,,,
,,,,,,,,,,,,0,2,2,2,1,third,3,21,female,right,donders,2021-07-08_16h04.26.034,ImageRatingTask_S2,2021.1.4,Win32,33.39121143,,,,,,,,,
,,,,,,,,,,,,0,3,3,3,1,fourth,3,21,female,right,donders,2021-07-08_16h04.26.034,ImageRatingTask_S2,2021.1.4,Win32,33.39121143,,,,,,,,,
,,,,,,,,,,,,0,4,4,4,1,fifth,3,21,female,right,donders,2021-07-08_16h04.26.034,ImageRatingTask_S2,2021.1.4,Win32,33.39121143,,,,,,,,,
,,,,,,,,,,,,0,5,5,5,1,sixth,3,21,female,right,donders,2021-07-08_16h04.26.034,ImageRatingTask_S2,2021.1.4,Win32,33.39121143,,,,,,,,,
,,,,,,,,,,,,0,6,6,6,1,seventh,3,21,female,right,donders,2021-07-08_16h04.26.034,ImageRatingTask_S2,2021.1.4,Win32,33.39121143,,,,,,,,,
,,,,,,,,,,,,0,7,7,7,1,last,3,21,female,right,donders,2021-07-08_16h04.26.034,ImageRatingTask_S2,2021.1.4,Win32,33.39121143,,,,,,,,,
,,,,,,,,,,,,,,,,,,3,21,female,right,donders,2021-07-08_16h04.26.034,ImageRatingTask_S2,2021.1.4,Win32,33.39121143,0,15,15,120,1,DreamStudyImages_rs1000x750g/Water/Lake 12.jpg,,,
,,6,2.1423,3,1.2343,8,5.2113,1,0.4283,8,0.7308,0,0,0,0,1,main,3,21,female,right,donders,2021-07-08_16h04.26.034,ImageRatingTask_S2,2021.1.4,Win32,33.39121143,,,,,,,,,
,,,,,,,,,,,,0,1,1,1,1,second,3,21,female,right,donders,2021-07-08_16h04.26.034,ImageRatingTask_S2,2021.1.4,Win32,33.39121143,,,,,,,,,
,,,,,,,,,,,,0,2,2,2,1,third,3,21,female,right,donders,2021-07-08_16h04.26.034,ImageRatingTask_S2,2021.1.4,Win32,33.39121143,,,,,,,,,
,,,,,,,,,,,,0,3,3,3,1,fourth,3,21,female,right,donders,2021-07-08_16h04.26.034,ImageRatingTask_S2,2021.1.4,Win32,33.39121143,,,,,,,,,
,,,,,,,,,,,,0,4,4,4,1,fifth,3,21,female,right,donders,2021-07-08_16h04.26.034,ImageRatingTask_S2,2021.1.4,Win32,33.39121143,,,,,,,,,
,,,,,,,,,,,,0,5,5,5,1,sixth,3,21,female,right,donders,2021-07-08_16h04.26.034,ImageRatingTask_S2,2021.1.4,Win32,33.39121143,,,,,,,,,
,,,,,,,,,,,,0,6,6,6,1,seventh,3,21,female,right,donders,2021-07-08_16h04.26.034,ImageRatingTask_S2,2021.1.4,Win32,33.39121143,,,,,,,,,
,,,,,,,,,,,,0,7,7,7,1,last,3,21,female,right,donders,2021-07-08_16h04.26.034,ImageRatingTask_S2,2021.1.4,Win32,33.39121143,,,,,,,,,
,,,,,,,,,,,,,,,,,,3,21,female,right,donders,2021-07-08_16h04.26.034,ImageRatingTask_S2,2021.1.4,Win32,33.39121143,0,16,16,6,1,DreamStudyImages_rs1000x750g/Water/seacliff.jpg,,,
,,6,2.978,3,0.9154,8,1.2421,1,0.6916,5,1.2701,0,0,0,0,1,main,3,21,female,right,donders,2021-07-08_16h04.26.034,ImageRatingTask_S2,2021.1.4,Win32,33.39121143,,,,,,,,,
,,,,,,,,,,,,0,1,1,1,1,second,3,21,female,right,donders,2021-07-08_16h04.26.034,ImageRatingTask_S2,2021.1.4,Win32,33.39121143,,,,,,,,,
,,,,,,,,,,,,0,2,2,2,1,third,3,21,female,right,donders,2021-07-08_16h04.26.034,ImageRatingTask_S2,2021.1.4,Win32,33.39121143,,,,,,,,,
,,,,,,,,,,,,0,3,3,3,1,fourth,3,21,female,right,donders,2021-07-08_16h04.26.034,ImageRatingTask_S2,2021.1.4,Win32,33.39121143,,,,,,,,,
,,,,,,,,,,,,0,4,4,4,1,fifth,3,21,female,right,donders,2021-07-08_16h04.26.034,ImageRatingTask_S2,2021.1.4,Win32,33.39121143,,,,,,,,,
,,,,,,,,,,,,0,5,5,5,1,sixth,3,21,female,right,donders,2021-07-08_16h04.26.034,ImageRatingTask_S2,2021.1.4,Win32,33.39121143,,,,,,,,,
,,,,,,,,,,,,0,6,6,6,1,seventh,3,21,female,right,donders,2021-07-08_16h04.26.034,ImageRatingTask_S2,2021.1.4,Win32,33.39121143,,,,,,,,,
,,,,,,,,,,,,0,7,7,7,1,last,3,21,female,right,donders,2021-07-08_16h04.26.034,ImageRatingTask_S2,2021.1.4,Win32,33.39121143,,,,,,,,,
,,,,,,,,,,,,,,,,,,3,21,female,right,donders,2021-07-08_16h04.26.034,ImageRatingTask_S2,2021.1.4,Win32,33.39121143,0,17,17,89,1,DreamStudyImages_rs1000x750g/Food/Objects_081_h.jpg,,,
,,5,1.9456,1,0.3243,7,4.1824,1,1.1796,7,0.6397,0,0,0,0,1,main,3,21,female,right,donders,2021-07-08_16h04.26.034,ImageRatingTask_S2,2021.1.4,Win32,33.39121143,,,,,,,,,
,,,,,,,,,,,,0,1,1,1,1,second,3,21,female,right,donders,2021-07-08_16h04.26.034,ImageRatingTask_S2,2021.1.4,Win32,33.39121143,,,,,,,,,
,,,,,,,,,,,,0,2,2,2,1,third,3,21,female,right,donders,2021-07-08_16h04.26.034,ImageRatingTask_S2,2021.1.4,Win32,33.39121143,,,,,,,,,
,,,,,,,,,,,,0,3,3,3,1,fourth,3,21,female,right,donders,2021-07-08_16h04.26.034,ImageRatingTask_S2,2021.1.4,Win32,33.39121143,,,,,,,,,
,,,,,,,,,,,,0,4,4,4,1,fifth,3,21,female,right,donders,2021-07-08_16h04.26.034,ImageRatingTask_S2,2021.1.4,Win32,33.39121143,,,,,,,,,
,,,,,,,,,,,,0,5,5,5,1,sixth,3,21,female,right,donders,2021-07-08_16h04.26.034,ImageRatingTask_S2,2021.1.4,Win32,33.39121143,,,,,,,,,
,,,,,,,,,,,,0,6,6,6,1,seventh,3,21,female,right,donders,2021-07-08_16h04.26.034,ImageRatingTask_S2,2021.1.4,Win32,33.39121143,,,,,,,,,
,,,,,,,,,,,,0,7,7,7,1,last,3,21,female,right,donders,2021-07-08_16h04.26.034,ImageRatingTask_S2,2021.1.4,Win32,33.39121143,,,,,,,,,
,,,,,,,,,,,,,,,,,,3,21,female,right,donders,2021-07-08_16h04.26.034,ImageRatingTask_S2,2021.1.4,Win32,33.39121143,0,18,18,71,1,DreamStudyImages_rs1000x750g/Vehicles/whitecar.jpg,,,
,,5,2.1746,1,0.4732,8,1.5339,1,0.9473,3,1.0434,0,0,0,0,1,main,3,21,female,right,donders,2021-07-08_16h04.26.034,ImageRatingTask_S2,2021.1.4,Win32,33.39121143,,,,,,,,,
,,,,,,,,,,,,0,1,1,1,1,second,3,21,female,right,donders,2021-07-08_16h04.26.034,ImageRatingTask_S2,2021.1.4,Win32,33.39121143,,,,,,,,,
,,,,,,,,,,,,0,2,2,2,1,third,3,21,female,right,donders,2021-07-08_16h04.26.034,ImageRatingTask_S2,2021.1.4,Win32,33.39121143,,,,,,,,,
,,,,,,,,,,,,0,3,3,3,1,fourth,3,21,female,right,donders,2021-07-08_16h04.26.034,ImageRatingTask_S2,2021.1.4,Win32,33.39121143,,,,,,,,,
,,,,,,,,,,,,0,4,4,4,1,fifth,3,21,female,right,donders,2021-07-08_16h04.26.034,ImageRatingTask_S2,2021.1.4,Win32,33.39121143,,,,,,,,,
,,,,,,,,,,,,0,5,5,5,1,sixth,3,21,female,right,donders,2021-07-08_16h04.26.034,ImageRatingTask_S2,2021.1.4,Win32,33.39121143,,,,,,,,,
,,,,,,,,,,,,0,6,6,6,1,seventh,3,21,female,right,donders,2021-07-08_16h04.26.034,ImageRatingTask_S2,2021.1.4,Win32,33.39121143,,,,,,,,,
,,,,,,,,,,,,0,7,7,7,1,last,3,21,female,right,donders,2021-07-08_16h04.26.034,ImageRatingTask_S2,2021.1.4,Win32,33.39121143,,,,,,,,,
,,,,,,,,,,,,,,,,,,3,21,female,right,donders,2021-07-08_16h04.26.034,ImageRatingTask_S2,2021.1.4,Win32,33.39121143,0,19,19,103,1,DreamStudyImages_rs1000x750g/Mammals/Animals_211_h.jpg,,,
,,5,2.0056,1,0.4541,6,1.0164,1,1.2831,5,0.9001,0,0,0,0,1,main,3,21,female,right,donders,2021-07-08_16h04.26.034,ImageRatingTask_S2,2021.1.4,Win32,33.39121143,,,,,,,,,
,,,,,,,,,,,,0,1,1,1,1,second,3,21,female,right,donders,2021-07-08_16h04.26.034,ImageRatingTask_S2,2021.1.4,Win32,33.39121143,,,,,,,,,
,,,,,,,,,,,,0,2,2,2,1,third,3,21,female,right,donders,2021-07-08_16h04.26.034,ImageRatingTask_S2,2021.1.4,Win32,33.39121143,,,,,,,,,
,,,,,,,,,,,,0,3,3,3,1,fourth,3,21,female,right,donders,2021-07-08_16h04.26.034,ImageRatingTask_S2,2021.1.4,Win32,33.39121143,,,,,,,,,
,,,,,,,,,,,,0,4,4,4,1,fifth,3,21,female,right,donders,2021-07-08_16h04.26.034,ImageRatingTask_S2,2021.1.4,Win32,33.39121143,,,,,,,,,
,,,,,,,,,,,,0,5,5,5,1,sixth,3,21,female,right,donders,2021-07-08_16h04.26.034,ImageRatingTask_S2,2021.1.4,Win32,33.39121143,,,,,,,,,
,,,,,,,,,,,,0,6,6,6,1,seventh,3,21,female,right,donders,2021-07-08_16h04.26.034,ImageRatingTask_S2,2021.1.4,Win32,33.39121143,,,,,,,,,
,,,,,,,,,,,,0,7,7,7,1,last,3,21,female,right,donders,2021-07-08_16h04.26.034,ImageRatingTask_S2,2021.1.4,Win32,33.39121143,,,,,,,,,
,,,,,,,,,,,,,,,,,,3,21,female,right,donders,2021-07-08_16h04.26.034,ImageRatingTask_S2,2021.1.4,Win32,33.39121143,0,20,20,145,1,DreamStudyImages_rs1000x750g/Food/IAPS7283_dessert.jpg,,,
,,4,5.4695,3,1.9427,9,3.2991,1,1.2101,6,0.8998,0,0,0,0,1,main,3,21,female,right,donders,2021-07-08_16h04.26.034,ImageRatingTask_S2,2021.1.4,Win32,33.39121143,,,,,,,,,
,,,,,,,,,,,,0,1,1,1,1,second,3,21,female,right,donders,2021-07-08_16h04.26.034,ImageRatingTask_S2,2021.1.4,Win32,33.39121143,,,,,,,,,
,,,,,,,,,,,,0,2,2,2,1,third,3,21,female,right,donders,2021-07-08_16h04.26.034,ImageRatingTask_S2,2021.1.4,Win32,33.39121143,,,,,,,,,
,,,,,,,,,,,,0,3,3,3,1,fourth,3,21,female,right,donders,2021-07-08_16h04.26.034,ImageRatingTask_S2,2021.1.4,Win32,33.39121143,,,,,,,,,
,,,,,,,,,,,,0,4,4,4,1,fifth,3,21,female,right,donders,2021-07-08_16h04.26.034,ImageRatingTask_S2,2021.1.4,Win32,33.39121143,,,,,,,,,
,,,,,,,,,,,,0,5,5,5,1,sixth,3,21,female,right,donders,2021-07-08_16h04.26.034,ImageRatingTask_S2,2021.1.4,Win32,33.39121143,,,,,,,,,
,,,,,,,,,,,,0,6,6,6,1,seventh,3,21,female,right,donders,2021-07-08_16h04.26.034,ImageRatingTask_S2,2021.1.4,Win32,33.39121143,,,,,,,,,
,,,,,,,,,,,,0,7,7,7,1,last,3,21,female,right,donders,2021-07-08_16h04.26.034,ImageRatingTask_S2,2021.1.4,Win32,33.39121143,,,,,,,,,
,,,,,,,,,,,,,,,,,,3,21,female,right,donders,2021-07-08_16h04.26.034,ImageRatingTask_S2,2021.1.4,Win32,33.39121143,0,21,21,49,1,DreamStudyImages_rs1000x750g/Houses/Landscapes_001_h.jpg,,,
,,5,7.5855,1,0.8611,1,1.428,1,4.4811,7,0.6332,0,0,0,0,1,main,3,21,female,right,donders,2021-07-08_16h04.26.034,ImageRatingTask_S2,2021.1.4,Win32,33.39121143,,,,,,,,,
,,,,,,,,,,,,0,1,1,1,1,second,3,21,female,right,donders,2021-07-08_16h04.26.034,ImageRatingTask_S2,2021.1.4,Win32,33.39121143,,,,,,,,,
,,,,,,,,,,,,0,2,2,2,1,third,3,21,female,right,donders,2021-07-08_16h04.26.034,ImageRatingTask_S2,2021.1.4,Win32,33.39121143,,,,,,,,,
,,,,,,,,,,,,0,3,3,3,1,fourth,3,21,female,right,donders,2021-07-08_16h04.26.034,ImageRatingTask_S2,2021.1.4,Win32,33.39121143,,,,,,,,,
,,,,,,,,,,,,0,4,4,4,1,fifth,3,21,female,right,donders,2021-07-08_16h04.26.034,ImageRatingTask_S2,2021.1.4,Win32,33.39121143,,,,,,,,,
,,,,,,,,,,,,0,5,5,5,1,sixth,3,21,female,right,donders,2021-07-08_16h04.26.034,ImageRatingTask_S2,2021.1.4,Win32,33.39121143,,,,,,,,,
,,,,,,,,,,,,0,6,6,6,1,seventh,3,21,female,right,donders,2021-07-08_16h04.26.034,ImageRatingTask_S2,2021.1.4,Win32,33.39121143,,,,,,,,,
,,,,,,,,,,,,0,7,7,7,1,last,3,21,female,right,donders,2021-07-08_16h04.26.034,ImageRatingTask_S2,2021.1.4,Win32,33.39121143,,,,,,,,,
,,,,,,,,,,,,,,,,,,3,21,female,right,donders,2021-07-08_16h04.26.034,ImageRatingTask_S2,2021.1.4,Win32,33.39121143,0,22,22,39,1,DreamStudyImages_rs1000x750g/Vehicles/Car accident 3.jpg,,,
,,6,5.0144,2,0.5585,7,3.6262,1,0.8266,3,0.9514,0,0,0,0,1,main,3,21,female,right,donders,2021-07-08_16h04.26.034,ImageRatingTask_S2,2021.1.4,Win32,33.39121143,,,,,,,,,
,,,,,,,,,,,,0,1,1,1,1,second,3,21,female,right,donders,2021-07-08_16h04.26.034,ImageRatingTask_S2,2021.1.4,Win32,33.39121143,,,,,,,,,
,,,,,,,,,,,,0,2,2,2,1,third,3,21,female,right,donders,2021-07-08_16h04.26.034,ImageRatingTask_S2,2021.1.4,Win32,33.39121143,,,,,,,,,
,,,,,,,,,,,,0,3,3,3,1,fourth,3,21,female,right,donders,2021-07-08_16h04.26.034,ImageRatingTask_S2,2021.1.4,Win32,33.39121143,,,,,,,,,
,,,,,,,,,,,,0,4,4,4,1,fifth,3,21,female,right,donders,2021-07-08_16h04.26.034,ImageRatingTask_S2,2021.1.4,Win32,33.39121143,,,,,,,,,
,,,,,,,,,,,,0,5,5,5,1,sixth,3,21,female,right,donders,2021-07-08_16h04.26.034,ImageRatingTask_S2,2021.1.4,Win32,33.39121143,,,,,,,,,
,,,,,,,,,,,,0,6,6,6,1,seventh,3,21,female,right,donders,2021-07-08_16h04.26.034,ImageRatingTask_S2,2021.1.4,Win32,33.39121143,,,,,,,,,
,,,,,,,,,,,,0,7,7,7,1,last,3,21,female,right,donders,2021-07-08_16h04.26.034,ImageRatingTask_S2,2021.1.4,Win32,33.39121143,,,,,,,,,
,,,,,,,,,,,,,,,,,,3,21,female,right,donders,2021-07-08_16h04.26.034,ImageRatingTask_S2,2021.1.4,Win32,33.39121143,0,23,23,128,1,DreamStudyImages_rs1000x750g/Mammals/Lion 4.jpg,,,
,,5,6.9675,1,0.4959,9,0.5381,1,0.5518,8,0.7335,0,0,0,0,1,main,3,21,female,right,donders,2021-07-08_16h04.26.034,ImageRatingTask_S2,2021.1.4,Win32,33.39121143,,,,,,,,,
,,,,,,,,,,,,0,1,1,1,1,second,3,21,female,right,donders,2021-07-08_16h04.26.034,ImageRatingTask_S2,2021.1.4,Win32,33.39121143,,,,,,,,,
,,,,,,,,,,,,0,2,2,2,1,third,3,21,female,right,donders,2021-07-08_16h04.26.034,ImageRatingTask_S2,2021.1.4,Win32,33.39121143,,,,,,,,,
,,,,,,,,,,,,0,3,3,3,1,fourth,3,21,female,right,donders,2021-07-08_16h04.26.034,ImageRatingTask_S2,2021.1.4,Win32,33.39121143,,,,,,,,,
,,,,,,,,,,,,0,4,4,4,1,fifth,3,21,female,right,donders,2021-07-08_16h04.26.034,ImageRatingTask_S2,2021.1.4,Win32,33.39121143,,,,,,,,,
,,,,,,,,,,,,0,5,5,5,1,sixth,3,21,female,right,donders,2021-07-08_16h04.26.034,ImageRatingTask_S2,2021.1.4,Win32,33.39121143,,,,,,,,,
,,,,,,,,,,,,0,6,6,6,1,seventh,3,21,female,right,donders,2021-07-08_16h04.26.034,ImageRatingTask_S2,2021.1.4,Win32,33.39121143,,,,,,,,,
,,,,,,,,,,,,0,7,7,7,1,last,3,21,female,right,donders,2021-07-08_16h04.26.034,ImageRatingTask_S2,2021.1.4,Win32,33.39121143,,,,,,,,,
,,,,,,,,,,,,,,,,,,3,21,female,right,donders,2021-07-08_16h04.26.034,ImageRatingTask_S2,2021.1.4,Win32,33.39121143,0,24,24,47,1,DreamStudyImages_rs1000x750g/Water/landscapes_130_h.jpg,,,
,,6,2.4852,3,0.718,8,1.8903,1,0.6031,3,1.1132,0,0,0,0,1,main,3,21,female,right,donders,2021-07-08_16h04.26.034,ImageRatingTask_S2,2021.1.4,Win32,33.39121143,,,,,,,,,
,,,,,,,,,,,,0,1,1,1,1,second,3,21,female,right,donders,2021-07-08_16h04.26.034,ImageRatingTask_S2,2021.1.4,Win32,33.39121143,,,,,,,,,
,,,,,,,,,,,,0,2,2,2,1,third,3,21,female,right,donders,2021-07-08_16h04.26.034,ImageRatingTask_S2,2021.1.4,Win32,33.39121143,,,,,,,,,
,,,,,,,,,,,,0,3,3,3,1,fourth,3,21,female,right,donders,2021-07-08_16h04.26.034,ImageRatingTask_S2,2021.1.4,Win32,33.39121143,,,,,,,,,
,,,,,,,,,,,,0,4,4,4,1,fifth,3,21,female,right,donders,2021-07-08_16h04.26.034,ImageRatingTask_S2,2021.1.4,Win32,33.39121143,,,,,,,,,
,,,,,,,,,,,,0,5,5,5,1,sixth,3,21,female,right,donders,2021-07-08_16h04.26.034,ImageRatingTask_S2,2021.1.4,Win32,33.39121143,,,,,,,,,
,,,,,,,,,,,,0,6,6,6,1,seventh,3,21,female,right,donders,2021-07-08_16h04.26.034,ImageRatingTask_S2,2021.1.4,Win32,33.39121143,,,,,,,,,
,,,,,,,,,,,,0,7,7,7,1,last,3,21,female,right,donders,2021-07-08_16h04.26.034,ImageRatingTask_S2,2021.1.4,Win32,33.39121143,,,,,,,,,
,,,,,,,,,,,,,,,,,,3,21,female,right,donders,2021-07-08_16h04.26.034,ImageRatingTask_S2,2021.1.4,Win32,33.39121143,0,25,25,98,1,DreamStudyImages_rs1000x750g/Mammals/Raccoon 1.jpg,,,
,,3,4.8664,4,1.4858,8,3.9343,1,7.7071,8,0.9134,0,0,0,0,1,main,3,21,female,right,donders,2021-07-08_16h04.26.034,ImageRatingTask_S2,2021.1.4,Win32,33.39121143,,,,,,,,,
,,,,,,,,,,,,0,1,1,1,1,second,3,21,female,right,donders,2021-07-08_16h04.26.034,ImageRatingTask_S2,2021.1.4,Win32,33.39121143,,,,,,,,,
,,,,,,,,,,,,0,2,2,2,1,third,3,21,female,right,donders,2021-07-08_16h04.26.034,ImageRatingTask_S2,2021.1.4,Win32,33.39121143,,,,,,,,,
,,,,,,,,,,,,0,3,3,3,1,fourth,3,21,female,right,donders,2021-07-08_16h04.26.034,ImageRatingTask_S2,2021.1.4,Win32,33.39121143,,,,,,,,,
,,,,,,,,,,,,0,4,4,4,1,fifth,3,21,female,right,donders,2021-07-08_16h04.26.034,ImageRatingTask_S2,2021.1.4,Win32,33.39121143,,,,,,,,,
,,,,,,,,,,,,0,5,5,5,1,sixth,3,21,female,right,donders,2021-07-08_16h04.26.034,ImageRatingTask_S2,2021.1.4,Win32,33.39121143,,,,,,,,,
,,,,,,,,,,,,0,6,6,6,1,seventh,3,21,female,right,donders,2021-07-08_16h04.26.034,ImageRatingTask_S2,2021.1.4,Win32,33.39121143,,,,,,,,,
,,,,,,,,,,,,0,7,7,7,1,last,3,21,female,right,donders,2021-07-08_16h04.26.034,ImageRatingTask_S2,2021.1.4,Win32,33.39121143,,,,,,,,,
,,,,,,,,,,,,,,,,,,3,21,female,right,donders,2021-07-08_16h04.26.034,ImageRatingTask_S2,2021.1.4,Win32,33.39121143,0,26,26,84,1,DreamStudyImages_rs1000x750g/Water/Garbage dump 2.jpg,,,
,,4,2.2816,2,0.3297,8,3.5603,1,0.5322,3,0.9234,0,0,0,0,1,main,3,21,female,right,donders,2021-07-08_16h04.26.034,ImageRatingTask_S2,2021.1.4,Win32,33.39121143,,,,,,,,,
,,,,,,,,,,,,0,1,1,1,1,second,3,21,female,right,donders,2021-07-08_16h04.26.034,ImageRatingTask_S2,2021.1.4,Win32,33.39121143,,,,,,,,,
,,,,,,,,,,,,0,2,2,2,1,third,3,21,female,right,donders,2021-07-08_16h04.26.034,ImageRatingTask_S2,2021.1.4,Win32,33.39121143,,,,,,,,,
,,,,,,,,,,,,0,3,3,3,1,fourth,3,21,female,right,donders,2021-07-08_16h04.26.034,ImageRatingTask_S2,2021.1.4,Win32,33.39121143,,,,,,,,,
,,,,,,,,,,,,0,4,4,4,1,fifth,3,21,female,right,donders,2021-07-08_16h04.26.034,ImageRatingTask_S2,2021.1.4,Win32,33.39121143,,,,,,,,,
,,,,,,,,,,,,0,5,5,5,1,sixth,3,21,female,right,donders,2021-07-08_16h04.26.034,ImageRatingTask_S2,2021.1.4,Win32,33.39121143,,,,,,,,,
,,,,,,,,,,,,0,6,6,6,1,seventh,3,21,female,right,donders,2021-07-08_16h04.26.034,ImageRatingTask_S2,2021.1.4,Win32,33.39121143,,,,,,,,,
,,,,,,,,,,,,0,7,7,7,1,last,3,21,female,right,donders,2021-07-08_16h04.26.034,ImageRatingTask_S2,2021.1.4,Win32,33.39121143,,,,,,,,,
,,,,,,,,,,,,,,,,,,3,21,female,right,donders,2021-07-08_16h04.26.034,ImageRatingTask_S2,2021.1.4,Win32,33.39121143,0,27,27,24,1,DreamStudyImages_rs1000x750g/Mammals/Monkey 3.jpg,,,
,,5,5.1585,1,0.5419,9,0.9179,1,0.6355,8,0.5138,0,0,0,0,1,main,3,21,female,right,donders,2021-07-08_16h04.26.034,ImageRatingTask_S2,2021.1.4,Win32,33.39121143,,,,,,,,,
,,,,,,,,,,,,0,1,1,1,1,second,3,21,female,right,donders,2021-07-08_16h04.26.034,ImageRatingTask_S2,2021.1.4,Win32,33.39121143,,,,,,,,,
,,,,,,,,,,,,0,2,2,2,1,third,3,21,female,right,donders,2021-07-08_16h04.26.034,ImageRatingTask_S2,2021.1.4,Win32,33.39121143,,,,,,,,,
,,,,,,,,,,,,0,3,3,3,1,fourth,3,21,female,right,donders,2021-07-08_16h04.26.034,ImageRatingTask_S2,2021.1.4,Win32,33.39121143,,,,,,,,,
,,,,,,,,,,,,0,4,4,4,1,fifth,3,21,female,right,donders,2021-07-08_16h04.26.034,ImageRatingTask_S2,2021.1.4,Win32,33.39121143,,,,,,,,,
,,,,,,,,,,,,0,5,5,5,1,sixth,3,21,female,right,donders,2021-07-08_16h04.26.034,ImageRatingTask_S2,2021.1.4,Win32,33.39121143,,,,,,,,,
,,,,,,,,,,,,0,6,6,6,1,seventh,3,21,female,right,donders,2021-07-08_16h04.26.034,ImageRatingTask_S2,2021.1.4,Win32,33.39121143,,,,,,,,,
,,,,,,,,,,,,0,7,7,7,1,last,3,21,female,right,donders,2021-07-08_16h04.26.034,ImageRatingTask_S2,2021.1.4,Win32,33.39121143,,,,,,,,,
,,,,,,,,,,,,,,,,,,3,21,female,right,donders,2021-07-08_16h04.26.034,ImageRatingTask_S2,2021.1.4,Win32,33.39121143,0,28,28,69,1,DreamStudyImages_rs1000x750g/Water/Landscapes_108_v.jpg,,,
,,5,2.7879,1,0.6801,9,3.0576,1,0.5469,5,1.684,0,0,0,0,1,main,3,21,female,right,donders,2021-07-08_16h04.26.034,ImageRatingTask_S2,2021.1.4,Win32,33.39121143,,,,,,,,,
,,,,,,,,,,,,0,1,1,1,1,second,3,21,female,right,donders,2021-07-08_16h04.26.034,ImageRatingTask_S2,2021.1.4,Win32,33.39121143,,,,,,,,,
,,,,,,,,,,,,0,2,2,2,1,third,3,21,female,right,donders,2021-07-08_16h04.26.034,ImageRatingTask_S2,2021.1.4,Win32,33.39121143,,,,,,,,,
,,,,,,,,,,,,0,3,3,3,1,fourth,3,21,female,right,donders,2021-07-08_16h04.26.034,ImageRatingTask_S2,2021.1.4,Win32,33.39121143,,,,,,,,,
,,,,,,,,,,,,0,4,4,4,1,fifth,3,21,female,right,donders,2021-07-08_16h04.26.034,ImageRatingTask_S2,2021.1.4,Win32,33.39121143,,,,,,,,,
,,,,,,,,,,,,0,5,5,5,1,sixth,3,21,female,right,donders,2021-07-08_16h04.26.034,ImageRatingTask_S2,2021.1.4,Win32,33.39121143,,,,,,,,,
,,,,,,,,,,,,0,6,6,6,1,seventh,3,21,female,right,donders,2021-07-08_16h04.26.034,ImageRatingTask_S2,2021.1.4,Win32,33.39121143,,,,,,,,,
,,,,,,,,,,,,0,7,7,7,1,last,3,21,female,right,donders,2021-07-08_16h04.26.034,ImageRatingTask_S2,2021.1.4,Win32,33.39121143,,,,,,,,,
,,,,,,,,,,,,,,,,,,3,21,female,right,donders,2021-07-08_16h04.26.034,ImageRatingTask_S2,2021.1.4,Win32,33.39121143,0,29,29,1,1,DreamStudyImages_rs1000x750g/Food/Objects_087_h.jpg,,,
,,5,3.1686,1,0.5365,6,5.2079,1,0.9078,3,1.1242,0,0,0,0,1,main,3,21,female,right,donders,2021-07-08_16h04.26.034,ImageRatingTask_S2,2021.1.4,Win32,33.39121143,,,,,,,,,
,,,,,,,,,,,,0,1,1,1,1,second,3,21,female,right,donders,2021-07-08_16h04.26.034,ImageRatingTask_S2,2021.1.4,Win32,33.39121143,,,,,,,,,
,,,,,,,,,,,,0,2,2,2,1,third,3,21,female,right,donders,2021-07-08_16h04.26.034,ImageRatingTask_S2,2021.1.4,Win32,33.39121143,,,,,,,,,
,,,,,,,,,,,,0,3,3,3,1,fourth,3,21,female,right,donders,2021-07-08_16h04.26.034,ImageRatingTask_S2,2021.1.4,Win32,33.39121143,,,,,,,,,
,,,,,,,,,,,,0,4,4,4,1,fifth,3,21,female,right,donders,2021-07-08_16h04.26.034,ImageRatingTask_S2,2021.1.4,Win32,33.39121143,,,,,,,,,
,,,,,,,,,,,,0,5,5,5,1,sixth,3,21,female,right,donders,2021-07-08_16h04.26.034,ImageRatingTask_S2,2021.1.4,Win32,33.39121143,,,,,,,,,
,,,,,,,,,,,,0,6,6,6,1,seventh,3,21,female,right,donders,2021-07-08_16h04.26.034,ImageRatingTask_S2,2021.1.4,Win32,33.39121143,,,,,,,,,
,,,,,,,,,,,,0,7,7,7,1,last,3,21,female,right,donders,2021-07-08_16h04.26.034,ImageRatingTask_S2,2021.1.4,Win32,33.39121143,,,,,,,,,
,,,,,,,,,,,,,,,,,,3,21,female,right,donders,2021-07-08_16h04.26.034,ImageRatingTask_S2,2021.1.4,Win32,33.39121143,0,30,30,32,1,DreamStudyImages_rs1000x750g/Mammals/IAPS1540_cat.jpg,,,
,,6,3.53,4,1.335,7,54.0517,1,1.1403,5,0.8755,0,0,0,0,1,main,3,21,female,right,donders,2021-07-08_16h04.26.034,ImageRatingTask_S2,2021.1.4,Win32,33.39121143,,,,,,,,,
,,,,,,,,,,,,0,1,1,1,1,second,3,21,female,right,donders,2021-07-08_16h04.26.034,ImageRatingTask_S2,2021.1.4,Win32,33.39121143,,,,,,,,,
,,,,,,,,,,,,0,2,2,2,1,third,3,21,female,right,donders,2021-07-08_16h04.26.034,ImageRatingTask_S2,2021.1.4,Win32,33.39121143,,,,,,,,,
,,,,,,,,,,,,0,3,3,3,1,fourth,3,21,female,right,donders,2021-07-08_16h04.26.034,ImageRatingTask_S2,2021.1.4,Win32,33.39121143,,,,,,,,,
,,,,,,,,,,,,0,4,4,4,1,fifth,3,21,female,right,donders,2021-07-08_16h04.26.034,ImageRatingTask_S2,2021.1.4,Win32,33.39121143,,,,,,,,,
,,,,,,,,,,,,0,5,5,5,1,sixth,3,21,female,right,donders,2021-07-08_16h04.26.034,ImageRatingTask_S2,2021.1.4,Win32,33.39121143,,,,,,,,,
,,,,,,,,,,,,0,6,6,6,1,seventh,3,21,female,right,donders,2021-07-08_16h04.26.034,ImageRatingTask_S2,2021.1.4,Win32,33.39121143,,,,,,,,,
,,,,,,,,,,,,0,7,7,7,1,last,3,21,female,right,donders,2021-07-08_16h04.26.034,ImageRatingTask_S2,2021.1.4,Win32,33.39121143,,,,,,,,,
,,,,,,,,,,,,,,,,,,3,21,female,right,donders,2021-07-08_16h04.26.034,ImageRatingTask_S2,2021.1.4,Win32,33.39121143,0,31,31,81,1,DreamStudyImages_rs1000x750g/Food/IAPS7475_curry.jpg,,,
,,5,1.5307,1,0.3434,8,1.297,1,0.5917,5,1.15,0,0,0,0,1,main,3,21,female,right,donders,2021-07-08_16h04.26.034,ImageRatingTask_S2,2021.1.4,Win32,33.39121143,,,,,,,,,
,,,,,,,,,,,,0,1,1,1,1,second,3,21,female,right,donders,2021-07-08_16h04.26.034,ImageRatingTask_S2,2021.1.4,Win32,33.39121143,,,,,,,,,
,,,,,,,,,,,,0,2,2,2,1,third,3,21,female,right,donders,2021-07-08_16h04.26.034,ImageRatingTask_S2,2021.1.4,Win32,33.39121143,,,,,,,,,
,,,,,,,,,,,,0,3,3,3,1,fourth,3,21,female,right,donders,2021-07-08_16h04.26.034,ImageRatingTask_S2,2021.1.4,Win32,33.39121143,,,,,,,,,
,,,,,,,,,,,,0,4,4,4,1,fifth,3,21,female,right,donders,2021-07-08_16h04.26.034,ImageRatingTask_S2,2021.1.4,Win32,33.39121143,,,,,,,,,
,,,,,,,,,,,,0,5,5,5,1,sixth,3,21,female,right,donders,2021-07-08_16h04.26.034,ImageRatingTask_S2,2021.1.4,Win32,33.39121143,,,,,,,,,
,,,,,,,,,,,,0,6,6,6,1,seventh,3,21,female,right,donders,2021-07-08_16h04.26.034,ImageRatingTask_S2,2021.1.4,Win32,33.39121143,,,,,,,,,
,,,,,,,,,,,,0,7,7,7,1,last,3,21,female,right,donders,2021-07-08_16h04.26.034,ImageRatingTask_S2,2021.1.4,Win32,33.39121143,,,,,,,,,
,,,,,,,,,,,,,,,,,,3,21,female,right,donders,2021-07-08_16h04.26.034,ImageRatingTask_S2,2021.1.4,Win32,33.39121143,0,32,32,150,1,DreamStudyImages_rs1000x750g/Food/Objects_098_v.jpg,,,
,,6,2.9645,3,0.9091,8,2.9585,1,0.6256,2,1.7904,0,0,0,0,1,main,3,21,female,right,donders,2021-07-08_16h04.26.034,ImageRatingTask_S2,2021.1.4,Win32,33.39121143,,,,,,,,,
,,,,,,,,,,,,0,1,1,1,1,second,3,21,female,right,donders,2021-07-08_16h04.26.034,ImageRatingTask_S2,2021.1.4,Win32,33.39121143,,,,,,,,,
,,,,,,,,,,,,0,2,2,2,1,third,3,21,female,right,donders,2021-07-08_16h04.26.034,ImageRatingTask_S2,2021.1.4,Win32,33.39121143,,,,,,,,,
,,,,,,,,,,,,0,3,3,3,1,fourth,3,21,female,right,donders,2021-07-08_16h04.26.034,ImageRatingTask_S2,2021.1.4,Win32,33.39121143,,,,,,,,,
,,,,,,,,,,,,0,4,4,4,1,fifth,3,21,female,right,donders,2021-07-08_16h04.26.034,ImageRatingTask_S2,2021.1.4,Win32,33.39121143,,,,,,,,,
,,,,,,,,,,,,0,5,5,5,1,sixth,3,21,female,right,donders,2021-07-08_16h04.26.034,ImageRatingTask_S2,2021.1.4,Win32,33.39121143,,,,,,,,,
,,,,,,,,,,,,0,6,6,6,1,seventh,3,21,female,right,donders,2021-07-08_16h04.26.034,ImageRatingTask_S2,2021.1.4,Win32,33.39121143,,,,,,,,,
,,,,,,,,,,,,0,7,7,7,1,last,3,21,female,right,donders,2021-07-08_16h04.26.034,ImageRatingTask_S2,2021.1.4,Win32,33.39121143,,,,,,,,,
,,,,,,,,,,,,,,,,,,3,21,female,right,donders,2021-07-08_16h04.26.034,ImageRatingTask_S2,2021.1.4,Win32,33.39121143,0,33,33,67,1,DreamStudyImages_rs1000x750g/Children/Excited face 5.jpg,,,
,,6,2.2257,2,0.2937,7,2.9916,1,1.85,2,0.5948,0,0,0,0,1,main,3,21,female,right,donders,2021-07-08_16h04.26.034,ImageRatingTask_S2,2021.1.4,Win32,33.39121143,,,,,,,,,
,,,,,,,,,,,,0,1,1,1,1,second,3,21,female,right,donders,2021-07-08_16h04.26.034,ImageRatingTask_S2,2021.1.4,Win32,33.39121143,,,,,,,,,
,,,,,,,,,,,,0,2,2,2,1,third,3,21,female,right,donders,2021-07-08_16h04.26.034,ImageRatingTask_S2,2021.1.4,Win32,33.39121143,,,,,,,,,
,,,,,,,,,,,,0,3,3,3,1,fourth,3,21,female,right,donders,2021-07-08_16h04.26.034,ImageRatingTask_S2,2021.1.4,Win32,33.39121143,,,,,,,,,
,,,,,,,,,,,,0,4,4,4,1,fifth,3,21,female,right,donders,2021-07-08_16h04.26.034,ImageRatingTask_S2,2021.1.4,Win32,33.39121143,,,,,,,,,
,,,,,,,,,,,,0,5,5,5,1,sixth,3,21,female,right,donders,2021-07-08_16h04.26.034,ImageRatingTask_S2,2021.1.4,Win32,33.39121143,,,,,,,,,
,,,,,,,,,,,,0,6,6,6,1,seventh,3,21,female,right,donders,2021-07-08_16h04.26.034,ImageRatingTask_S2,2021.1.4,Win32,33.39121143,,,,,,,,,
,,,,,,,,,,,,0,7,7,7,1,last,3,21,female,right,donders,2021-07-08_16h04.26.034,ImageRatingTask_S2,2021.1.4,Win32,33.39121143,,,,,,,,,
,,,,,,,,,,,,,,,,,,3,21,female,right,donders,2021-07-08_16h04.26.034,ImageRatingTask_S2,2021.1.4,Win32,33.39121143,0,34,34,11,1,DreamStudyImages_rs1000x750g/Children/IAPS2442_child3.jpg,,,
,,5,2.2588,1,1.0417,9,6.8637,1,0.6096,1,2.645,0,0,0,0,1,main,3,21,female,right,donders,2021-07-08_16h04.26.034,ImageRatingTask_S2,2021.1.4,Win32,33.39121143,,,,,,,,,
,,,,,,,,,,,,0,1,1,1,1,second,3,21,female,right,donders,2021-07-08_16h04.26.034,ImageRatingTask_S2,2021.1.4,Win32,33.39121143,,,,,,,,,
,,,,,,,,,,,,0,2,2,2,1,third,3,21,female,right,donders,2021-07-08_16h04.26.034,ImageRatingTask_S2,2021.1.4,Win32,33.39121143,,,,,,,,,
,,,,,,,,,,,,0,3,3,3,1,fourth,3,21,female,right,donders,2021-07-08_16h04.26.034,ImageRatingTask_S2,2021.1.4,Win32,33.39121143,,,,,,,,,
,,,,,,,,,,,,0,4,4,4,1,fifth,3,21,female,right,donders,2021-07-08_16h04.26.034,ImageRatingTask_S2,2021.1.4,Win32,33.39121143,,,,,,,,,
,,,,,,,,,,,,0,5,5,5,1,sixth,3,21,female,right,donders,2021-07-08_16h04.26.034,ImageRatingTask_S2,2021.1.4,Win32,33.39121143,,,,,,,,,
,,,,,,,,,,,,0,6,6,6,1,seventh,3,21,female,right,donders,2021-07-08_16h04.26.034,ImageRatingTask_S2,2021.1.4,Win32,33.39121143,,,,,,,,,
,,,,,,,,,,,,0,7,7,7,1,last,3,21,female,right,donders,2021-07-08_16h04.26.034,ImageRatingTask_S2,2021.1.4,Win32,33.39121143,,,,,,,,,
,,,,,,,,,,,,,,,,,,3,21,female,right,donders,2021-07-08_16h04.26.034,ImageRatingTask_S2,2021.1.4,Win32,33.39121143,0,35,35,42,1,DreamStudyImages_rs1000x750g/Children/Faces_259_v.jpg,,,
,,5,4.0871,1,0.7926,6,2.0059,1,2.2603,6,0.6999,0,0,0,0,1,main,3,21,female,right,donders,2021-07-08_16h04.26.034,ImageRatingTask_S2,2021.1.4,Win32,33.39121143,,,,,,,,,
,,,,,,,,,,,,0,1,1,1,1,second,3,21,female,right,donders,2021-07-08_16h04.26.034,ImageRatingTask_S2,2021.1.4,Win32,33.39121143,,,,,,,,,
,,,,,,,,,,,,0,2,2,2,1,third,3,21,female,right,donders,2021-07-08_16h04.26.034,ImageRatingTask_S2,2021.1.4,Win32,33.39121143,,,,,,,,,
,,,,,,,,,,,,0,3,3,3,1,fourth,3,21,female,right,donders,2021-07-08_16h04.26.034,ImageRatingTask_S2,2021.1.4,Win32,33.39121143,,,,,,,,,
,,,,,,,,,,,,0,4,4,4,1,fifth,3,21,female,right,donders,2021-07-08_16h04.26.034,ImageRatingTask_S2,2021.1.4,Win32,33.39121143,,,,,,,,,
,,,,,,,,,,,,0,5,5,5,1,sixth,3,21,female,right,donders,2021-07-08_16h04.26.034,ImageRatingTask_S2,2021.1.4,Win32,33.39121143,,,,,,,,,
,,,,,,,,,,,,0,6,6,6,1,seventh,3,21,female,right,donders,2021-07-08_16h04.26.034,ImageRatingTask_S2,2021.1.4,Win32,33.39121143,,,,,,,,,
,,,,,,,,,,,,0,7,7,7,1,last,3,21,female,right,donders,2021-07-08_16h04.26.034,ImageRatingTask_S2,2021.1.4,Win32,33.39121143,,,,,,,,,
,,,,,,,,,,,,,,,,,,3,21,female,right,donders,2021-07-08_16h04.26.034,ImageRatingTask_S2,2021.1.4,Win32,33.39121143,0,36,36,12,1,DreamStudyImages_rs1000x750g/Houses/Bar 2.jpg,,,
,,5,1.5877,1,0.4127,8,1.1375,1,1.129,8,0.6734,0,0,0,0,1,main,3,21,female,right,donders,2021-07-08_16h04.26.034,ImageRatingTask_S2,2021.1.4,Win32,33.39121143,,,,,,,,,
,,,,,,,,,,,,0,1,1,1,1,second,3,21,female,right,donders,2021-07-08_16h04.26.034,ImageRatingTask_S2,2021.1.4,Win32,33.39121143,,,,,,,,,
,,,,,,,,,,,,0,2,2,2,1,third,3,21,female,right,donders,2021-07-08_16h04.26.034,ImageRatingTask_S2,2021.1.4,Win32,33.39121143,,,,,,,,,
,,,,,,,,,,,,0,3,3,3,1,fourth,3,21,female,right,donders,2021-07-08_16h04.26.034,ImageRatingTask_S2,2021.1.4,Win32,33.39121143,,,,,,,,,
,,,,,,,,,,,,0,4,4,4,1,fifth,3,21,female,right,donders,2021-07-08_16h04.26.034,ImageRatingTask_S2,2021.1.4,Win32,33.39121143,,,,,,,,,
,,,,,,,,,,,,0,5,5,5,1,sixth,3,21,female,right,donders,2021-07-08_16h04.26.034,ImageRatingTask_S2,2021.1.4,Win32,33.39121143,,,,,,,,,
,,,,,,,,,,,,0,6,6,6,1,seventh,3,21,female,right,donders,2021-07-08_16h04.26.034,ImageRatingTask_S2,2021.1.4,Win32,33.39121143,,,,,,,,,
,,,,,,,,,,,,0,7,7,7,1,last,3,21,female,right,donders,2021-07-08_16h04.26.034,ImageRatingTask_S2,2021.1.4,Win32,33.39121143,,,,,,,,,
,,,,,,,,,,,,,,,,,,3,21,female,right,donders,2021-07-08_16h04.26.034,ImageRatingTask_S2,2021.1.4,Win32,33.39121143,0,37,37,88,1,DreamStudyImages_rs1000x750g/Water/5210.jpg,,,
,,5,5.6767,1,0.5619,9,1.5248,1,1.3765,8,0.6089,0,0,0,0,1,main,3,21,female,right,donders,2021-07-08_16h04.26.034,ImageRatingTask_S2,2021.1.4,Win32,33.39121143,,,,,,,,,
,,,,,,,,,,,,0,1,1,1,1,second,3,21,female,right,donders,2021-07-08_16h04.26.034,ImageRatingTask_S2,2021.1.4,Win32,33.39121143,,,,,,,,,
,,,,,,,,,,,,0,2,2,2,1,third,3,21,female,right,donders,2021-07-08_16h04.26.034,ImageRatingTask_S2,2021.1.4,Win32,33.39121143,,,,,,,,,
,,,,,,,,,,,,0,3,3,3,1,fourth,3,21,female,right,donders,2021-07-08_16h04.26.034,ImageRatingTask_S2,2021.1.4,Win32,33.39121143,,,,,,,,,
,,,,,,,,,,,,0,4,4,4,1,fifth,3,21,female,right,donders,2021-07-08_16h04.26.034,ImageRatingTask_S2,2021.1.4,Win32,33.39121143,,,,,,,,,
,,,,,,,,,,,,0,5,5,5,1,sixth,3,21,female,right,donders,2021-07-08_16h04.26.034,ImageRatingTask_S2,2021.1.4,Win32,33.39121143,,,,,,,,,
,,,,,,,,,,,,0,6,6,6,1,seventh,3,21,female,right,donders,2021-07-08_16h04.26.034,ImageRatingTask_S2,2021.1.4,Win32,33.39121143,,,,,,,,,
,,,,,,,,,,,,0,7,7,7,1,last,3,21,female,right,donders,2021-07-08_16h04.26.034,ImageRatingTask_S2,2021.1.4,Win32,33.39121143,,,,,,,,,
,,,,,,,,,,,,,,,,,,3,21,female,right,donders,2021-07-08_16h04.26.034,ImageRatingTask_S2,2021.1.4,Win32,33.39121143,0,38,38,77,1,DreamStudyImages_rs1000x750g/Water/Landscapes_111_h.jpg,,,
,,6,3.0987,2,0.7795,8,2.2113,2,16.7227,2,1.6551,0,0,0,0,1,main,3,21,female,right,donders,2021-07-08_16h04.26.034,ImageRatingTask_S2,2021.1.4,Win32,33.39121143,,,,,,,,,
,,,,,,,,,,1,0.5563,0,1,1,1,1,second,3,21,female,right,donders,2021-07-08_16h04.26.034,ImageRatingTask_S2,2021.1.4,Win32,33.39121143,,,,,,,,,
,,,,,,,,,,,,0,2,2,2,1,third,3,21,female,right,donders,2021-07-08_16h04.26.034,ImageRatingTask_S2,2021.1.4,Win32,33.39121143,,,,,,,,,
,,,,,,,,,,,,0,3,3,3,1,fourth,3,21,female,right,donders,2021-07-08_16h04.26.034,ImageRatingTask_S2,2021.1.4,Win32,33.39121143,,,,,,,,,
,,,,,,,,,,,,0,4,4,4,1,fifth,3,21,female,right,donders,2021-07-08_16h04.26.034,ImageRatingTask_S2,2021.1.4,Win32,33.39121143,,,,,,,,,
,,,,,,,,,,,,0,5,5,5,1,sixth,3,21,female,right,donders,2021-07-08_16h04.26.034,ImageRatingTask_S2,2021.1.4,Win32,33.39121143,,,,,,,,,
,,,,,,,,,,,,0,6,6,6,1,seventh,3,21,female,right,donders,2021-07-08_16h04.26.034,ImageRatingTask_S2,2021.1.4,Win32,33.39121143,,,,,,,,,
,,,,,,,,,,,,0,7,7,7,1,last,3,21,female,right,donders,2021-07-08_16h04.26.034,ImageRatingTask_S2,2021.1.4,Win32,33.39121143,,,,,,,,,
,,,,,,,,,,,,,,,,,,3,21,female,right,donders,2021-07-08_16h04.26.034,ImageRatingTask_S2,2021.1.4,Win32,33.39121143,0,39,39,141,1,DreamStudyImages_rs1000x750g/Children/Faces_104_h.jpg,,,
,,5,6.7598,1,0.4119,6,1.671,1,1.3645,5,1.2448,0,0,0,0,1,main,3,21,female,right,donders,2021-07-08_16h04.26.034,ImageRatingTask_S2,2021.1.4,Win32,33.39121143,,,,,,,,,
,,,,,,,,,,,,0,1,1,1,1,second,3,21,female,right,donders,2021-07-08_16h04.26.034,ImageRatingTask_S2,2021.1.4,Win32,33.39121143,,,,,,,,,
,,,,,,,,,,,,0,2,2,2,1,third,3,21,female,right,donders,2021-07-08_16h04.26.034,ImageRatingTask_S2,2021.1.4,Win32,33.39121143,,,,,,,,,
,,,,,,,,,,,,0,3,3,3,1,fourth,3,21,female,right,donders,2021-07-08_16h04.26.034,ImageRatingTask_S2,2021.1.4,Win32,33.39121143,,,,,,,,,
,,,,,,,,,,,,0,4,4,4,1,fifth,3,21,female,right,donders,2021-07-08_16h04.26.034,ImageRatingTask_S2,2021.1.4,Win32,33.39121143,,,,,,,,,
,,,,,,,,,,,,0,5,5,5,1,sixth,3,21,female,right,donders,2021-07-08_16h04.26.034,ImageRatingTask_S2,2021.1.4,Win32,33.39121143,,,,,,,,,
,,,,,,,,,,,,0,6,6,6,1,seventh,3,21,female,right,donders,2021-07-08_16h04.26.034,ImageRatingTask_S2,2021.1.4,Win32,33.39121143,,,,,,,,,
,,,,,,,,,,,,0,7,7,7,1,last,3,21,female,right,donders,2021-07-08_16h04.26.034,ImageRatingTask_S2,2021.1.4,Win32,33.39121143,,,,,,,,,
,,,,,,,,,,,,,,,,,,3,21,female,right,donders,2021-07-08_16h04.26.034,ImageRatingTask_S2,2021.1.4,Win32,33.39121143,0,40,40,38,1,DreamStudyImages_rs1000x750g/Food/IAPS7220_pastries.jpg,,,
,,4,4.7805,2,0.3764,8,1.9816,1,3.913,4,1.9683,0,0,0,0,1,main,3,21,female,right,donders,2021-07-08_16h04.26.034,ImageRatingTask_S2,2021.1.4,Win32,33.39121143,,,,,,,,,
,,,,,,,,,,,,0,1,1,1,1,second,3,21,female,right,donders,2021-07-08_16h04.26.034,ImageRatingTask_S2,2021.1.4,Win32,33.39121143,,,,,,,,,
,,,,,,,,,,,,0,2,2,2,1,third,3,21,female,right,donders,2021-07-08_16h04.26.034,ImageRatingTask_S2,2021.1.4,Win32,33.39121143,,,,,,,,,
,,,,,,,,,,,,0,3,3,3,1,fourth,3,21,female,right,donders,2021-07-08_16h04.26.034,ImageRatingTask_S2,2021.1.4,Win32,33.39121143,,,,,,,,,
,,,,,,,,,,,,0,4,4,4,1,fifth,3,21,female,right,donders,2021-07-08_16h04.26.034,ImageRatingTask_S2,2021.1.4,Win32,33.39121143,,,,,,,,,
,,,,,,,,,,,,0,5,5,5,1,sixth,3,21,female,right,donders,2021-07-08_16h04.26.034,ImageRatingTask_S2,2021.1.4,Win32,33.39121143,,,,,,,,,
,,,,,,,,,,,,0,6,6,6,1,seventh,3,21,female,right,donders,2021-07-08_16h04.26.034,ImageRatingTask_S2,2021.1.4,Win32,33.39121143,,,,,,,,,
,,,,,,,,,,,,0,7,7,7,1,last,3,21,female,right,donders,2021-07-08_16h04.26.034,ImageRatingTask_S2,2021.1.4,Win32,33.39121143,,,,,,,,,
,,,,,,,,,,,,,,,,,,3,21,female,right,donders,2021-07-08_16h04.26.034,ImageRatingTask_S2,2021.1.4,Win32,33.39121143,0,41,41,142,1,DreamStudyImages_rs1000x750g/Food/Objects_088_h.jpg,,,
,,7,2.7114,4,0.9982,9,1.2132,1,1.3762,3,1.8308,0,0,0,0,1,main,3,21,female,right,donders,2021-07-08_16h04.26.034,ImageRatingTask_S2,2021.1.4,Win32,33.39121143,,,,,,,,,
,,,,,,,,,,,,0,1,1,1,1,second,3,21,female,right,donders,2021-07-08_16h04.26.034,ImageRatingTask_S2,2021.1.4,Win32,33.39121143,,,,,,,,,
,,,,,,,,,,,,0,2,2,2,1,third,3,21,female,right,donders,2021-07-08_16h04.26.034,ImageRatingTask_S2,2021.1.4,Win32,33.39121143,,,,,,,,,
,,,,,,,,,,,,0,3,3,3,1,fourth,3,21,female,right,donders,2021-07-08_16h04.26.034,ImageRatingTask_S2,2021.1.4,Win32,33.39121143,,,,,,,,,
,,,,,,,,,,,,0,4,4,4,1,fifth,3,21,female,right,donders,2021-07-08_16h04.26.034,ImageRatingTask_S2,2021.1.4,Win32,33.39121143,,,,,,,,,
,,,,,,,,,,,,0,5,5,5,1,sixth,3,21,female,right,donders,2021-07-08_16h04.26.034,ImageRatingTask_S2,2021.1.4,Win32,33.39121143,,,,,,,,,
,,,,,,,,,,,,0,6,6,6,1,seventh,3,21,female,right,donders,2021-07-08_16h04.26.034,ImageRatingTask_S2,2021.1.4,Win32,33.39121143,,,,,,,,,
,,,,,,,,,,,,0,7,7,7,1,last,3,21,female,right,donders,2021-07-08_16h04.26.034,ImageRatingTask_S2,2021.1.4,Win32,33.39121143,,,,,,,,,
,,,,,,,,,,,,,,,,,,3,21,female,right,donders,2021-07-08_16h04.26.034,ImageRatingTask_S2,2021.1.4,Win32,33.39121143,0,42,42,2,1,DreamStudyImages_rs1000x750g/Mammals/Animals_158_h.jpg,,,
,,6,10.6694,2,0.3645,8,2.2415,1,0.9425,5,1.0336,0,0,0,0,1,main,3,21,female,right,donders,2021-07-08_16h04.26.034,ImageRatingTask_S2,2021.1.4,Win32,33.39121143,,,,,,,,,
,,,,,,,,,,,,0,1,1,1,1,second,3,21,female,right,donders,2021-07-08_16h04.26.034,ImageRatingTask_S2,2021.1.4,Win32,33.39121143,,,,,,,,,
,,,,,,,,,,,,0,2,2,2,1,third,3,21,female,right,donders,2021-07-08_16h04.26.034,ImageRatingTask_S2,2021.1.4,Win32,33.39121143,,,,,,,,,
,,,,,,,,,,,,0,3,3,3,1,fourth,3,21,female,right,donders,2021-07-08_16h04.26.034,ImageRatingTask_S2,2021.1.4,Win32,33.39121143,,,,,,,,,
,,,,,,,,,,,,0,4,4,4,1,fifth,3,21,female,right,donders,2021-07-08_16h04.26.034,ImageRatingTask_S2,2021.1.4,Win32,33.39121143,,,,,,,,,
,,,,,,,,,,,,0,5,5,5,1,sixth,3,21,female,right,donders,2021-07-08_16h04.26.034,ImageRatingTask_S2,2021.1.4,Win32,33.39121143,,,,,,,,,
,,,,,,,,,,,,0,6,6,6,1,seventh,3,21,female,right,donders,2021-07-08_16h04.26.034,ImageRatingTask_S2,2021.1.4,Win32,33.39121143,,,,,,,,,
,,,,,,,,,,,,0,7,7,7,1,last,3,21,female,right,donders,2021-07-08_16h04.26.034,ImageRatingTask_S2,2021.1.4,Win32,33.39121143,,,,,,,,,
,,,,,,,,,,,,,,,,,,3,21,female,right,donders,2021-07-08_16h04.26.034,ImageRatingTask_S2,2021.1.4,Win32,33.39121143,0,43,43,64,1,DreamStudyImages_rs1000x750g/Food/Food 6.jpg,,,
,,5,2.1109,1,0.4002,8,0.8868,1,0.6927,5,0.794,0,0,0,0,1,main,3,21,female,right,donders,2021-07-08_16h04.26.034,ImageRatingTask_S2,2021.1.4,Win32,33.39121143,,,,,,,,,
,,,,,,,,,,,,0,1,1,1,1,second,3,21,female,right,donders,2021-07-08_16h04.26.034,ImageRatingTask_S2,2021.1.4,Win32,33.39121143,,,,,,,,,
,,,,,,,,,,,,0,2,2,2,1,third,3,21,female,right,donders,2021-07-08_16h04.26.034,ImageRatingTask_S2,2021.1.4,Win32,33.39121143,,,,,,,,,
,,,,,,,,,,,,0,3,3,3,1,fourth,3,21,female,right,donders,2021-07-08_16h04.26.034,ImageRatingTask_S2,2021.1.4,Win32,33.39121143,,,,,,,,,
,,,,,,,,,,,,0,4,4,4,1,fifth,3,21,female,right,donders,2021-07-08_16h04.26.034,ImageRatingTask_S2,2021.1.4,Win32,33.39121143,,,,,,,,,
,,,,,,,,,,,,0,5,5,5,1,sixth,3,21,female,right,donders,2021-07-08_16h04.26.034,ImageRatingTask_S2,2021.1.4,Win32,33.39121143,,,,,,,,,
,,,,,,,,,,,,0,6,6,6,1,seventh,3,21,female,right,donders,2021-07-08_16h04.26.034,ImageRatingTask_S2,2021.1.4,Win32,33.39121143,,,,,,,,,
,,,,,,,,,,,,0,7,7,7,1,last,3,21,female,right,donders,2021-07-08_16h04.26.034,ImageRatingTask_S2,2021.1.4,Win32,33.39121143,,,,,,,,,
,,,,,,,,,,,,,,,,,,3,21,female,right,donders,2021-07-08_16h04.26.034,ImageRatingTask_S2,2021.1.4,Win32,33.39121143,0,44,44,148,1,DreamStudyImages_rs1000x750g/Food/Objects_069_h.jpg,,,
,,3,4.3782,3,1.0045,9,2.7147,0,8.1311,,,0,0,0,0,1,main,3,21,female,right,donders,2021-07-08_16h04.26.034,ImageRatingTask_S2,2021.1.4,Win32,33.39121143,,,,,,,,,
,,,,,,,,,,,,0,1,1,1,1,second,3,21,female,right,donders,2021-07-08_16h04.26.034,ImageRatingTask_S2,2021.1.4,Win32,33.39121143,,,,,,,,,
,,,,,,,,,,,,0,2,2,2,1,third,3,21,female,right,donders,2021-07-08_16h04.26.034,ImageRatingTask_S2,2021.1.4,Win32,33.39121143,,,,,,,,,
,,,,,,,,,,,,0,3,3,3,1,fourth,3,21,female,right,donders,2021-07-08_16h04.26.034,ImageRatingTask_S2,2021.1.4,Win32,33.39121143,,,,,,,,,
,,,,,,,,,,,,0,4,4,4,1,fifth,3,21,female,right,donders,2021-07-08_16h04.26.034,ImageRatingTask_S2,2021.1.4,Win32,33.39121143,,,,,,,,,
,,,,,,,,,,,,0,5,5,5,1,sixth,3,21,female,right,donders,2021-07-08_16h04.26.034,ImageRatingTask_S2,2021.1.4,Win32,33.39121143,,,,,,,,,
,,,,,,,,,,,,0,6,6,6,1,seventh,3,21,female,right,donders,2021-07-08_16h04.26.034,ImageRatingTask_S2,2021.1.4,Win32,33.39121143,,,,,,,,,
,,,,,,,,,,,,0,7,7,7,1,last,3,21,female,right,donders,2021-07-08_16h04.26.034,ImageRatingTask_S2,2021.1.4,Win32,33.39121143,,,,,,,,,
,,,,,,,,,,,,,,,,,,3,21,female,right,donders,2021-07-08_16h04.26.034,ImageRatingTask_S2,2021.1.4,Win32,33.39121143,0,45,45,79,1,DreamStudyImages_rs1000x750g/Food/food_neg_3bis.jpg,,,
,,5,6.4472,1,0.5983,9,6.7476,1,5.4076,8,0.6065,0,0,0,0,1,main,3,21,female,right,donders,2021-07-08_16h04.26.034,ImageRatingTask_S2,2021.1.4,Win32,33.39121143,,,,,,,,,
,,,,,,,,,,,,0,1,1,1,1,second,3,21,female,right,donders,2021-07-08_16h04.26.034,ImageRatingTask_S2,2021.1.4,Win32,33.39121143,,,,,,,,,
,,,,,,,,,,,,0,2,2,2,1,third,3,21,female,right,donders,2021-07-08_16h04.26.034,ImageRatingTask_S2,2021.1.4,Win32,33.39121143,,,,,,,,,
,,,,,,,,,,,,0,3,3,3,1,fourth,3,21,female,right,donders,2021-07-08_16h04.26.034,ImageRatingTask_S2,2021.1.4,Win32,33.39121143,,,,,,,,,
,,,,,,,,,,,,0,4,4,4,1,fifth,3,21,female,right,donders,2021-07-08_16h04.26.034,ImageRatingTask_S2,2021.1.4,Win32,33.39121143,,,,,,,,,
,,,,,,,,,,,,0,5,5,5,1,sixth,3,21,female,right,donders,2021-07-08_16h04.26.034,ImageRatingTask_S2,2021.1.4,Win32,33.39121143,,,,,,,,,
,,,,,,,,,,,,0,6,6,6,1,seventh,3,21,female,right,donders,2021-07-08_16h04.26.034,ImageRatingTask_S2,2021.1.4,Win32,33.39121143,,,,,,,,,
,,,,,,,,,,,,0,7,7,7,1,last,3,21,female,right,donders,2021-07-08_16h04.26.034,ImageRatingTask_S2,2021.1.4,Win32,33.39121143,,,,,,,,,
,,,,,,,,,,,,,,,,,,3,21,female,right,donders,2021-07-08_16h04.26.034,ImageRatingTask_S2,2021.1.4,Win32,33.39121143,0,46,46,37,1,DreamStudyImages_rs1000x750g/Water/Rainbow 2.jpg,,,
,,5,7.0139,1,0.49,9,1.0236,0,1.4808,,,0,0,0,0,1,main,3,21,female,right,donders,2021-07-08_16h04.26.034,ImageRatingTask_S2,2021.1.4,Win32,33.39121143,,,,,,,,,
,,,,,,,,,,,,0,1,1,1,1,second,3,21,female,right,donders,2021-07-08_16h04.26.034,ImageRatingTask_S2,2021.1.4,Win32,33.39121143,,,,,,,,,
,,,,,,,,,,,,0,2,2,2,1,third,3,21,female,right,donders,2021-07-08_16h04.26.034,ImageRatingTask_S2,2021.1.4,Win32,33.39121143,,,,,,,,,
,,,,,,,,,,,,0,3,3,3,1,fourth,3,21,female,right,donders,2021-07-08_16h04.26.034,ImageRatingTask_S2,2021.1.4,Win32,33.39121143,,,,,,,,,
,,,,,,,,,,,,0,4,4,4,1,fifth,3,21,female,right,donders,2021-07-08_16h04.26.034,ImageRatingTask_S2,2021.1.4,Win32,33.39121143,,,,,,,,,
,,,,,,,,,,,,0,5,5,5,1,sixth,3,21,female,right,donders,2021-07-08_16h04.26.034,ImageRatingTask_S2,2021.1.4,Win32,33.39121143,,,,,,,,,
,,,,,,,,,,,,0,6,6,6,1,seventh,3,21,female,right,donders,2021-07-08_16h04.26.034,ImageRatingTask_S2,2021.1.4,Win32,33.39121143,,,,,,,,,
,,,,,,,,,,,,0,7,7,7,1,last,3,21,female,right,donders,2021-07-08_16h04.26.034,ImageRatingTask_S2,2021.1.4,Win32,33.39121143,,,,,,,,,
,,,,,,,,,,,,,,,,,,3,21,female,right,donders,2021-07-08_16h04.26.034,ImageRatingTask_S2,2021.1.4,Win32,33.39121143,0,47,47,14,1,DreamStudyImages_rs1000x750g/Houses/Landscapes_093_h.jpg,,,
,,6,1.9423,2,0.4701,9,1.0253,1,1.008,2,0.9892,0,0,0,0,1,main,3,21,female,right,donders,2021-07-08_16h04.26.034,ImageRatingTask_S2,2021.1.4,Win32,33.39121143,,,,,,,,,
,,,,,,,,,,,,0,1,1,1,1,second,3,21,female,right,donders,2021-07-08_16h04.26.034,ImageRatingTask_S2,2021.1.4,Win32,33.39121143,,,,,,,,,
,,,,,,,,,,,,0,2,2,2,1,third,3,21,female,right,donders,2021-07-08_16h04.26.034,ImageRatingTask_S2,2021.1.4,Win32,33.39121143,,,,,,,,,
,,,,,,,,,,,,0,3,3,3,1,fourth,3,21,female,right,donders,2021-07-08_16h04.26.034,ImageRatingTask_S2,2021.1.4,Win32,33.39121143,,,,,,,,,
,,,,,,,,,,,,0,4,4,4,1,fifth,3,21,female,right,donders,2021-07-08_16h04.26.034,ImageRatingTask_S2,2021.1.4,Win32,33.39121143,,,,,,,,,
,,,,,,,,,,,,0,5,5,5,1,sixth,3,21,female,right,donders,2021-07-08_16h04.26.034,ImageRatingTask_S2,2021.1.4,Win32,33.39121143,,,,,,,,,
,,,,,,,,,,,,0,6,6,6,1,seventh,3,21,female,right,donders,2021-07-08_16h04.26.034,ImageRatingTask_S2,2021.1.4,Win32,33.39121143,,,,,,,,,
,,,,,,,,,,,,0,7,7,7,1,last,3,21,female,right,donders,2021-07-08_16h04.26.034,ImageRatingTask_S2,2021.1.4,Win32,33.39121143,,,,,,,,,
,,,,,,,,,,,,,,,,,,3,21,female,right,donders,2021-07-08_16h04.26.034,ImageRatingTask_S2,2021.1.4,Win32,33.39121143,0,48,48,29,1,DreamStudyImages_rs1000x750g/Children/Baby 8.jpg,,,
,,5,1.978,1,1.0229,9,1.0592,1,0.8092,6,1.0812,0,0,0,0,1,main,3,21,female,right,donders,2021-07-08_16h04.26.034,ImageRatingTask_S2,2021.1.4,Win32,33.39121143,,,,,,,,,
,,,,,,,,,,,,0,1,1,1,1,second,3,21,female,right,donders,2021-07-08_16h04.26.034,ImageRatingTask_S2,2021.1.4,Win32,33.39121143,,,,,,,,,
,,,,,,,,,,,,0,2,2,2,1,third,3,21,female,right,donders,2021-07-08_16h04.26.034,ImageRatingTask_S2,2021.1.4,Win32,33.39121143,,,,,,,,,
,,,,,,,,,,,,0,3,3,3,1,fourth,3,21,female,right,donders,2021-07-08_16h04.26.034,ImageRatingTask_S2,2021.1.4,Win32,33.39121143,,,,,,,,,
,,,,,,,,,,,,0,4,4,4,1,fifth,3,21,female,right,donders,2021-07-08_16h04.26.034,ImageRatingTask_S2,2021.1.4,Win32,33.39121143,,,,,,,,,
,,,,,,,,,,,,0,5,5,5,1,sixth,3,21,female,right,donders,2021-07-08_16h04.26.034,ImageRatingTask_S2,2021.1.4,Win32,33.39121143,,,,,,,,,
,,,,,,,,,,,,0,6,6,6,1,seventh,3,21,female,right,donders,2021-07-08_16h04.26.034,ImageRatingTask_S2,2021.1.4,Win32,33.39121143,,,,,,,,,
,,,,,,,,,,,,0,7,7,7,1,last,3,21,female,right,donders,2021-07-08_16h04.26.034,ImageRatingTask_S2,2021.1.4,Win32,33.39121143,,,,,,,,,
,,,,,,,,,,,,,,,,,,3,21,female,right,donders,2021-07-08_16h04.26.034,ImageRatingTask_S2,2021.1.4,Win32,33.39121143,0,49,49,125,1,DreamStudyImages_rs1000x750g/Houses/Landscapes_019_h.jpg,,,
,,5,9.7466,1,0.5667,9,0.8493,1,0.626,2,0.6969,0,0,0,0,1,main,3,21,female,right,donders,2021-07-08_16h04.26.034,ImageRatingTask_S2,2021.1.4,Win32,33.39121143,,,,,,,,,
,,,,,,,,,,,,0,1,1,1,1,second,3,21,female,right,donders,2021-07-08_16h04.26.034,ImageRatingTask_S2,2021.1.4,Win32,33.39121143,,,,,,,,,
,,,,,,,,,,,,0,2,2,2,1,third,3,21,female,right,donders,2021-07-08_16h04.26.034,ImageRatingTask_S2,2021.1.4,Win32,33.39121143,,,,,,,,,
,,,,,,,,,,,,0,3,3,3,1,fourth,3,21,female,right,donders,2021-07-08_16h04.26.034,ImageRatingTask_S2,2021.1.4,Win32,33.39121143,,,,,,,,,
,,,,,,,,,,,,0,4,4,4,1,fifth,3,21,female,right,donders,2021-07-08_16h04.26.034,ImageRatingTask_S2,2021.1.4,Win32,33.39121143,,,,,,,,,
,,,,,,,,,,,,0,5,5,5,1,sixth,3,21,female,right,donders,2021-07-08_16h04.26.034,ImageRatingTask_S2,2021.1.4,Win32,33.39121143,,,,,,,,,
,,,,,,,,,,,,0,6,6,6,1,seventh,3,21,female,right,donders,2021-07-08_16h04.26.034,ImageRatingTask_S2,2021.1.4,Win32,33.39121143,,,,,,,,,
,,,,,,,,,,,,0,7,7,7,1,last,3,21,female,right,donders,2021-07-08_16h04.26.034,ImageRatingTask_S2,2021.1.4,Win32,33.39121143,,,,,,,,,
,,,,,,,,,,,,,,,,,,3,21,female,right,donders,2021-07-08_16h04.26.034,ImageRatingTask_S2,2021.1.4,Win32,33.39121143,0,50,50,152,1,DreamStudyImages_rs1000x750g/Children/People_037_h_CROPPED.jpg,,,
,,5,5.8824,1,0.4748,9,5.3246,1,0.6287,2,0.5393,0,0,0,0,1,main,3,21,female,right,donders,2021-07-08_16h04.26.034,ImageRatingTask_S2,2021.1.4,Win32,33.39121143,,,,,,,,,
,,,,,,,,,,,,0,1,1,1,1,second,3,21,female,right,donders,2021-07-08_16h04.26.034,ImageRatingTask_S2,2021.1.4,Win32,33.39121143,,,,,,,,,
,,,,,,,,,,,,0,2,2,2,1,third,3,21,female,right,donders,2021-07-08_16h04.26.034,ImageRatingTask_S2,2021.1.4,Win32,33.39121143,,,,,,,,,
,,,,,,,,,,,,0,3,3,3,1,fourth,3,21,female,right,donders,2021-07-08_16h04.26.034,ImageRatingTask_S2,2021.1.4,Win32,33.39121143,,,,,,,,,
,,,,,,,,,,,,0,4,4,4,1,fifth,3,21,female,right,donders,2021-07-08_16h04.26.034,ImageRatingTask_S2,2021.1.4,Win32,33.39121143,,,,,,,,,
,,,,,,,,,,,,0,5,5,5,1,sixth,3,21,female,right,donders,2021-07-08_16h04.26.034,ImageRatingTask_S2,2021.1.4,Win32,33.39121143,,,,,,,,,
,,,,,,,,,,,,0,6,6,6,1,seventh,3,21,female,right,donders,2021-07-08_16h04.26.034,ImageRatingTask_S2,2021.1.4,Win32,33.39121143,,,,,,,,,
,,,,,,,,,,,,0,7,7,7,1,last,3,21,female,right,donders,2021-07-08_16h04.26.034,ImageRatingTask_S2,2021.1.4,Win32,33.39121143,,,,,,,,,
,,,,,,,,,,,,,,,,,,3,21,female,right,donders,2021-07-08_16h04.26.034,ImageRatingTask_S2,2021.1.4,Win32,33.39121143,0,51,51,63,1,DreamStudyImages_rs1000x750g/Children/Faces_004_h.jpg,,,
,,5,2.0202,1,0.2945,8,0.9672,1,0.5755,2,0.5102,0,0,0,0,1,main,3,21,female,right,donders,2021-07-08_16h04.26.034,ImageRatingTask_S2,2021.1.4,Win32,33.39121143,,,,,,,,,
,,,,,,,,,,,,0,1,1,1,1,second,3,21,female,right,donders,2021-07-08_16h04.26.034,ImageRatingTask_S2,2021.1.4,Win32,33.39121143,,,,,,,,,
,,,,,,,,,,,,0,2,2,2,1,third,3,21,female,right,donders,2021-07-08_16h04.26.034,ImageRatingTask_S2,2021.1.4,Win32,33.39121143,,,,,,,,,
,,,,,,,,,,,,0,3,3,3,1,fourth,3,21,female,right,donders,2021-07-08_16h04.26.034,ImageRatingTask_S2,2021.1.4,Win32,33.39121143,,,,,,,,,
,,,,,,,,,,,,0,4,4,4,1,fifth,3,21,female,right,donders,2021-07-08_16h04.26.034,ImageRatingTask_S2,2021.1.4,Win32,33.39121143,,,,,,,,,
,,,,,,,,,,,,0,5,5,5,1,sixth,3,21,female,right,donders,2021-07-08_16h04.26.034,ImageRatingTask_S2,2021.1.4,Win32,33.39121143,,,,,,,,,
,,,,,,,,,,,,0,6,6,6,1,seventh,3,21,female,right,donders,2021-07-08_16h04.26.034,ImageRatingTask_S2,2021.1.4,Win32,33.39121143,,,,,,,,,
,,,,,,,,,,,,0,7,7,7,1,last,3,21,female,right,donders,2021-07-08_16h04.26.034,ImageRatingTask_S2,2021.1.4,Win32,33.39121143,,,,,,,,,
,,,,,,,,,,,,,,,,,,3,21,female,right,donders,2021-07-08_16h04.26.034,ImageRatingTask_S2,2021.1.4,Win32,33.39121143,0,52,52,140,1,DreamStudyImages_rs1000x750g/Children/Faces_044_h.jpg,,,
,,5,1.8673,1,0.4367,9,1.292,1,1.0972,6,0.6318,0,0,0,0,1,main,3,21,female,right,donders,2021-07-08_16h04.26.034,ImageRatingTask_S2,2021.1.4,Win32,33.39121143,,,,,,,,,
,,,,,,,,,,,,0,1,1,1,1,second,3,21,female,right,donders,2021-07-08_16h04.26.034,ImageRatingTask_S2,2021.1.4,Win32,33.39121143,,,,,,,,,
,,,,,,,,,,,,0,2,2,2,1,third,3,21,female,right,donders,2021-07-08_16h04.26.034,ImageRatingTask_S2,2021.1.4,Win32,33.39121143,,,,,,,,,
,,,,,,,,,,,,0,3,3,3,1,fourth,3,21,female,right,donders,2021-07-08_16h04.26.034,ImageRatingTask_S2,2021.1.4,Win32,33.39121143,,,,,,,,,
,,,,,,,,,,,,0,4,4,4,1,fifth,3,21,female,right,donders,2021-07-08_16h04.26.034,ImageRatingTask_S2,2021.1.4,Win32,33.39121143,,,,,,,,,
,,,,,,,,,,,,0,5,5,5,1,sixth,3,21,female,right,donders,2021-07-08_16h04.26.034,ImageRatingTask_S2,2021.1.4,Win32,33.39121143,,,,,,,,,
,,,,,,,,,,,,0,6,6,6,1,seventh,3,21,female,right,donders,2021-07-08_16h04.26.034,ImageRatingTask_S2,2021.1.4,Win32,33.39121143,,,,,,,,,
,,,,,,,,,,,,0,7,7,7,1,last,3,21,female,right,donders,2021-07-08_16h04.26.034,ImageRatingTask_S2,2021.1.4,Win32,33.39121143,,,,,,,,,
,,,,,,,,,,,,,,,,,,3,21,female,right,donders,2021-07-08_16h04.26.034,ImageRatingTask_S2,2021.1.4,Win32,33.39121143,0,53,53,18,1,DreamStudyImages_rs1000x750g/Houses/Landscapes_065_h.jpg,,,
,,6,2.081,2,0.7919,8,3.0202,1,0.648,3,1.1844,0,0,0,0,1,main,3,21,female,right,donders,2021-07-08_16h04.26.034,ImageRatingTask_S2,2021.1.4,Win32,33.39121143,,,,,,,,,
,,,,,,,,,,,,0,1,1,1,1,second,3,21,female,right,donders,2021-07-08_16h04.26.034,ImageRatingTask_S2,2021.1.4,Win32,33.39121143,,,,,,,,,
,,,,,,,,,,,,0,2,2,2,1,third,3,21,female,right,donders,2021-07-08_16h04.26.034,ImageRatingTask_S2,2021.1.4,Win32,33.39121143,,,,,,,,,
,,,,,,,,,,,,0,3,3,3,1,fourth,3,21,female,right,donders,2021-07-08_16h04.26.034,ImageRatingTask_S2,2021.1.4,Win32,33.39121143,,,,,,,,,
,,,,,,,,,,,,0,4,4,4,1,fifth,3,21,female,right,donders,2021-07-08_16h04.26.034,ImageRatingTask_S2,2021.1.4,Win32,33.39121143,,,,,,,,,
,,,,,,,,,,,,0,5,5,5,1,sixth,3,21,female,right,donders,2021-07-08_16h04.26.034,ImageRatingTask_S2,2021.1.4,Win32,33.39121143,,,,,,,,,
,,,,,,,,,,,,0,6,6,6,1,seventh,3,21,female,right,donders,2021-07-08_16h04.26.034,ImageRatingTask_S2,2021.1.4,Win32,33.39121143,,,,,,,,,
,,,,,,,,,,,,0,7,7,7,1,last,3,21,female,right,donders,2021-07-08_16h04.26.034,ImageRatingTask_S2,2021.1.4,Win32,33.39121143,,,,,,,,,
,,,,,,,,,,,,,,,,,,3,21,female,right,donders,2021-07-08_16h04.26.034,ImageRatingTask_S2,2021.1.4,Win32,33.39121143,0,54,54,96,1,DreamStudyImages_rs1000x750g/Mammals/Cat 10.jpg,,,
,,4,6.9599,3,0.4131,8,2.7913,2,5.3079,2,1.5904,0,0,0,0,1,main,3,21,female,right,donders,2021-07-08_16h04.26.034,ImageRatingTask_S2,2021.1.4,Win32,33.39121143,,,,,,,,,
,,,,,,,,,,1,0.2783,0,1,1,1,1,second,3,21,female,right,donders,2021-07-08_16h04.26.034,ImageRatingTask_S2,2021.1.4,Win32,33.39121143,,,,,,,,,
,,,,,,,,,,,,0,2,2,2,1,third,3,21,female,right,donders,2021-07-08_16h04.26.034,ImageRatingTask_S2,2021.1.4,Win32,33.39121143,,,,,,,,,
,,,,,,,,,,,,0,3,3,3,1,fourth,3,21,female,right,donders,2021-07-08_16h04.26.034,ImageRatingTask_S2,2021.1.4,Win32,33.39121143,,,,,,,,,
,,,,,,,,,,,,0,4,4,4,1,fifth,3,21,female,right,donders,2021-07-08_16h04.26.034,ImageRatingTask_S2,2021.1.4,Win32,33.39121143,,,,,,,,,
,,,,,,,,,,,,0,5,5,5,1,sixth,3,21,female,right,donders,2021-07-08_16h04.26.034,ImageRatingTask_S2,2021.1.4,Win32,33.39121143,,,,,,,,,
,,,,,,,,,,,,0,6,6,6,1,seventh,3,21,female,right,donders,2021-07-08_16h04.26.034,ImageRatingTask_S2,2021.1.4,Win32,33.39121143,,,,,,,,,
,,,,,,,,,,,,0,7,7,7,1,last,3,21,female,right,donders,2021-07-08_16h04.26.034,ImageRatingTask_S2,2021.1.4,Win32,33.39121143,,,,,,,,,
,,,,,,,,,,,,,,,,,,3,21,female,right,donders,2021-07-08_16h04.26.034,ImageRatingTask_S2,2021.1.4,Win32,33.39121143,0,55,55,85,1,DreamStudyImages_rs1000x750g/Children/Faces_009_h.jpg,,,
,,5,2.1419,1,0.29,5,0.2476,1,10.1402,5,0.9334,0,0,0,0,1,main,3,21,female,right,donders,2021-07-08_16h04.26.034,ImageRatingTask_S2,2021.1.4,Win32,33.39121143,,,,,,,,,
,,,,,,,,,,,,0,1,1,1,1,second,3,21,female,right,donders,2021-07-08_16h04.26.034,ImageRatingTask_S2,2021.1.4,Win32,33.39121143,,,,,,,,,
,,,,,,,,,,,,0,2,2,2,1,third,3,21,female,right,donders,2021-07-08_16h04.26.034,ImageRatingTask_S2,2021.1.4,Win32,33.39121143,,,,,,,,,
,,,,,,,,,,,,0,3,3,3,1,fourth,3,21,female,right,donders,2021-07-08_16h04.26.034,ImageRatingTask_S2,2021.1.4,Win32,33.39121143,,,,,,,,,
,,,,,,,,,,,,0,4,4,4,1,fifth,3,21,female,right,donders,2021-07-08_16h04.26.034,ImageRatingTask_S2,2021.1.4,Win32,33.39121143,,,,,,,,,
,,,,,,,,,,,,0,5,5,5,1,sixth,3,21,female,right,donders,2021-07-08_16h04.26.034,ImageRatingTask_S2,2021.1.4,Win32,33.39121143,,,,,,,,,
,,,,,,,,,,,,0,6,6,6,1,seventh,3,21,female,right,donders,2021-07-08_16h04.26.034,ImageRatingTask_S2,2021.1.4,Win32,33.39121143,,,,,,,,,
,,,,,,,,,,,,0,7,7,7,1,last,3,21,female,right,donders,2021-07-08_16h04.26.034,ImageRatingTask_S2,2021.1.4,Win32,33.39121143,,,,,,,,,
,,,,,,,,,,,,,,,,,,3,21,female,right,donders,2021-07-08_16h04.26.034,ImageRatingTask_S2,2021.1.4,Win32,33.39121143,0,56,56,99,1,DreamStudyImages_rs1000x750g/Food/Objects_082_h.jpg,,,
,,5,3.8052,1,0.3879,9,2.2291,1,1.8918,3,1.3399,0,0,0,0,1,main,3,21,female,right,donders,2021-07-08_16h04.26.034,ImageRatingTask_S2,2021.1.4,Win32,33.39121143,,,,,,,,,
,,,,,,,,,,,,0,1,1,1,1,second,3,21,female,right,donders,2021-07-08_16h04.26.034,ImageRatingTask_S2,2021.1.4,Win32,33.39121143,,,,,,,,,
,,,,,,,,,,,,0,2,2,2,1,third,3,21,female,right,donders,2021-07-08_16h04.26.034,ImageRatingTask_S2,2021.1.4,Win32,33.39121143,,,,,,,,,
,,,,,,,,,,,,0,3,3,3,1,fourth,3,21,female,right,donders,2021-07-08_16h04.26.034,ImageRatingTask_S2,2021.1.4,Win32,33.39121143,,,,,,,,,
,,,,,,,,,,,,0,4,4,4,1,fifth,3,21,female,right,donders,2021-07-08_16h04.26.034,ImageRatingTask_S2,2021.1.4,Win32,33.39121143,,,,,,,,,
,,,,,,,,,,,,0,5,5,5,1,sixth,3,21,female,right,donders,2021-07-08_16h04.26.034,ImageRatingTask_S2,2021.1.4,Win32,33.39121143,,,,,,,,,
,,,,,,,,,,,,0,6,6,6,1,seventh,3,21,female,right,donders,2021-07-08_16h04.26.034,ImageRatingTask_S2,2021.1.4,Win32,33.39121143,,,,,,,,,
,,,,,,,,,,,,0,7,7,7,1,last,3,21,female,right,donders,2021-07-08_16h04.26.034,ImageRatingTask_S2,2021.1.4,Win32,33.39121143,,,,,,,,,
,,,,,,,,,,,,,,,,,,3,21,female,right,donders,2021-07-08_16h04.26.034,ImageRatingTask_S2,2021.1.4,Win32,33.39121143,0,57,57,44,1,DreamStudyImages_rs1000x750g/Mammals/Animals_034_h.jpg,,,
,,4,4.9688,2,0.3851,9,1.7362,1,0.8745,7,0.7561,0,0,0,0,1,main,3,21,female,right,donders,2021-07-08_16h04.26.034,ImageRatingTask_S2,2021.1.4,Win32,33.39121143,,,,,,,,,
,,,,,,,,,,,,0,1,1,1,1,second,3,21,female,right,donders,2021-07-08_16h04.26.034,ImageRatingTask_S2,2021.1.4,Win32,33.39121143,,,,,,,,,
,,,,,,,,,,,,0,2,2,2,1,third,3,21,female,right,donders,2021-07-08_16h04.26.034,ImageRatingTask_S2,2021.1.4,Win32,33.39121143,,,,,,,,,
,,,,,,,,,,,,0,3,3,3,1,fourth,3,21,female,right,donders,2021-07-08_16h04.26.034,ImageRatingTask_S2,2021.1.4,Win32,33.39121143,,,,,,,,,
,,,,,,,,,,,,0,4,4,4,1,fifth,3,21,female,right,donders,2021-07-08_16h04.26.034,ImageRatingTask_S2,2021.1.4,Win32,33.39121143,,,,,,,,,
,,,,,,,,,,,,0,5,5,5,1,sixth,3,21,female,right,donders,2021-07-08_16h04.26.034,ImageRatingTask_S2,2021.1.4,Win32,33.39121143,,,,,,,,,
,,,,,,,,,,,,0,6,6,6,1,seventh,3,21,female,right,donders,2021-07-08_16h04.26.034,ImageRatingTask_S2,2021.1.4,Win32,33.39121143,,,,,,,,,
,,,,,,,,,,,,0,7,7,7,1,last,3,21,female,right,donders,2021-07-08_16h04.26.034,ImageRatingTask_S2,2021.1.4,Win32,33.39121143,,,,,,,,,
,,,,,,,,,,,,,,,,,,3,21,female,right,donders,2021-07-08_16h04.26.034,ImageRatingTask_S2,2021.1.4,Win32,33.39121143,0,58,58,111,1,DreamStudyImages_rs1000x750g/Vehicles/Objects_003_h.jpg,,,
,,5,3.1449,1,0.663,8,7.0618,1,0.9316,7,1.3725,0,0,0,0,1,main,3,21,female,right,donders,2021-07-08_16h04.26.034,ImageRatingTask_S2,2021.1.4,Win32,33.39121143,,,,,,,,,
,,,,,,,,,,,,0,1,1,1,1,second,3,21,female,right,donders,2021-07-08_16h04.26.034,ImageRatingTask_S2,2021.1.4,Win32,33.39121143,,,,,,,,,
,,,,,,,,,,,,0,2,2,2,1,third,3,21,female,right,donders,2021-07-08_16h04.26.034,ImageRatingTask_S2,2021.1.4,Win32,33.39121143,,,,,,,,,
,,,,,,,,,,,,0,3,3,3,1,fourth,3,21,female,right,donders,2021-07-08_16h04.26.034,ImageRatingTask_S2,2021.1.4,Win32,33.39121143,,,,,,,,,
,,,,,,,,,,,,0,4,4,4,1,fifth,3,21,female,right,donders,2021-07-08_16h04.26.034,ImageRatingTask_S2,2021.1.4,Win32,33.39121143,,,,,,,,,
,,,,,,,,,,,,0,5,5,5,1,sixth,3,21,female,right,donders,2021-07-08_16h04.26.034,ImageRatingTask_S2,2021.1.4,Win32,33.39121143,,,,,,,,,
,,,,,,,,,,,,0,6,6,6,1,seventh,3,21,female,right,donders,2021-07-08_16h04.26.034,ImageRatingTask_S2,2021.1.4,Win32,33.39121143,,,,,,,,,
,,,,,,,,,,,,0,7,7,7,1,last,3,21,female,right,donders,2021-07-08_16h04.26.034,ImageRatingTask_S2,2021.1.4,Win32,33.39121143,,,,,,,,,
,,,,,,,,,,,,,,,,,,3,21,female,right,donders,2021-07-08_16h04.26.034,ImageRatingTask_S2,2021.1.4,Win32,33.39121143,0,59,59,33,1,DreamStudyImages_rs1000x750g/Vehicles/locomotive.jpg,,,
,,5,4.8197,1,0.8655,7,4.1007,1,0.8473,6,1.0125,0,0,0,0,1,main,3,21,female,right,donders,2021-07-08_16h04.26.034,ImageRatingTask_S2,2021.1.4,Win32,33.39121143,,,,,,,,,
,,,,,,,,,,,,0,1,1,1,1,second,3,21,female,right,donders,2021-07-08_16h04.26.034,ImageRatingTask_S2,2021.1.4,Win32,33.39121143,,,,,,,,,
,,,,,,,,,,,,0,2,2,2,1,third,3,21,female,right,donders,2021-07-08_16h04.26.034,ImageRatingTask_S2,2021.1.4,Win32,33.39121143,,,,,,,,,
,,,,,,,,,,,,0,3,3,3,1,fourth,3,21,female,right,donders,2021-07-08_16h04.26.034,ImageRatingTask_S2,2021.1.4,Win32,33.39121143,,,,,,,,,
,,,,,,,,,,,,0,4,4,4,1,fifth,3,21,female,right,donders,2021-07-08_16h04.26.034,ImageRatingTask_S2,2021.1.4,Win32,33.39121143,,,,,,,,,
,,,,,,,,,,,,0,5,5,5,1,sixth,3,21,female,right,donders,2021-07-08_16h04.26.034,ImageRatingTask_S2,2021.1.4,Win32,33.39121143,,,,,,,,,
,,,,,,,,,,,,0,6,6,6,1,seventh,3,21,female,right,donders,2021-07-08_16h04.26.034,ImageRatingTask_S2,2021.1.4,Win32,33.39121143,,,,,,,,,
,,,,,,,,,,,,0,7,7,7,1,last,3,21,female,right,donders,2021-07-08_16h04.26.034,ImageRatingTask_S2,2021.1.4,Win32,33.39121143,,,,,,,,,
,,,,,,,,,,,,,,,,,,3,21,female,right,donders,2021-07-08_16h04.26.034,ImageRatingTask_S2,2021.1.4,Win32,33.39121143,0,60,60,27,1,DreamStudyImages_rs1000x750g/Houses/9470.jpg,,,
,,6,1.5646,3,0.4531,9,1.8305,1,1.1471,2,0.9796,0,0,0,0,1,main,3,21,female,right,donders,2021-07-08_16h04.26.034,ImageRatingTask_S2,2021.1.4,Win32,33.39121143,,,,,,,,,
,,,,,,,,,,,,0,1,1,1,1,second,3,21,female,right,donders,2021-07-08_16h04.26.034,ImageRatingTask_S2,2021.1.4,Win32,33.39121143,,,,,,,,,
,,,,,,,,,,,,0,2,2,2,1,third,3,21,female,right,donders,2021-07-08_16h04.26.034,ImageRatingTask_S2,2021.1.4,Win32,33.39121143,,,,,,,,,
,,,,,,,,,,,,0,3,3,3,1,fourth,3,21,female,right,donders,2021-07-08_16h04.26.034,ImageRatingTask_S2,2021.1.4,Win32,33.39121143,,,,,,,,,
,,,,,,,,,,,,0,4,4,4,1,fifth,3,21,female,right,donders,2021-07-08_16h04.26.034,ImageRatingTask_S2,2021.1.4,Win32,33.39121143,,,,,,,,,
,,,,,,,,,,,,0,5,5,5,1,sixth,3,21,female,right,donders,2021-07-08_16h04.26.034,ImageRatingTask_S2,2021.1.4,Win32,33.39121143,,,,,,,,,
,,,,,,,,,,,,0,6,6,6,1,seventh,3,21,female,right,donders,2021-07-08_16h04.26.034,ImageRatingTask_S2,2021.1.4,Win32,33.39121143,,,,,,,,,
,,,,,,,,,,,,0,7,7,7,1,last,3,21,female,right,donders,2021-07-08_16h04.26.034,ImageRatingTask_S2,2021.1.4,Win32,33.39121143,,,,,,,,,
,,,,,,,,,,,,,,,,,,3,21,female,right,donders,2021-07-08_16h04.26.034,ImageRatingTask_S2,2021.1.4,Win32,33.39121143,0,61,61,118,1,DreamStudyImages_rs1000x750g/Children/IAPS2314_girl8.jpg,,,
,,7,2.4539,3,1.6102,8,7.9654,1,1.2088,5,0.8792,0,0,0,0,1,main,3,21,female,right,donders,2021-07-08_16h04.26.034,ImageRatingTask_S2,2021.1.4,Win32,33.39121143,,,,,,,,,
,,,,,,,,,,,,0,1,1,1,1,second,3,21,female,right,donders,2021-07-08_16h04.26.034,ImageRatingTask_S2,2021.1.4,Win32,33.39121143,,,,,,,,,
,,,,,,,,,,,,0,2,2,2,1,third,3,21,female,right,donders,2021-07-08_16h04.26.034,ImageRatingTask_S2,2021.1.4,Win32,33.39121143,,,,,,,,,
,,,,,,,,,,,,0,3,3,3,1,fourth,3,21,female,right,donders,2021-07-08_16h04.26.034,ImageRatingTask_S2,2021.1.4,Win32,33.39121143,,,,,,,,,
,,,,,,,,,,,,0,4,4,4,1,fifth,3,21,female,right,donders,2021-07-08_16h04.26.034,ImageRatingTask_S2,2021.1.4,Win32,33.39121143,,,,,,,,,
,,,,,,,,,,,,0,5,5,5,1,sixth,3,21,female,right,donders,2021-07-08_16h04.26.034,ImageRatingTask_S2,2021.1.4,Win32,33.39121143,,,,,,,,,
,,,,,,,,,,,,0,6,6,6,1,seventh,3,21,female,right,donders,2021-07-08_16h04.26.034,ImageRatingTask_S2,2021.1.4,Win32,33.39121143,,,,,,,,,
,,,,,,,,,,,,0,7,7,7,1,last,3,21,female,right,donders,2021-07-08_16h04.26.034,ImageRatingTask_S2,2021.1.4,Win32,33.39121143,,,,,,,,,
,,,,,,,,,,,,,,,,,,3,21,female,right,donders,2021-07-08_16h04.26.034,ImageRatingTask_S2,2021.1.4,Win32,33.39121143,0,62,62,48,1,DreamStudyImages_rs1000x750g/Food/IAPS7461_fries2.jpg,,,
,,5,2.5552,1,0.5,9,0.4362,1,0.9989,7,0.9999,0,0,0,0,1,main,3,21,female,right,donders,2021-07-08_16h04.26.034,ImageRatingTask_S2,2021.1.4,Win32,33.39121143,,,,,,,,,
,,,,,,,,,,,,0,1,1,1,1,second,3,21,female,right,donders,2021-07-08_16h04.26.034,ImageRatingTask_S2,2021.1.4,Win32,33.39121143,,,,,,,,,
,,,,,,,,,,,,0,2,2,2,1,third,3,21,female,right,donders,2021-07-08_16h04.26.034,ImageRatingTask_S2,2021.1.4,Win32,33.39121143,,,,,,,,,
,,,,,,,,,,,,0,3,3,3,1,fourth,3,21,female,right,donders,2021-07-08_16h04.26.034,ImageRatingTask_S2,2021.1.4,Win32,33.39121143,,,,,,,,,
,,,,,,,,,,,,0,4,4,4,1,fifth,3,21,female,right,donders,2021-07-08_16h04.26.034,ImageRatingTask_S2,2021.1.4,Win32,33.39121143,,,,,,,,,
,,,,,,,,,,,,0,5,5,5,1,sixth,3,21,female,right,donders,2021-07-08_16h04.26.034,ImageRatingTask_S2,2021.1.4,Win32,33.39121143,,,,,,,,,
,,,,,,,,,,,,0,6,6,6,1,seventh,3,21,female,right,donders,2021-07-08_16h04.26.034,ImageRatingTask_S2,2021.1.4,Win32,33.39121143,,,,,,,,,
,,,,,,,,,,,,0,7,7,7,1,last,3,21,female,right,donders,2021-07-08_16h04.26.034,ImageRatingTask_S2,2021.1.4,Win32,33.39121143,,,,,,,,,
,,,,,,,,,,,,,,,,,,3,21,female,right,donders,2021-07-08_16h04.26.034,ImageRatingTask_S2,2021.1.4,Win32,33.39121143,0,63,63,97,1,DreamStudyImages_rs1000x750g/Vehicles/roadtrain.jpg,,,
,,5,1.9596,1,0.5115,9,1.5664,1,0.9164,6,1.3994,0,0,0,0,1,main,3,21,female,right,donders,2021-07-08_16h04.26.034,ImageRatingTask_S2,2021.1.4,Win32,33.39121143,,,,,,,,,
,,,,,,,,,,,,0,1,1,1,1,second,3,21,female,right,donders,2021-07-08_16h04.26.034,ImageRatingTask_S2,2021.1.4,Win32,33.39121143,,,,,,,,,
,,,,,,,,,,,,0,2,2,2,1,third,3,21,female,right,donders,2021-07-08_16h04.26.034,ImageRatingTask_S2,2021.1.4,Win32,33.39121143,,,,,,,,,
,,,,,,,,,,,,0,3,3,3,1,fourth,3,21,female,right,donders,2021-07-08_16h04.26.034,ImageRatingTask_S2,2021.1.4,Win32,33.39121143,,,,,,,,,
,,,,,,,,,,,,0,4,4,4,1,fifth,3,21,female,right,donders,2021-07-08_16h04.26.034,ImageRatingTask_S2,2021.1.4,Win32,33.39121143,,,,,,,,,
,,,,,,,,,,,,0,5,5,5,1,sixth,3,21,female,right,donders,2021-07-08_16h04.26.034,ImageRatingTask_S2,2021.1.4,Win32,33.39121143,,,,,,,,,
,,,,,,,,,,,,0,6,6,6,1,seventh,3,21,female,right,donders,2021-07-08_16h04.26.034,ImageRatingTask_S2,2021.1.4,Win32,33.39121143,,,,,,,,,
,,,,,,,,,,,,0,7,7,7,1,last,3,21,female,right,donders,2021-07-08_16h04.26.034,ImageRatingTask_S2,2021.1.4,Win32,33.39121143,,,,,,,,,
,,,,,,,,,,,,,,,,,,3,21,female,right,donders,2021-07-08_16h04.26.034,ImageRatingTask_S2,2021.1.4,Win32,33.39121143,0,64,64,158,1,DreamStudyImages_rs1000x750g/Houses/Landscapes_051_h.jpg,,,
,,4,4.6726,2,1.2422,8,6.6968,1,2.0116,5,0.9726,0,0,0,0,1,main,3,21,female,right,donders,2021-07-08_16h04.26.034,ImageRatingTask_S2,2021.1.4,Win32,33.39121143,,,,,,,,,
,,,,,,,,,,,,0,1,1,1,1,second,3,21,female,right,donders,2021-07-08_16h04.26.034,ImageRatingTask_S2,2021.1.4,Win32,33.39121143,,,,,,,,,
,,,,,,,,,,,,0,2,2,2,1,third,3,21,female,right,donders,2021-07-08_16h04.26.034,ImageRatingTask_S2,2021.1.4,Win32,33.39121143,,,,,,,,,
,,,,,,,,,,,,0,3,3,3,1,fourth,3,21,female,right,donders,2021-07-08_16h04.26.034,ImageRatingTask_S2,2021.1.4,Win32,33.39121143,,,,,,,,,
,,,,,,,,,,,,0,4,4,4,1,fifth,3,21,female,right,donders,2021-07-08_16h04.26.034,ImageRatingTask_S2,2021.1.4,Win32,33.39121143,,,,,,,,,
,,,,,,,,,,,,0,5,5,5,1,sixth,3,21,female,right,donders,2021-07-08_16h04.26.034,ImageRatingTask_S2,2021.1.4,Win32,33.39121143,,,,,,,,,
,,,,,,,,,,,,0,6,6,6,1,seventh,3,21,female,right,donders,2021-07-08_16h04.26.034,ImageRatingTask_S2,2021.1.4,Win32,33.39121143,,,,,,,,,
,,,,,,,,,,,,0,7,7,7,1,last,3,21,female,right,donders,2021-07-08_16h04.26.034,ImageRatingTask_S2,2021.1.4,Win32,33.39121143,,,,,,,,,
,,,,,,,,,,,,,,,,,,3,21,female,right,donders,2021-07-08_16h04.26.034,ImageRatingTask_S2,2021.1.4,Win32,33.39121143,0,65,65,136,1,DreamStudyImages_rs1000x750g/Food/Objects_083_h.jpg,,,
,,7,2.3339,2,0.9244,9,4.299,1,0.9913,8,0.8931,0,0,0,0,1,main,3,21,female,right,donders,2021-07-08_16h04.26.034,ImageRatingTask_S2,2021.1.4,Win32,33.39121143,,,,,,,,,
,,,,,,,,,,,,0,1,1,1,1,second,3,21,female,right,donders,2021-07-08_16h04.26.034,ImageRatingTask_S2,2021.1.4,Win32,33.39121143,,,,,,,,,
,,,,,,,,,,,,0,2,2,2,1,third,3,21,female,right,donders,2021-07-08_16h04.26.034,ImageRatingTask_S2,2021.1.4,Win32,33.39121143,,,,,,,,,
,,,,,,,,,,,,0,3,3,3,1,fourth,3,21,female,right,donders,2021-07-08_16h04.26.034,ImageRatingTask_S2,2021.1.4,Win32,33.39121143,,,,,,,,,
,,,,,,,,,,,,0,4,4,4,1,fifth,3,21,female,right,donders,2021-07-08_16h04.26.034,ImageRatingTask_S2,2021.1.4,Win32,33.39121143,,,,,,,,,
,,,,,,,,,,,,0,5,5,5,1,sixth,3,21,female,right,donders,2021-07-08_16h04.26.034,ImageRatingTask_S2,2021.1.4,Win32,33.39121143,,,,,,,,,
,,,,,,,,,,,,0,6,6,6,1,seventh,3,21,female,right,donders,2021-07-08_16h04.26.034,ImageRatingTask_S2,2021.1.4,Win32,33.39121143,,,,,,,,,
,,,,,,,,,,,,0,7,7,7,1,last,3,21,female,right,donders,2021-07-08_16h04.26.034,ImageRatingTask_S2,2021.1.4,Win32,33.39121143,,,,,,,,,
,,,,,,,,,,,,,,,,,,3,21,female,right,donders,2021-07-08_16h04.26.034,ImageRatingTask_S2,2021.1.4,Win32,33.39121143,0,66,66,10,1,DreamStudyImages_rs1000x750g/Water/sunsetbeach.jpg,,,
,,5,2.983,1,1.0142,1,5.4843,0,3.2228,,,0,0,0,0,1,main,3,21,female,right,donders,2021-07-08_16h04.26.034,ImageRatingTask_S2,2021.1.4,Win32,33.39121143,,,,,,,,,
,,,,,,,,,,,,0,1,1,1,1,second,3,21,female,right,donders,2021-07-08_16h04.26.034,ImageRatingTask_S2,2021.1.4,Win32,33.39121143,,,,,,,,,
,,,,,,,,,,,,0,2,2,2,1,third,3,21,female,right,donders,2021-07-08_16h04.26.034,ImageRatingTask_S2,2021.1.4,Win32,33.39121143,,,,,,,,,
,,,,,,,,,,,,0,3,3,3,1,fourth,3,21,female,right,donders,2021-07-08_16h04.26.034,ImageRatingTask_S2,2021.1.4,Win32,33.39121143,,,,,,,,,
,,,,,,,,,,,,0,4,4,4,1,fifth,3,21,female,right,donders,2021-07-08_16h04.26.034,ImageRatingTask_S2,2021.1.4,Win32,33.39121143,,,,,,,,,
,,,,,,,,,,,,0,5,5,5,1,sixth,3,21,female,right,donders,2021-07-08_16h04.26.034,ImageRatingTask_S2,2021.1.4,Win32,33.39121143,,,,,,,,,
,,,,,,,,,,,,0,6,6,6,1,seventh,3,21,female,right,donders,2021-07-08_16h04.26.034,ImageRatingTask_S2,2021.1.4,Win32,33.39121143,,,,,,,,,
,,,,,,,,,,,,0,7,7,7,1,last,3,21,female,right,donders,2021-07-08_16h04.26.034,ImageRatingTask_S2,2021.1.4,Win32,33.39121143,,,,,,,,,
,,,,,,,,,,,,,,,,,,3,21,female,right,donders,2021-07-08_16h04.26.034,ImageRatingTask_S2,2021.1.4,Win32,33.39121143,0,67,67,156,1,DreamStudyImages_rs1000x750g/Water/landscapes_181_h_EDITED.jpg,,,
,,3,4.2847,3,1.1287,9,1.7197,1,0.7099,3,4.2073,0,0,0,0,1,main,3,21,female,right,donders,2021-07-08_16h04.26.034,ImageRatingTask_S2,2021.1.4,Win32,33.39121143,,,,,,,,,
,,,,,,,,,,,,0,1,1,1,1,second,3,21,female,right,donders,2021-07-08_16h04.26.034,ImageRatingTask_S2,2021.1.4,Win32,33.39121143,,,,,,,,,
,,,,,,,,,,,,0,2,2,2,1,third,3,21,female,right,donders,2021-07-08_16h04.26.034,ImageRatingTask_S2,2021.1.4,Win32,33.39121143,,,,,,,,,
,,,,,,,,,,,,0,3,3,3,1,fourth,3,21,female,right,donders,2021-07-08_16h04.26.034,ImageRatingTask_S2,2021.1.4,Win32,33.39121143,,,,,,,,,
,,,,,,,,,,,,0,4,4,4,1,fifth,3,21,female,right,donders,2021-07-08_16h04.26.034,ImageRatingTask_S2,2021.1.4,Win32,33.39121143,,,,,,,,,
,,,,,,,,,,,,0,5,5,5,1,sixth,3,21,female,right,donders,2021-07-08_16h04.26.034,ImageRatingTask_S2,2021.1.4,Win32,33.39121143,,,,,,,,,
,,,,,,,,,,,,0,6,6,6,1,seventh,3,21,female,right,donders,2021-07-08_16h04.26.034,ImageRatingTask_S2,2021.1.4,Win32,33.39121143,,,,,,,,,
,,,,,,,,,,,,0,7,7,7,1,last,3,21,female,right,donders,2021-07-08_16h04.26.034,ImageRatingTask_S2,2021.1.4,Win32,33.39121143,,,,,,,,,
,,,,,,,,,,,,,,,,,,3,21,female,right,donders,2021-07-08_16h04.26.034,ImageRatingTask_S2,2021.1.4,Win32,33.39121143,0,68,68,56,1,DreamStudyImages_rs1000x750g/Mammals/Animals_067_h.jpg,,,
,,6,5.1863,2,0.4614,7,1.9006,1,0.9369,3,0.9901,0,0,0,0,1,main,3,21,female,right,donders,2021-07-08_16h04.26.034,ImageRatingTask_S2,2021.1.4,Win32,33.39121143,,,,,,,,,
,,,,,,,,,,,,0,1,1,1,1,second,3,21,female,right,donders,2021-07-08_16h04.26.034,ImageRatingTask_S2,2021.1.4,Win32,33.39121143,,,,,,,,,
,,,,,,,,,,,,0,2,2,2,1,third,3,21,female,right,donders,2021-07-08_16h04.26.034,ImageRatingTask_S2,2021.1.4,Win32,33.39121143,,,,,,,,,
,,,,,,,,,,,,0,3,3,3,1,fourth,3,21,female,right,donders,2021-07-08_16h04.26.034,ImageRatingTask_S2,2021.1.4,Win32,33.39121143,,,,,,,,,
,,,,,,,,,,,,0,4,4,4,1,fifth,3,21,female,right,donders,2021-07-08_16h04.26.034,ImageRatingTask_S2,2021.1.4,Win32,33.39121143,,,,,,,,,
,,,,,,,,,,,,0,5,5,5,1,sixth,3,21,female,right,donders,2021-07-08_16h04.26.034,ImageRatingTask_S2,2021.1.4,Win32,33.39121143,,,,,,,,,
,,,,,,,,,,,,0,6,6,6,1,seventh,3,21,female,right,donders,2021-07-08_16h04.26.034,ImageRatingTask_S2,2021.1.4,Win32,33.39121143,,,,,,,,,
,,,,,,,,,,,,0,7,7,7,1,last,3,21,female,right,donders,2021-07-08_16h04.26.034,ImageRatingTask_S2,2021.1.4,Win32,33.39121143,,,,,,,,,
,,,,,,,,,,,,,,,,,,3,21,female,right,donders,2021-07-08_16h04.26.034,ImageRatingTask_S2,2021.1.4,Win32,33.39121143,0,69,69,8,1,DreamStudyImages_rs1000x750g/Mammals/Animals_118_h.jpg,,,
,,6,2.4452,2,0.5987,8,2.7417,1,0.8917,3,1.5902,0,0,0,0,1,main,3,21,female,right,donders,2021-07-08_16h04.26.034,ImageRatingTask_S2,2021.1.4,Win32,33.39121143,,,,,,,,,
,,,,,,,,,,,,0,1,1,1,1,second,3,21,female,right,donders,2021-07-08_16h04.26.034,ImageRatingTask_S2,2021.1.4,Win32,33.39121143,,,,,,,,,
,,,,,,,,,,,,0,2,2,2,1,third,3,21,female,right,donders,2021-07-08_16h04.26.034,ImageRatingTask_S2,2021.1.4,Win32,33.39121143,,,,,,,,,
,,,,,,,,,,,,0,3,3,3,1,fourth,3,21,female,right,donders,2021-07-08_16h04.26.034,ImageRatingTask_S2,2021.1.4,Win32,33.39121143,,,,,,,,,
,,,,,,,,,,,,0,4,4,4,1,fifth,3,21,female,right,donders,2021-07-08_16h04.26.034,ImageRatingTask_S2,2021.1.4,Win32,33.39121143,,,,,,,,,
,,,,,,,,,,,,0,5,5,5,1,sixth,3,21,female,right,donders,2021-07-08_16h04.26.034,ImageRatingTask_S2,2021.1.4,Win32,33.39121143,,,,,,,,,
,,,,,,,,,,,,0,6,6,6,1,seventh,3,21,female,right,donders,2021-07-08_16h04.26.034,ImageRatingTask_S2,2021.1.4,Win32,33.39121143,,,,,,,,,
,,,,,,,,,,,,0,7,7,7,1,last,3,21,female,right,donders,2021-07-08_16h04.26.034,ImageRatingTask_S2,2021.1.4,Win32,33.39121143,,,,,,,,,
,,,,,,,,,,,,,,,,,,3,21,female,right,donders,2021-07-08_16h04.26.034,ImageRatingTask_S2,2021.1.4,Win32,33.39121143,0,70,70,57,1,DreamStudyImages_rs1000x750g/Mammals/Pig 2.jpg,,,
,,5,1.8771,1,0.3142,7,1.176,1,0.6268,8,0.8008,0,0,0,0,1,main,3,21,female,right,donders,2021-07-08_16h04.26.034,ImageRatingTask_S2,2021.1.4,Win32,33.39121143,,,,,,,,,
,,,,,,,,,,,,0,1,1,1,1,second,3,21,female,right,donders,2021-07-08_16h04.26.034,ImageRatingTask_S2,2021.1.4,Win32,33.39121143,,,,,,,,,
,,,,,,,,,,,,0,2,2,2,1,third,3,21,female,right,donders,2021-07-08_16h04.26.034,ImageRatingTask_S2,2021.1.4,Win32,33.39121143,,,,,,,,,
,,,,,,,,,,,,0,3,3,3,1,fourth,3,21,female,right,donders,2021-07-08_16h04.26.034,ImageRatingTask_S2,2021.1.4,Win32,33.39121143,,,,,,,,,
,,,,,,,,,,,,0,4,4,4,1,fifth,3,21,female,right,donders,2021-07-08_16h04.26.034,ImageRatingTask_S2,2021.1.4,Win32,33.39121143,,,,,,,,,
,,,,,,,,,,,,0,5,5,5,1,sixth,3,21,female,right,donders,2021-07-08_16h04.26.034,ImageRatingTask_S2,2021.1.4,Win32,33.39121143,,,,,,,,,
,,,,,,,,,,,,0,6,6,6,1,seventh,3,21,female,right,donders,2021-07-08_16h04.26.034,ImageRatingTask_S2,2021.1.4,Win32,33.39121143,,,,,,,,,
,,,,,,,,,,,,0,7,7,7,1,last,3,21,female,right,donders,2021-07-08_16h04.26.034,ImageRatingTask_S2,2021.1.4,Win32,33.39121143,,,,,,,,,
,,,,,,,,,,,,,,,,,,3,21,female,right,donders,2021-07-08_16h04.26.034,ImageRatingTask_S2,2021.1.4,Win32,33.39121143,0,71,71,35,1,DreamStudyImages_rs1000x750g/Water/Landscapes_109_h.jpg,,,
,,4,3.1484,2,0.8,7,6.6312,1,0.8581,3,0.7649,0,0,0,0,1,main,3,21,female,right,donders,2021-07-08_16h04.26.034,ImageRatingTask_S2,2021.1.4,Win32,33.39121143,,,,,,,,,
,,,,,,,,,,,,0,1,1,1,1,second,3,21,female,right,donders,2021-07-08_16h04.26.034,ImageRatingTask_S2,2021.1.4,Win32,33.39121143,,,,,,,,,
,,,,,,,,,,,,0,2,2,2,1,third,3,21,female,right,donders,2021-07-08_16h04.26.034,ImageRatingTask_S2,2021.1.4,Win32,33.39121143,,,,,,,,,
,,,,,,,,,,,,0,3,3,3,1,fourth,3,21,female,right,donders,2021-07-08_16h04.26.034,ImageRatingTask_S2,2021.1.4,Win32,33.39121143,,,,,,,,,
,,,,,,,,,,,,0,4,4,4,1,fifth,3,21,female,right,donders,2021-07-08_16h04.26.034,ImageRatingTask_S2,2021.1.4,Win32,33.39121143,,,,,,,,,
,,,,,,,,,,,,0,5,5,5,1,sixth,3,21,female,right,donders,2021-07-08_16h04.26.034,ImageRatingTask_S2,2021.1.4,Win32,33.39121143,,,,,,,,,
,,,,,,,,,,,,0,6,6,6,1,seventh,3,21,female,right,donders,2021-07-08_16h04.26.034,ImageRatingTask_S2,2021.1.4,Win32,33.39121143,,,,,,,,,
,,,,,,,,,,,,0,7,7,7,1,last,3,21,female,right,donders,2021-07-08_16h04.26.034,ImageRatingTask_S2,2021.1.4,Win32,33.39121143,,,,,,,,,
,,,,,,,,,,,,,,,,,,3,21,female,right,donders,2021-07-08_16h04.26.034,ImageRatingTask_S2,2021.1.4,Win32,33.39121143,0,72,72,62,1,DreamStudyImages_rs1000x750g/Mammals/Cat 7.jpg,,,
,,4,9.04,2,2.5271,7,2.354,1,1.2826,2,0.7267,0,0,0,0,1,main,3,21,female,right,donders,2021-07-08_16h04.26.034,ImageRatingTask_S2,2021.1.4,Win32,33.39121143,,,,,,,,,
,,,,,,,,,,,,0,1,1,1,1,second,3,21,female,right,donders,2021-07-08_16h04.26.034,ImageRatingTask_S2,2021.1.4,Win32,33.39121143,,,,,,,,,
,,,,,,,,,,,,0,2,2,2,1,third,3,21,female,right,donders,2021-07-08_16h04.26.034,ImageRatingTask_S2,2021.1.4,Win32,33.39121143,,,,,,,,,
,,,,,,,,,,,,0,3,3,3,1,fourth,3,21,female,right,donders,2021-07-08_16h04.26.034,ImageRatingTask_S2,2021.1.4,Win32,33.39121143,,,,,,,,,
,,,,,,,,,,,,0,4,4,4,1,fifth,3,21,female,right,donders,2021-07-08_16h04.26.034,ImageRatingTask_S2,2021.1.4,Win32,33.39121143,,,,,,,,,
,,,,,,,,,,,,0,5,5,5,1,sixth,3,21,female,right,donders,2021-07-08_16h04.26.034,ImageRatingTask_S2,2021.1.4,Win32,33.39121143,,,,,,,,,
,,,,,,,,,,,,0,6,6,6,1,seventh,3,21,female,right,donders,2021-07-08_16h04.26.034,ImageRatingTask_S2,2021.1.4,Win32,33.39121143,,,,,,,,,
,,,,,,,,,,,,0,7,7,7,1,last,3,21,female,right,donders,2021-07-08_16h04.26.034,ImageRatingTask_S2,2021.1.4,Win32,33.39121143,,,,,,,,,
,,,,,,,,,,,,,,,,,,3,21,female,right,donders,2021-07-08_16h04.26.034,ImageRatingTask_S2,2021.1.4,Win32,33.39121143,0,73,73,65,1,DreamStudyImages_rs1000x750g/Children/IAPS2457_boy10.jpg,,,
,,5,2.6368,1,0.4262,6,1.9926,1,0.7129,8,0.7316,0,0,0,0,1,main,3,21,female,right,donders,2021-07-08_16h04.26.034,ImageRatingTask_S2,2021.1.4,Win32,33.39121143,,,,,,,,,
,,,,,,,,,,,,0,1,1,1,1,second,3,21,female,right,donders,2021-07-08_16h04.26.034,ImageRatingTask_S2,2021.1.4,Win32,33.39121143,,,,,,,,,
,,,,,,,,,,,,0,2,2,2,1,third,3,21,female,right,donders,2021-07-08_16h04.26.034,ImageRatingTask_S2,2021.1.4,Win32,33.39121143,,,,,,,,,
,,,,,,,,,,,,0,3,3,3,1,fourth,3,21,female,right,donders,2021-07-08_16h04.26.034,ImageRatingTask_S2,2021.1.4,Win32,33.39121143,,,,,,,,,
,,,,,,,,,,,,0,4,4,4,1,fifth,3,21,female,right,donders,2021-07-08_16h04.26.034,ImageRatingTask_S2,2021.1.4,Win32,33.39121143,,,,,,,,,
,,,,,,,,,,,,0,5,5,5,1,sixth,3,21,female,right,donders,2021-07-08_16h04.26.034,ImageRatingTask_S2,2021.1.4,Win32,33.39121143,,,,,,,,,
,,,,,,,,,,,,0,6,6,6,1,seventh,3,21,female,right,donders,2021-07-08_16h04.26.034,ImageRatingTask_S2,2021.1.4,Win32,33.39121143,,,,,,,,,
,,,,,,,,,,,,0,7,7,7,1,last,3,21,female,right,donders,2021-07-08_16h04.26.034,ImageRatingTask_S2,2021.1.4,Win32,33.39121143,,,,,,,,,
,,,,,,,,,,,,,,,,,,3,21,female,right,donders,2021-07-08_16h04.26.034,ImageRatingTask_S2,2021.1.4,Win32,33.39121143,0,74,74,75,1,DreamStudyImages_rs1000x750g/Water/Sunset 3.jpg,,,
,,5,35.0887,1,0.4789,9,1.6823,1,0.8781,2,0.8884,0,0,0,0,1,main,3,21,female,right,donders,2021-07-08_16h04.26.034,ImageRatingTask_S2,2021.1.4,Win32,33.39121143,,,,,,,,,
,,,,,,,,,,,,0,1,1,1,1,second,3,21,female,right,donders,2021-07-08_16h04.26.034,ImageRatingTask_S2,2021.1.4,Win32,33.39121143,,,,,,,,,
,,,,,,,,,,,,0,2,2,2,1,third,3,21,female,right,donders,2021-07-08_16h04.26.034,ImageRatingTask_S2,2021.1.4,Win32,33.39121143,,,,,,,,,
,,,,,,,,,,,,0,3,3,3,1,fourth,3,21,female,right,donders,2021-07-08_16h04.26.034,ImageRatingTask_S2,2021.1.4,Win32,33.39121143,,,,,,,,,
,,,,,,,,,,,,0,4,4,4,1,fifth,3,21,female,right,donders,2021-07-08_16h04.26.034,ImageRatingTask_S2,2021.1.4,Win32,33.39121143,,,,,,,,,
,,,,,,,,,,,,0,5,5,5,1,sixth,3,21,female,right,donders,2021-07-08_16h04.26.034,ImageRatingTask_S2,2021.1.4,Win32,33.39121143,,,,,,,,,
,,,,,,,,,,,,0,6,6,6,1,seventh,3,21,female,right,donders,2021-07-08_16h04.26.034,ImageRatingTask_S2,2021.1.4,Win32,33.39121143,,,,,,,,,
,,,,,,,,,,,,0,7,7,7,1,last,3,21,female,right,donders,2021-07-08_16h04.26.034,ImageRatingTask_S2,2021.1.4,Win32,33.39121143,,,,,,,,,
,,,,,,,,,,,,,,,,,,3,21,female,right,donders,2021-07-08_16h04.26.034,ImageRatingTask_S2,2021.1.4,Win32,33.39121143,0,75,75,73,1,DreamStudyImages_rs1000x750g/Children/People_042_h.jpg,,,
,,6,3.7259,3,0.7024,7,5.7924,1,215.3497,2,0.5469,0,0,0,0,1,main,3,21,female,right,donders,2021-07-08_16h04.26.034,ImageRatingTask_S2,2021.1.4,Win32,33.39121143,,,,,,,,,
,,,,,,,,,,,,0,1,1,1,1,second,3,21,female,right,donders,2021-07-08_16h04.26.034,ImageRatingTask_S2,2021.1.4,Win32,33.39121143,,,,,,,,,
,,,,,,,,,,,,0,2,2,2,1,third,3,21,female,right,donders,2021-07-08_16h04.26.034,ImageRatingTask_S2,2021.1.4,Win32,33.39121143,,,,,,,,,
,,,,,,,,,,,,0,3,3,3,1,fourth,3,21,female,right,donders,2021-07-08_16h04.26.034,ImageRatingTask_S2,2021.1.4,Win32,33.39121143,,,,,,,,,
,,,,,,,,,,,,0,4,4,4,1,fifth,3,21,female,right,donders,2021-07-08_16h04.26.034,ImageRatingTask_S2,2021.1.4,Win32,33.39121143,,,,,,,,,
,,,,,,,,,,,,0,5,5,5,1,sixth,3,21,female,right,donders,2021-07-08_16h04.26.034,ImageRatingTask_S2,2021.1.4,Win32,33.39121143,,,,,,,,,
,,,,,,,,,,,,0,6,6,6,1,seventh,3,21,female,right,donders,2021-07-08_16h04.26.034,ImageRatingTask_S2,2021.1.4,Win32,33.39121143,,,,,,,,,
,,,,,,,,,,,,0,7,7,7,1,last,3,21,female,right,donders,2021-07-08_16h04.26.034,ImageRatingTask_S2,2021.1.4,Win32,33.39121143,,,,,,,,,
,,,,,,,,,,,,,,,,,,3,21,female,right,donders,2021-07-08_16h04.26.034,ImageRatingTask_S2,2021.1.4,Win32,33.39121143,0,76,76,94,1,DreamStudyImages_rs1000x750g/Children/Baby 2.jpg,,,
,,5,3.9284,1,0.4046,6,1.3976,1,3.9355,5,0.7455,0,0,0,0,1,main,3,21,female,right,donders,2021-07-08_16h04.26.034,ImageRatingTask_S2,2021.1.4,Win32,33.39121143,,,,,,,,,
,,,,,,,,,,,,0,1,1,1,1,second,3,21,female,right,donders,2021-07-08_16h04.26.034,ImageRatingTask_S2,2021.1.4,Win32,33.39121143,,,,,,,,,
,,,,,,,,,,,,0,2,2,2,1,third,3,21,female,right,donders,2021-07-08_16h04.26.034,ImageRatingTask_S2,2021.1.4,Win32,33.39121143,,,,,,,,,
,,,,,,,,,,,,0,3,3,3,1,fourth,3,21,female,right,donders,2021-07-08_16h04.26.034,ImageRatingTask_S2,2021.1.4,Win32,33.39121143,,,,,,,,,
