slider_pre.response,slider_pre.rt,key_val.keys,key_val.rt,key_aro.keys,key_aro.rt,key_qual.keys,key_qual.rt,key_ncat.keys,key_ncat.rt,key_cats.keys,key_cats.rt,ncat_order.thisRepN,ncat_order.thisTrialN,ncat_order.thisN,ncat_order.thisIndex,ncat_order.ran,cond_cat,participant,age,gender,handedness (L/R),site (IMT/Donders),date,expName,psychopyVersion,OS,frameRate,img_trials.thisRepN,img_trials.thisTrialN,img_trials.thisN,img_trials.thisIndex,img_trials.ran,filename,slider_post.response,slider_post.rt,textbox_openfb.text
6,3.4017,5,6.2089,1,6.5928,6,2.3138,1,0.664,5,1.0686,0,0,0,0,1,main,3,21,female,right,donders,2021-07-09_12h19.12.929,ImageRatingTask_S4,2021.1.4,Win32,60.45949214,,,,,,,,,
,,,,,,,,,,,,0,1,1,1,1,second,3,21,female,right,donders,2021-07-09_12h19.12.929,ImageRatingTask_S4,2021.1.4,Win32,60.45949214,,,,,,,,,
,,,,,,,,,,,,0,2,2,2,1,third,3,21,female,right,donders,2021-07-09_12h19.12.929,ImageRatingTask_S4,2021.1.4,Win32,60.45949214,,,,,,,,,
,,,,,,,,,,,,0,3,3,3,1,fourth,3,21,female,right,donders,2021-07-09_12h19.12.929,ImageRatingTask_S4,2021.1.4,Win32,60.45949214,,,,,,,,,
,,,,,,,,,,,,0,4,4,4,1,fifth,3,21,female,right,donders,2021-07-09_12h19.12.929,ImageRatingTask_S4,2021.1.4,Win32,60.45949214,,,,,,,,,
,,,,,,,,,,,,0,5,5,5,1,sixth,3,21,female,right,donders,2021-07-09_12h19.12.929,ImageRatingTask_S4,2021.1.4,Win32,60.45949214,,,,,,,,,
,,,,,,,,,,,,0,6,6,6,1,seventh,3,21,female,right,donders,2021-07-09_12h19.12.929,ImageRatingTask_S4,2021.1.4,Win32,60.45949214,,,,,,,,,
,,,,,,,,,,,,0,7,7,7,1,last,3,21,female,right,donders,2021-07-09_12h19.12.929,ImageRatingTask_S4,2021.1.4,Win32,60.45949214,,,,,,,,,
,,,,,,,,,,,,,,,,,,3,21,female,right,donders,2021-07-09_12h19.12.929,ImageRatingTask_S4,2021.1.4,Win32,60.45949214,0,0,0,99,1,DreamStudyImages_rs1000x750g/Food/IAPS7230_diner.jpg,,,
,,4,4.1795,2,0.7303,9,1.5982,1,0.6388,5,0.7763,0,0,0,0,1,main,3,21,female,right,donders,2021-07-09_12h19.12.929,ImageRatingTask_S4,2021.1.4,Win32,60.45949214,,,,,,,,,
,,,,,,,,,,,,0,1,1,1,1,second,3,21,female,right,donders,2021-07-09_12h19.12.929,ImageRatingTask_S4,2021.1.4,Win32,60.45949214,,,,,,,,,
,,,,,,,,,,,,0,2,2,2,1,third,3,21,female,right,donders,2021-07-09_12h19.12.929,ImageRatingTask_S4,2021.1.4,Win32,60.45949214,,,,,,,,,
,,,,,,,,,,,,0,3,3,3,1,fourth,3,21,female,right,donders,2021-07-09_12h19.12.929,ImageRatingTask_S4,2021.1.4,Win32,60.45949214,,,,,,,,,
,,,,,,,,,,,,0,4,4,4,1,fifth,3,21,female,right,donders,2021-07-09_12h19.12.929,ImageRatingTask_S4,2021.1.4,Win32,60.45949214,,,,,,,,,
,,,,,,,,,,,,0,5,5,5,1,sixth,3,21,female,right,donders,2021-07-09_12h19.12.929,ImageRatingTask_S4,2021.1.4,Win32,60.45949214,,,,,,,,,
,,,,,,,,,,,,0,6,6,6,1,seventh,3,21,female,right,donders,2021-07-09_12h19.12.929,ImageRatingTask_S4,2021.1.4,Win32,60.45949214,,,,,,,,,
,,,,,,,,,,,,0,7,7,7,1,last,3,21,female,right,donders,2021-07-09_12h19.12.929,ImageRatingTask_S4,2021.1.4,Win32,60.45949214,,,,,,,,,
,,,,,,,,,,,,,,,,,,3,21,female,right,donders,2021-07-09_12h19.12.929,ImageRatingTask_S4,2021.1.4,Win32,60.45949214,0,1,1,128,1,DreamStudyImages_rs1000x750g/Food/IAPS7365_mincedmeat.jpg,,,
,,4,5.3251,3,0.6475,8,3.2135,1,0.9468,2,0.5883,0,0,0,0,1,main,3,21,female,right,donders,2021-07-09_12h19.12.929,ImageRatingTask_S4,2021.1.4,Win32,60.45949214,,,,,,,,,
,,,,,,,,,,,,0,1,1,1,1,second,3,21,female,right,donders,2021-07-09_12h19.12.929,ImageRatingTask_S4,2021.1.4,Win32,60.45949214,,,,,,,,,
,,,,,,,,,,,,0,2,2,2,1,third,3,21,female,right,donders,2021-07-09_12h19.12.929,ImageRatingTask_S4,2021.1.4,Win32,60.45949214,,,,,,,,,
,,,,,,,,,,,,0,3,3,3,1,fourth,3,21,female,right,donders,2021-07-09_12h19.12.929,ImageRatingTask_S4,2021.1.4,Win32,60.45949214,,,,,,,,,
,,,,,,,,,,,,0,4,4,4,1,fifth,3,21,female,right,donders,2021-07-09_12h19.12.929,ImageRatingTask_S4,2021.1.4,Win32,60.45949214,,,,,,,,,
,,,,,,,,,,,,0,5,5,5,1,sixth,3,21,female,right,donders,2021-07-09_12h19.12.929,ImageRatingTask_S4,2021.1.4,Win32,60.45949214,,,,,,,,,
,,,,,,,,,,,,0,6,6,6,1,seventh,3,21,female,right,donders,2021-07-09_12h19.12.929,ImageRatingTask_S4,2021.1.4,Win32,60.45949214,,,,,,,,,
,,,,,,,,,,,,0,7,7,7,1,last,3,21,female,right,donders,2021-07-09_12h19.12.929,ImageRatingTask_S4,2021.1.4,Win32,60.45949214,,,,,,,,,
,,,,,,,,,,,,,,,,,,3,21,female,right,donders,2021-07-09_12h19.12.929,ImageRatingTask_S4,2021.1.4,Win32,60.45949214,0,2,2,110,1,DreamStudyImages_rs1000x750g/Children/Tickling 1.jpg,,,
,,6,1.7381,2,0.4853,9,1.1268,1,0.4257,8,0.716,0,0,0,0,1,main,3,21,female,right,donders,2021-07-09_12h19.12.929,ImageRatingTask_S4,2021.1.4,Win32,60.45949214,,,,,,,,,
,,,,,,,,,,,,0,1,1,1,1,second,3,21,female,right,donders,2021-07-09_12h19.12.929,ImageRatingTask_S4,2021.1.4,Win32,60.45949214,,,,,,,,,
,,,,,,,,,,,,0,2,2,2,1,third,3,21,female,right,donders,2021-07-09_12h19.12.929,ImageRatingTask_S4,2021.1.4,Win32,60.45949214,,,,,,,,,
,,,,,,,,,,,,0,3,3,3,1,fourth,3,21,female,right,donders,2021-07-09_12h19.12.929,ImageRatingTask_S4,2021.1.4,Win32,60.45949214,,,,,,,,,
,,,,,,,,,,,,0,4,4,4,1,fifth,3,21,female,right,donders,2021-07-09_12h19.12.929,ImageRatingTask_S4,2021.1.4,Win32,60.45949214,,,,,,,,,
,,,,,,,,,,,,0,5,5,5,1,sixth,3,21,female,right,donders,2021-07-09_12h19.12.929,ImageRatingTask_S4,2021.1.4,Win32,60.45949214,,,,,,,,,
,,,,,,,,,,,,0,6,6,6,1,seventh,3,21,female,right,donders,2021-07-09_12h19.12.929,ImageRatingTask_S4,2021.1.4,Win32,60.45949214,,,,,,,,,
,,,,,,,,,,,,0,7,7,7,1,last,3,21,female,right,donders,2021-07-09_12h19.12.929,ImageRatingTask_S4,2021.1.4,Win32,60.45949214,,,,,,,,,
,,,,,,,,,,,,,,,,,,3,21,female,right,donders,2021-07-09_12h19.12.929,ImageRatingTask_S4,2021.1.4,Win32,60.45949214,0,3,3,64,1,DreamStudyImages_rs1000x750g/Water/Landscapes_116_v.jpg,,,
,,5,2.9266,1,0.3964,9,0.9423,1,0.538,5,0.7225,0,0,0,0,1,main,3,21,female,right,donders,2021-07-09_12h19.12.929,ImageRatingTask_S4,2021.1.4,Win32,60.45949214,,,,,,,,,
,,,,,,,,,,,,0,1,1,1,1,second,3,21,female,right,donders,2021-07-09_12h19.12.929,ImageRatingTask_S4,2021.1.4,Win32,60.45949214,,,,,,,,,
,,,,,,,,,,,,0,2,2,2,1,third,3,21,female,right,donders,2021-07-09_12h19.12.929,ImageRatingTask_S4,2021.1.4,Win32,60.45949214,,,,,,,,,
,,,,,,,,,,,,0,3,3,3,1,fourth,3,21,female,right,donders,2021-07-09_12h19.12.929,ImageRatingTask_S4,2021.1.4,Win32,60.45949214,,,,,,,,,
,,,,,,,,,,,,0,4,4,4,1,fifth,3,21,female,right,donders,2021-07-09_12h19.12.929,ImageRatingTask_S4,2021.1.4,Win32,60.45949214,,,,,,,,,
,,,,,,,,,,,,0,5,5,5,1,sixth,3,21,female,right,donders,2021-07-09_12h19.12.929,ImageRatingTask_S4,2021.1.4,Win32,60.45949214,,,,,,,,,
,,,,,,,,,,,,0,6,6,6,1,seventh,3,21,female,right,donders,2021-07-09_12h19.12.929,ImageRatingTask_S4,2021.1.4,Win32,60.45949214,,,,,,,,,
,,,,,,,,,,,,0,7,7,7,1,last,3,21,female,right,donders,2021-07-09_12h19.12.929,ImageRatingTask_S4,2021.1.4,Win32,60.45949214,,,,,,,,,
,,,,,,,,,,,,,,,,,,3,21,female,right,donders,2021-07-09_12h19.12.929,ImageRatingTask_S4,2021.1.4,Win32,60.45949214,0,4,4,114,1,DreamStudyImages_rs1000x750g/Food/Objects_043_h.jpg,,,
,,5,2.3192,1,0.4477,9,1.0648,1,0.6313,6,0.6475,0,0,0,0,1,main,3,21,female,right,donders,2021-07-09_12h19.12.929,ImageRatingTask_S4,2021.1.4,Win32,60.45949214,,,,,,,,,
,,,,,,,,,,,,0,1,1,1,1,second,3,21,female,right,donders,2021-07-09_12h19.12.929,ImageRatingTask_S4,2021.1.4,Win32,60.45949214,,,,,,,,,
,,,,,,,,,,,,0,2,2,2,1,third,3,21,female,right,donders,2021-07-09_12h19.12.929,ImageRatingTask_S4,2021.1.4,Win32,60.45949214,,,,,,,,,
,,,,,,,,,,,,0,3,3,3,1,fourth,3,21,female,right,donders,2021-07-09_12h19.12.929,ImageRatingTask_S4,2021.1.4,Win32,60.45949214,,,,,,,,,
,,,,,,,,,,,,0,4,4,4,1,fifth,3,21,female,right,donders,2021-07-09_12h19.12.929,ImageRatingTask_S4,2021.1.4,Win32,60.45949214,,,,,,,,,
,,,,,,,,,,,,0,5,5,5,1,sixth,3,21,female,right,donders,2021-07-09_12h19.12.929,ImageRatingTask_S4,2021.1.4,Win32,60.45949214,,,,,,,,,
,,,,,,,,,,,,0,6,6,6,1,seventh,3,21,female,right,donders,2021-07-09_12h19.12.929,ImageRatingTask_S4,2021.1.4,Win32,60.45949214,,,,,,,,,
,,,,,,,,,,,,0,7,7,7,1,last,3,21,female,right,donders,2021-07-09_12h19.12.929,ImageRatingTask_S4,2021.1.4,Win32,60.45949214,,,,,,,,,
,,,,,,,,,,,,,,,,,,3,21,female,right,donders,2021-07-09_12h19.12.929,ImageRatingTask_S4,2021.1.4,Win32,60.45949214,0,5,5,73,1,DreamStudyImages_rs1000x750g/Houses/NDPS92_destroyedhouse.jpg,,,
,,7,2.095,3,0.5403,9,1.116,1,0.4713,8,0.6118,0,0,0,0,1,main,3,21,female,right,donders,2021-07-09_12h19.12.929,ImageRatingTask_S4,2021.1.4,Win32,60.45949214,,,,,,,,,
,,,,,,,,,,,,0,1,1,1,1,second,3,21,female,right,donders,2021-07-09_12h19.12.929,ImageRatingTask_S4,2021.1.4,Win32,60.45949214,,,,,,,,,
,,,,,,,,,,,,0,2,2,2,1,third,3,21,female,right,donders,2021-07-09_12h19.12.929,ImageRatingTask_S4,2021.1.4,Win32,60.45949214,,,,,,,,,
,,,,,,,,,,,,0,3,3,3,1,fourth,3,21,female,right,donders,2021-07-09_12h19.12.929,ImageRatingTask_S4,2021.1.4,Win32,60.45949214,,,,,,,,,
,,,,,,,,,,,,0,4,4,4,1,fifth,3,21,female,right,donders,2021-07-09_12h19.12.929,ImageRatingTask_S4,2021.1.4,Win32,60.45949214,,,,,,,,,
,,,,,,,,,,,,0,5,5,5,1,sixth,3,21,female,right,donders,2021-07-09_12h19.12.929,ImageRatingTask_S4,2021.1.4,Win32,60.45949214,,,,,,,,,
,,,,,,,,,,,,0,6,6,6,1,seventh,3,21,female,right,donders,2021-07-09_12h19.12.929,ImageRatingTask_S4,2021.1.4,Win32,60.45949214,,,,,,,,,
,,,,,,,,,,,,0,7,7,7,1,last,3,21,female,right,donders,2021-07-09_12h19.12.929,ImageRatingTask_S4,2021.1.4,Win32,60.45949214,,,,,,,,,
,,,,,,,,,,,,,,,,,,3,21,female,right,donders,2021-07-09_12h19.12.929,ImageRatingTask_S4,2021.1.4,Win32,60.45949214,0,6,6,18,1,DreamStudyImages_rs1000x750g/Water/NDPS123_mineralwaterformation.jpg,,,
,,5,2.8122,1,0.2097,9,1.5997,1,0.5699,7,0.6166,0,0,0,0,1,main,3,21,female,right,donders,2021-07-09_12h19.12.929,ImageRatingTask_S4,2021.1.4,Win32,60.45949214,,,,,,,,,
,,,,,,,,,,,,0,1,1,1,1,second,3,21,female,right,donders,2021-07-09_12h19.12.929,ImageRatingTask_S4,2021.1.4,Win32,60.45949214,,,,,,,,,
,,,,,,,,,,,,0,2,2,2,1,third,3,21,female,right,donders,2021-07-09_12h19.12.929,ImageRatingTask_S4,2021.1.4,Win32,60.45949214,,,,,,,,,
,,,,,,,,,,,,0,3,3,3,1,fourth,3,21,female,right,donders,2021-07-09_12h19.12.929,ImageRatingTask_S4,2021.1.4,Win32,60.45949214,,,,,,,,,
,,,,,,,,,,,,0,4,4,4,1,fifth,3,21,female,right,donders,2021-07-09_12h19.12.929,ImageRatingTask_S4,2021.1.4,Win32,60.45949214,,,,,,,,,
,,,,,,,,,,,,0,5,5,5,1,sixth,3,21,female,right,donders,2021-07-09_12h19.12.929,ImageRatingTask_S4,2021.1.4,Win32,60.45949214,,,,,,,,,
,,,,,,,,,,,,0,6,6,6,1,seventh,3,21,female,right,donders,2021-07-09_12h19.12.929,ImageRatingTask_S4,2021.1.4,Win32,60.45949214,,,,,,,,,
,,,,,,,,,,,,0,7,7,7,1,last,3,21,female,right,donders,2021-07-09_12h19.12.929,ImageRatingTask_S4,2021.1.4,Win32,60.45949214,,,,,,,,,
,,,,,,,,,,,,,,,,,,3,21,female,right,donders,2021-07-09_12h19.12.929,ImageRatingTask_S4,2021.1.4,Win32,60.45949214,0,7,7,25,1,DreamStudyImages_rs1000x750g/Vehicles/toytruck.jpg,,,
,,6,2.907,3,0.4772,9,1.2498,1,0.4743,8,0.62,0,0,0,0,1,main,3,21,female,right,donders,2021-07-09_12h19.12.929,ImageRatingTask_S4,2021.1.4,Win32,60.45949214,,,,,,,,,
,,,,,,,,,,,,0,1,1,1,1,second,3,21,female,right,donders,2021-07-09_12h19.12.929,ImageRatingTask_S4,2021.1.4,Win32,60.45949214,,,,,,,,,
,,,,,,,,,,,,0,2,2,2,1,third,3,21,female,right,donders,2021-07-09_12h19.12.929,ImageRatingTask_S4,2021.1.4,Win32,60.45949214,,,,,,,,,
,,,,,,,,,,,,0,3,3,3,1,fourth,3,21,female,right,donders,2021-07-09_12h19.12.929,ImageRatingTask_S4,2021.1.4,Win32,60.45949214,,,,,,,,,
,,,,,,,,,,,,0,4,4,4,1,fifth,3,21,female,right,donders,2021-07-09_12h19.12.929,ImageRatingTask_S4,2021.1.4,Win32,60.45949214,,,,,,,,,
,,,,,,,,,,,,0,5,5,5,1,sixth,3,21,female,right,donders,2021-07-09_12h19.12.929,ImageRatingTask_S4,2021.1.4,Win32,60.45949214,,,,,,,,,
,,,,,,,,,,,,0,6,6,6,1,seventh,3,21,female,right,donders,2021-07-09_12h19.12.929,ImageRatingTask_S4,2021.1.4,Win32,60.45949214,,,,,,,,,
,,,,,,,,,,,,0,7,7,7,1,last,3,21,female,right,donders,2021-07-09_12h19.12.929,ImageRatingTask_S4,2021.1.4,Win32,60.45949214,,,,,,,,,
,,,,,,,,,,,,,,,,,,3,21,female,right,donders,2021-07-09_12h19.12.929,ImageRatingTask_S4,2021.1.4,Win32,60.45949214,0,8,8,115,1,DreamStudyImages_rs1000x750g/Water/sunsetlake.jpg,,,
,,6,1.7975,3,0.3055,9,0.7168,1,0.3163,8,0.6498,0,0,0,0,1,main,3,21,female,right,donders,2021-07-09_12h19.12.929,ImageRatingTask_S4,2021.1.4,Win32,60.45949214,,,,,,,,,
,,,,,,,,,,,,0,1,1,1,1,second,3,21,female,right,donders,2021-07-09_12h19.12.929,ImageRatingTask_S4,2021.1.4,Win32,60.45949214,,,,,,,,,
,,,,,,,,,,,,0,2,2,2,1,third,3,21,female,right,donders,2021-07-09_12h19.12.929,ImageRatingTask_S4,2021.1.4,Win32,60.45949214,,,,,,,,,
,,,,,,,,,,,,0,3,3,3,1,fourth,3,21,female,right,donders,2021-07-09_12h19.12.929,ImageRatingTask_S4,2021.1.4,Win32,60.45949214,,,,,,,,,
,,,,,,,,,,,,0,4,4,4,1,fifth,3,21,female,right,donders,2021-07-09_12h19.12.929,ImageRatingTask_S4,2021.1.4,Win32,60.45949214,,,,,,,,,
,,,,,,,,,,,,0,5,5,5,1,sixth,3,21,female,right,donders,2021-07-09_12h19.12.929,ImageRatingTask_S4,2021.1.4,Win32,60.45949214,,,,,,,,,
,,,,,,,,,,,,0,6,6,6,1,seventh,3,21,female,right,donders,2021-07-09_12h19.12.929,ImageRatingTask_S4,2021.1.4,Win32,60.45949214,,,,,,,,,
,,,,,,,,,,,,0,7,7,7,1,last,3,21,female,right,donders,2021-07-09_12h19.12.929,ImageRatingTask_S4,2021.1.4,Win32,60.45949214,,,,,,,,,
,,,,,,,,,,,,,,,,,,3,21,female,right,donders,2021-07-09_12h19.12.929,ImageRatingTask_S4,2021.1.4,Win32,60.45949214,0,9,9,147,1,DreamStudyImages_rs1000x750g/Water/waterfall.jpg,,,
,,5,1.3452,1,0.2955,9,3.0496,1,0.8276,7,0.6153,0,0,0,0,1,main,3,21,female,right,donders,2021-07-09_12h19.12.929,ImageRatingTask_S4,2021.1.4,Win32,60.45949214,,,,,,,,,
,,,,,,,,,,,,0,1,1,1,1,second,3,21,female,right,donders,2021-07-09_12h19.12.929,ImageRatingTask_S4,2021.1.4,Win32,60.45949214,,,,,,,,,
,,,,,,,,,,,,0,2,2,2,1,third,3,21,female,right,donders,2021-07-09_12h19.12.929,ImageRatingTask_S4,2021.1.4,Win32,60.45949214,,,,,,,,,
,,,,,,,,,,,,0,3,3,3,1,fourth,3,21,female,right,donders,2021-07-09_12h19.12.929,ImageRatingTask_S4,2021.1.4,Win32,60.45949214,,,,,,,,,
,,,,,,,,,,,,0,4,4,4,1,fifth,3,21,female,right,donders,2021-07-09_12h19.12.929,ImageRatingTask_S4,2021.1.4,Win32,60.45949214,,,,,,,,,
,,,,,,,,,,,,0,5,5,5,1,sixth,3,21,female,right,donders,2021-07-09_12h19.12.929,ImageRatingTask_S4,2021.1.4,Win32,60.45949214,,,,,,,,,
,,,,,,,,,,,,0,6,6,6,1,seventh,3,21,female,right,donders,2021-07-09_12h19.12.929,ImageRatingTask_S4,2021.1.4,Win32,60.45949214,,,,,,,,,
,,,,,,,,,,,,0,7,7,7,1,last,3,21,female,right,donders,2021-07-09_12h19.12.929,ImageRatingTask_S4,2021.1.4,Win32,60.45949214,,,,,,,,,
,,,,,,,,,,,,,,,,,,3,21,female,right,donders,2021-07-09_12h19.12.929,ImageRatingTask_S4,2021.1.4,Win32,60.45949214,0,10,10,50,1,DreamStudyImages_rs1000x750g/Vehicles/Objects_311_h.jpg,,,
,,5,3.8788,1,0.6718,7,1.7845,1,0.8834,5,0.6898,0,0,0,0,1,main,3,21,female,right,donders,2021-07-09_12h19.12.929,ImageRatingTask_S4,2021.1.4,Win32,60.45949214,,,,,,,,,
,,,,,,,,,,,,0,1,1,1,1,second,3,21,female,right,donders,2021-07-09_12h19.12.929,ImageRatingTask_S4,2021.1.4,Win32,60.45949214,,,,,,,,,
,,,,,,,,,,,,0,2,2,2,1,third,3,21,female,right,donders,2021-07-09_12h19.12.929,ImageRatingTask_S4,2021.1.4,Win32,60.45949214,,,,,,,,,
,,,,,,,,,,,,0,3,3,3,1,fourth,3,21,female,right,donders,2021-07-09_12h19.12.929,ImageRatingTask_S4,2021.1.4,Win32,60.45949214,,,,,,,,,
,,,,,,,,,,,,0,4,4,4,1,fifth,3,21,female,right,donders,2021-07-09_12h19.12.929,ImageRatingTask_S4,2021.1.4,Win32,60.45949214,,,,,,,,,
,,,,,,,,,,,,0,5,5,5,1,sixth,3,21,female,right,donders,2021-07-09_12h19.12.929,ImageRatingTask_S4,2021.1.4,Win32,60.45949214,,,,,,,,,
,,,,,,,,,,,,0,6,6,6,1,seventh,3,21,female,right,donders,2021-07-09_12h19.12.929,ImageRatingTask_S4,2021.1.4,Win32,60.45949214,,,,,,,,,
,,,,,,,,,,,,0,7,7,7,1,last,3,21,female,right,donders,2021-07-09_12h19.12.929,ImageRatingTask_S4,2021.1.4,Win32,60.45949214,,,,,,,,,
,,,,,,,,,,,,,,,,,,3,21,female,right,donders,2021-07-09_12h19.12.929,ImageRatingTask_S4,2021.1.4,Win32,60.45949214,0,11,11,1,1,DreamStudyImages_rs1000x750g/Food/IAPS7481_diner3.jpg,,,
,,5,2.5955,1,0.1519,7,1.1834,1,2.6828,8,0.5929,0,0,0,0,1,main,3,21,female,right,donders,2021-07-09_12h19.12.929,ImageRatingTask_S4,2021.1.4,Win32,60.45949214,,,,,,,,,
,,,,,,,,,,,,0,1,1,1,1,second,3,21,female,right,donders,2021-07-09_12h19.12.929,ImageRatingTask_S4,2021.1.4,Win32,60.45949214,,,,,,,,,
,,,,,,,,,,,,0,2,2,2,1,third,3,21,female,right,donders,2021-07-09_12h19.12.929,ImageRatingTask_S4,2021.1.4,Win32,60.45949214,,,,,,,,,
,,,,,,,,,,,,0,3,3,3,1,fourth,3,21,female,right,donders,2021-07-09_12h19.12.929,ImageRatingTask_S4,2021.1.4,Win32,60.45949214,,,,,,,,,
,,,,,,,,,,,,0,4,4,4,1,fifth,3,21,female,right,donders,2021-07-09_12h19.12.929,ImageRatingTask_S4,2021.1.4,Win32,60.45949214,,,,,,,,,
,,,,,,,,,,,,0,5,5,5,1,sixth,3,21,female,right,donders,2021-07-09_12h19.12.929,ImageRatingTask_S4,2021.1.4,Win32,60.45949214,,,,,,,,,
,,,,,,,,,,,,0,6,6,6,1,seventh,3,21,female,right,donders,2021-07-09_12h19.12.929,ImageRatingTask_S4,2021.1.4,Win32,60.45949214,,,,,,,,,
,,,,,,,,,,,,0,7,7,7,1,last,3,21,female,right,donders,2021-07-09_12h19.12.929,ImageRatingTask_S4,2021.1.4,Win32,60.45949214,,,,,,,,,
,,,,,,,,,,,,,,,,,,3,21,female,right,donders,2021-07-09_12h19.12.929,ImageRatingTask_S4,2021.1.4,Win32,60.45949214,0,12,12,45,1,DreamStudyImages_rs1000x750g/Water/Landscapes_106_v.jpg,,,
,,4,20.2667,2,1.0402,9,1.4663,1,5.7746,5,0.7375,0,0,0,0,1,main,3,21,female,right,donders,2021-07-09_12h19.12.929,ImageRatingTask_S4,2021.1.4,Win32,60.45949214,,,,,,,,,
,,,,,,,,,,,,0,1,1,1,1,second,3,21,female,right,donders,2021-07-09_12h19.12.929,ImageRatingTask_S4,2021.1.4,Win32,60.45949214,,,,,,,,,
,,,,,,,,,,,,0,2,2,2,1,third,3,21,female,right,donders,2021-07-09_12h19.12.929,ImageRatingTask_S4,2021.1.4,Win32,60.45949214,,,,,,,,,
,,,,,,,,,,,,0,3,3,3,1,fourth,3,21,female,right,donders,2021-07-09_12h19.12.929,ImageRatingTask_S4,2021.1.4,Win32,60.45949214,,,,,,,,,
,,,,,,,,,,,,0,4,4,4,1,fifth,3,21,female,right,donders,2021-07-09_12h19.12.929,ImageRatingTask_S4,2021.1.4,Win32,60.45949214,,,,,,,,,
,,,,,,,,,,,,0,5,5,5,1,sixth,3,21,female,right,donders,2021-07-09_12h19.12.929,ImageRatingTask_S4,2021.1.4,Win32,60.45949214,,,,,,,,,
,,,,,,,,,,,,0,6,6,6,1,seventh,3,21,female,right,donders,2021-07-09_12h19.12.929,ImageRatingTask_S4,2021.1.4,Win32,60.45949214,,,,,,,,,
,,,,,,,,,,,,0,7,7,7,1,last,3,21,female,right,donders,2021-07-09_12h19.12.929,ImageRatingTask_S4,2021.1.4,Win32,60.45949214,,,,,,,,,
,,,,,,,,,,,,,,,,,,3,21,female,right,donders,2021-07-09_12h19.12.929,ImageRatingTask_S4,2021.1.4,Win32,60.45949214,0,13,13,116,1,DreamStudyImages_rs1000x750g/Food/Objects_100_v.jpg,,,
,,4,1.8055,4,0.8056,7,1.8943,1,0.7999,3,1.15,0,0,0,0,1,main,3,21,female,right,donders,2021-07-09_12h19.12.929,ImageRatingTask_S4,2021.1.4,Win32,60.45949214,,,,,,,,,
,,,,,,,,,,,,0,1,1,1,1,second,3,21,female,right,donders,2021-07-09_12h19.12.929,ImageRatingTask_S4,2021.1.4,Win32,60.45949214,,,,,,,,,
,,,,,,,,,,,,0,2,2,2,1,third,3,21,female,right,donders,2021-07-09_12h19.12.929,ImageRatingTask_S4,2021.1.4,Win32,60.45949214,,,,,,,,,
,,,,,,,,,,,,0,3,3,3,1,fourth,3,21,female,right,donders,2021-07-09_12h19.12.929,ImageRatingTask_S4,2021.1.4,Win32,60.45949214,,,,,,,,,
,,,,,,,,,,,,0,4,4,4,1,fifth,3,21,female,right,donders,2021-07-09_12h19.12.929,ImageRatingTask_S4,2021.1.4,Win32,60.45949214,,,,,,,,,
,,,,,,,,,,,,0,5,5,5,1,sixth,3,21,female,right,donders,2021-07-09_12h19.12.929,ImageRatingTask_S4,2021.1.4,Win32,60.45949214,,,,,,,,,
,,,,,,,,,,,,0,6,6,6,1,seventh,3,21,female,right,donders,2021-07-09_12h19.12.929,ImageRatingTask_S4,2021.1.4,Win32,60.45949214,,,,,,,,,
,,,,,,,,,,,,0,7,7,7,1,last,3,21,female,right,donders,2021-07-09_12h19.12.929,ImageRatingTask_S4,2021.1.4,Win32,60.45949214,,,,,,,,,
,,,,,,,,,,,,,,,,,,3,21,female,right,donders,2021-07-09_12h19.12.929,ImageRatingTask_S4,2021.1.4,Win32,60.45949214,0,14,14,43,1,DreamStudyImages_rs1000x750g/Mammals/IAPS1310_bigcat.jpg,,,
,,5,1.5804,1,0.3132,4,0.87,1,0.7171,7,0.6173,0,0,0,0,1,main,3,21,female,right,donders,2021-07-09_12h19.12.929,ImageRatingTask_S4,2021.1.4,Win32,60.45949214,,,,,,,,,
,,,,,,,,,,,,0,1,1,1,1,second,3,21,female,right,donders,2021-07-09_12h19.12.929,ImageRatingTask_S4,2021.1.4,Win32,60.45949214,,,,,,,,,
,,,,,,,,,,,,0,2,2,2,1,third,3,21,female,right,donders,2021-07-09_12h19.12.929,ImageRatingTask_S4,2021.1.4,Win32,60.45949214,,,,,,,,,
,,,,,,,,,,,,0,3,3,3,1,fourth,3,21,female,right,donders,2021-07-09_12h19.12.929,ImageRatingTask_S4,2021.1.4,Win32,60.45949214,,,,,,,,,
,,,,,,,,,,,,0,4,4,4,1,fifth,3,21,female,right,donders,2021-07-09_12h19.12.929,ImageRatingTask_S4,2021.1.4,Win32,60.45949214,,,,,,,,,
,,,,,,,,,,,,0,5,5,5,1,sixth,3,21,female,right,donders,2021-07-09_12h19.12.929,ImageRatingTask_S4,2021.1.4,Win32,60.45949214,,,,,,,,,
,,,,,,,,,,,,0,6,6,6,1,seventh,3,21,female,right,donders,2021-07-09_12h19.12.929,ImageRatingTask_S4,2021.1.4,Win32,60.45949214,,,,,,,,,
,,,,,,,,,,,,0,7,7,7,1,last,3,21,female,right,donders,2021-07-09_12h19.12.929,ImageRatingTask_S4,2021.1.4,Win32,60.45949214,,,,,,,,,
,,,,,,,,,,,,,,,,,,3,21,female,right,donders,2021-07-09_12h19.12.929,ImageRatingTask_S4,2021.1.4,Win32,60.45949214,0,15,15,21,1,DreamStudyImages_rs1000x750g/Vehicles/IAPS6930_rockets.jpg,,,
,,5,2.9263,1,0.1387,7,0.6899,1,0.733,2,0.5623,0,0,0,0,1,main,3,21,female,right,donders,2021-07-09_12h19.12.929,ImageRatingTask_S4,2021.1.4,Win32,60.45949214,,,,,,,,,
,,,,,,,,,,,,0,1,1,1,1,second,3,21,female,right,donders,2021-07-09_12h19.12.929,ImageRatingTask_S4,2021.1.4,Win32,60.45949214,,,,,,,,,
,,,,,,,,,,,,0,2,2,2,1,third,3,21,female,right,donders,2021-07-09_12h19.12.929,ImageRatingTask_S4,2021.1.4,Win32,60.45949214,,,,,,,,,
,,,,,,,,,,,,0,3,3,3,1,fourth,3,21,female,right,donders,2021-07-09_12h19.12.929,ImageRatingTask_S4,2021.1.4,Win32,60.45949214,,,,,,,,,
,,,,,,,,,,,,0,4,4,4,1,fifth,3,21,female,right,donders,2021-07-09_12h19.12.929,ImageRatingTask_S4,2021.1.4,Win32,60.45949214,,,,,,,,,
,,,,,,,,,,,,0,5,5,5,1,sixth,3,21,female,right,donders,2021-07-09_12h19.12.929,ImageRatingTask_S4,2021.1.4,Win32,60.45949214,,,,,,,,,
,,,,,,,,,,,,0,6,6,6,1,seventh,3,21,female,right,donders,2021-07-09_12h19.12.929,ImageRatingTask_S4,2021.1.4,Win32,60.45949214,,,,,,,,,
,,,,,,,,,,,,0,7,7,7,1,last,3,21,female,right,donders,2021-07-09_12h19.12.929,ImageRatingTask_S4,2021.1.4,Win32,60.45949214,,,,,,,,,
,,,,,,,,,,,,,,,,,,3,21,female,right,donders,2021-07-09_12h19.12.929,ImageRatingTask_S4,2021.1.4,Win32,60.45949214,0,16,16,91,1,DreamStudyImages_rs1000x750g/Children/Faces_069_h.jpg,,,
,,5,1.6044,1,0.1554,8,0.9815,1,0.7348,2,0.5309,0,0,0,0,1,main,3,21,female,right,donders,2021-07-09_12h19.12.929,ImageRatingTask_S4,2021.1.4,Win32,60.45949214,,,,,,,,,
,,,,,,,,,,,,0,1,1,1,1,second,3,21,female,right,donders,2021-07-09_12h19.12.929,ImageRatingTask_S4,2021.1.4,Win32,60.45949214,,,,,,,,,
,,,,,,,,,,,,0,2,2,2,1,third,3,21,female,right,donders,2021-07-09_12h19.12.929,ImageRatingTask_S4,2021.1.4,Win32,60.45949214,,,,,,,,,
,,,,,,,,,,,,0,3,3,3,1,fourth,3,21,female,right,donders,2021-07-09_12h19.12.929,ImageRatingTask_S4,2021.1.4,Win32,60.45949214,,,,,,,,,
,,,,,,,,,,,,0,4,4,4,1,fifth,3,21,female,right,donders,2021-07-09_12h19.12.929,ImageRatingTask_S4,2021.1.4,Win32,60.45949214,,,,,,,,,
,,,,,,,,,,,,0,5,5,5,1,sixth,3,21,female,right,donders,2021-07-09_12h19.12.929,ImageRatingTask_S4,2021.1.4,Win32,60.45949214,,,,,,,,,
,,,,,,,,,,,,0,6,6,6,1,seventh,3,21,female,right,donders,2021-07-09_12h19.12.929,ImageRatingTask_S4,2021.1.4,Win32,60.45949214,,,,,,,,,
,,,,,,,,,,,,0,7,7,7,1,last,3,21,female,right,donders,2021-07-09_12h19.12.929,ImageRatingTask_S4,2021.1.4,Win32,60.45949214,,,,,,,,,
,,,,,,,,,,,,,,,,,,3,21,female,right,donders,2021-07-09_12h19.12.929,ImageRatingTask_S4,2021.1.4,Win32,60.45949214,0,17,17,107,1,DreamStudyImages_rs1000x750g/Children/Faces_049_h.jpg,,,
,,5,2.0951,1,0.1963,9,0.3918,1,0.4593,7,0.5231,0,0,0,0,1,main,3,21,female,right,donders,2021-07-09_12h19.12.929,ImageRatingTask_S4,2021.1.4,Win32,60.45949214,,,,,,,,,
,,,,,,,,,,,,0,1,1,1,1,second,3,21,female,right,donders,2021-07-09_12h19.12.929,ImageRatingTask_S4,2021.1.4,Win32,60.45949214,,,,,,,,,
,,,,,,,,,,,,0,2,2,2,1,third,3,21,female,right,donders,2021-07-09_12h19.12.929,ImageRatingTask_S4,2021.1.4,Win32,60.45949214,,,,,,,,,
,,,,,,,,,,,,0,3,3,3,1,fourth,3,21,female,right,donders,2021-07-09_12h19.12.929,ImageRatingTask_S4,2021.1.4,Win32,60.45949214,,,,,,,,,
,,,,,,,,,,,,0,4,4,4,1,fifth,3,21,female,right,donders,2021-07-09_12h19.12.929,ImageRatingTask_S4,2021.1.4,Win32,60.45949214,,,,,,,,,
,,,,,,,,,,,,0,5,5,5,1,sixth,3,21,female,right,donders,2021-07-09_12h19.12.929,ImageRatingTask_S4,2021.1.4,Win32,60.45949214,,,,,,,,,
,,,,,,,,,,,,0,6,6,6,1,seventh,3,21,female,right,donders,2021-07-09_12h19.12.929,ImageRatingTask_S4,2021.1.4,Win32,60.45949214,,,,,,,,,
,,,,,,,,,,,,0,7,7,7,1,last,3,21,female,right,donders,2021-07-09_12h19.12.929,ImageRatingTask_S4,2021.1.4,Win32,60.45949214,,,,,,,,,
,,,,,,,,,,,,,,,,,,3,21,female,right,donders,2021-07-09_12h19.12.929,ImageRatingTask_S4,2021.1.4,Win32,60.45949214,0,18,18,101,1,DreamStudyImages_rs1000x750g/Vehicles/Objects_322_h.jpg,,,
,,4,6.2057,2,0.655,9,2.4253,0,3.8269,,,0,0,0,0,1,main,3,21,female,right,donders,2021-07-09_12h19.12.929,ImageRatingTask_S4,2021.1.4,Win32,60.45949214,,,,,,,,,
,,,,,,,,,,,,0,1,1,1,1,second,3,21,female,right,donders,2021-07-09_12h19.12.929,ImageRatingTask_S4,2021.1.4,Win32,60.45949214,,,,,,,,,
,,,,,,,,,,,,0,2,2,2,1,third,3,21,female,right,donders,2021-07-09_12h19.12.929,ImageRatingTask_S4,2021.1.4,Win32,60.45949214,,,,,,,,,
,,,,,,,,,,,,0,3,3,3,1,fourth,3,21,female,right,donders,2021-07-09_12h19.12.929,ImageRatingTask_S4,2021.1.4,Win32,60.45949214,,,,,,,,,
,,,,,,,,,,,,0,4,4,4,1,fifth,3,21,female,right,donders,2021-07-09_12h19.12.929,ImageRatingTask_S4,2021.1.4,Win32,60.45949214,,,,,,,,,
,,,,,,,,,,,,0,5,5,5,1,sixth,3,21,female,right,donders,2021-07-09_12h19.12.929,ImageRatingTask_S4,2021.1.4,Win32,60.45949214,,,,,,,,,
,,,,,,,,,,,,0,6,6,6,1,seventh,3,21,female,right,donders,2021-07-09_12h19.12.929,ImageRatingTask_S4,2021.1.4,Win32,60.45949214,,,,,,,,,
,,,,,,,,,,,,0,7,7,7,1,last,3,21,female,right,donders,2021-07-09_12h19.12.929,ImageRatingTask_S4,2021.1.4,Win32,60.45949214,,,,,,,,,
,,,,,,,,,,,,,,,,,,3,21,female,right,donders,2021-07-09_12h19.12.929,ImageRatingTask_S4,2021.1.4,Win32,60.45949214,0,19,19,4,1,DreamStudyImages_rs1000x750g/Houses/Landscapes_007_h.jpg,,,
,,5,3.4621,1,0.573,9,0.7948,1,0.6578,7,0.6243,0,0,0,0,1,main,3,21,female,right,donders,2021-07-09_12h19.12.929,ImageRatingTask_S4,2021.1.4,Win32,60.45949214,,,,,,,,,
,,,,,,,,,,,,0,1,1,1,1,second,3,21,female,right,donders,2021-07-09_12h19.12.929,ImageRatingTask_S4,2021.1.4,Win32,60.45949214,,,,,,,,,
,,,,,,,,,,,,0,2,2,2,1,third,3,21,female,right,donders,2021-07-09_12h19.12.929,ImageRatingTask_S4,2021.1.4,Win32,60.45949214,,,,,,,,,
,,,,,,,,,,,,0,3,3,3,1,fourth,3,21,female,right,donders,2021-07-09_12h19.12.929,ImageRatingTask_S4,2021.1.4,Win32,60.45949214,,,,,,,,,
,,,,,,,,,,,,0,4,4,4,1,fifth,3,21,female,right,donders,2021-07-09_12h19.12.929,ImageRatingTask_S4,2021.1.4,Win32,60.45949214,,,,,,,,,
,,,,,,,,,,,,0,5,5,5,1,sixth,3,21,female,right,donders,2021-07-09_12h19.12.929,ImageRatingTask_S4,2021.1.4,Win32,60.45949214,,,,,,,,,
,,,,,,,,,,,,0,6,6,6,1,seventh,3,21,female,right,donders,2021-07-09_12h19.12.929,ImageRatingTask_S4,2021.1.4,Win32,60.45949214,,,,,,,,,
,,,,,,,,,,,,0,7,7,7,1,last,3,21,female,right,donders,2021-07-09_12h19.12.929,ImageRatingTask_S4,2021.1.4,Win32,60.45949214,,,,,,,,,
,,,,,,,,,,,,,,,,,,3,21,female,right,donders,2021-07-09_12h19.12.929,ImageRatingTask_S4,2021.1.4,Win32,60.45949214,0,20,20,74,1,DreamStudyImages_rs1000x750g/Vehicles/redcar.jpg,,,
,,3,7.5276,3,1.7183,7,2.2243,1,0.8669,3,0.8439,0,0,0,0,1,main,3,21,female,right,donders,2021-07-09_12h19.12.929,ImageRatingTask_S4,2021.1.4,Win32,60.45949214,,,,,,,,,
,,,,,,,,,,,,0,1,1,1,1,second,3,21,female,right,donders,2021-07-09_12h19.12.929,ImageRatingTask_S4,2021.1.4,Win32,60.45949214,,,,,,,,,
,,,,,,,,,,,,0,2,2,2,1,third,3,21,female,right,donders,2021-07-09_12h19.12.929,ImageRatingTask_S4,2021.1.4,Win32,60.45949214,,,,,,,,,
,,,,,,,,,,,,0,3,3,3,1,fourth,3,21,female,right,donders,2021-07-09_12h19.12.929,ImageRatingTask_S4,2021.1.4,Win32,60.45949214,,,,,,,,,
,,,,,,,,,,,,0,4,4,4,1,fifth,3,21,female,right,donders,2021-07-09_12h19.12.929,ImageRatingTask_S4,2021.1.4,Win32,60.45949214,,,,,,,,,
,,,,,,,,,,,,0,5,5,5,1,sixth,3,21,female,right,donders,2021-07-09_12h19.12.929,ImageRatingTask_S4,2021.1.4,Win32,60.45949214,,,,,,,,,
,,,,,,,,,,,,0,6,6,6,1,seventh,3,21,female,right,donders,2021-07-09_12h19.12.929,ImageRatingTask_S4,2021.1.4,Win32,60.45949214,,,,,,,,,
,,,,,,,,,,,,0,7,7,7,1,last,3,21,female,right,donders,2021-07-09_12h19.12.929,ImageRatingTask_S4,2021.1.4,Win32,60.45949214,,,,,,,,,
,,,,,,,,,,,,,,,,,,3,21,female,right,donders,2021-07-09_12h19.12.929,ImageRatingTask_S4,2021.1.4,Win32,60.45949214,0,21,21,49,1,DreamStudyImages_rs1000x750g/Mammals/Animal carcass 6.jpg,,,
,,5,6.8273,1,0.1513,8,1.7666,1,0.6925,5,0.6623,0,0,0,0,1,main,3,21,female,right,donders,2021-07-09_12h19.12.929,ImageRatingTask_S4,2021.1.4,Win32,60.45949214,,,,,,,,,
,,,,,,,,,,,,0,1,1,1,1,second,3,21,female,right,donders,2021-07-09_12h19.12.929,ImageRatingTask_S4,2021.1.4,Win32,60.45949214,,,,,,,,,
,,,,,,,,,,,,0,2,2,2,1,third,3,21,female,right,donders,2021-07-09_12h19.12.929,ImageRatingTask_S4,2021.1.4,Win32,60.45949214,,,,,,,,,
,,,,,,,,,,,,0,3,3,3,1,fourth,3,21,female,right,donders,2021-07-09_12h19.12.929,ImageRatingTask_S4,2021.1.4,Win32,60.45949214,,,,,,,,,
,,,,,,,,,,,,0,4,4,4,1,fifth,3,21,female,right,donders,2021-07-09_12h19.12.929,ImageRatingTask_S4,2021.1.4,Win32,60.45949214,,,,,,,,,
,,,,,,,,,,,,0,5,5,5,1,sixth,3,21,female,right,donders,2021-07-09_12h19.12.929,ImageRatingTask_S4,2021.1.4,Win32,60.45949214,,,,,,,,,
,,,,,,,,,,,,0,6,6,6,1,seventh,3,21,female,right,donders,2021-07-09_12h19.12.929,ImageRatingTask_S4,2021.1.4,Win32,60.45949214,,,,,,,,,
,,,,,,,,,,,,0,7,7,7,1,last,3,21,female,right,donders,2021-07-09_12h19.12.929,ImageRatingTask_S4,2021.1.4,Win32,60.45949214,,,,,,,,,
,,,,,,,,,,,,,,,,,,3,21,female,right,donders,2021-07-09_12h19.12.929,ImageRatingTask_S4,2021.1.4,Win32,60.45949214,0,22,22,37,1,DreamStudyImages_rs1000x750g/Food/Objects_036_v.jpg,,,
,,4,3.8209,2,0.4312,7,1.4419,1,0.5905,3,0.7135,0,0,0,0,1,main,3,21,female,right,donders,2021-07-09_12h19.12.929,ImageRatingTask_S4,2021.1.4,Win32,60.45949214,,,,,,,,,
,,,,,,,,,,,,0,1,1,1,1,second,3,21,female,right,donders,2021-07-09_12h19.12.929,ImageRatingTask_S4,2021.1.4,Win32,60.45949214,,,,,,,,,
,,,,,,,,,,,,0,2,2,2,1,third,3,21,female,right,donders,2021-07-09_12h19.12.929,ImageRatingTask_S4,2021.1.4,Win32,60.45949214,,,,,,,,,
,,,,,,,,,,,,0,3,3,3,1,fourth,3,21,female,right,donders,2021-07-09_12h19.12.929,ImageRatingTask_S4,2021.1.4,Win32,60.45949214,,,,,,,,,
,,,,,,,,,,,,0,4,4,4,1,fifth,3,21,female,right,donders,2021-07-09_12h19.12.929,ImageRatingTask_S4,2021.1.4,Win32,60.45949214,,,,,,,,,
,,,,,,,,,,,,0,5,5,5,1,sixth,3,21,female,right,donders,2021-07-09_12h19.12.929,ImageRatingTask_S4,2021.1.4,Win32,60.45949214,,,,,,,,,
,,,,,,,,,,,,0,6,6,6,1,seventh,3,21,female,right,donders,2021-07-09_12h19.12.929,ImageRatingTask_S4,2021.1.4,Win32,60.45949214,,,,,,,,,
,,,,,,,,,,,,0,7,7,7,1,last,3,21,female,right,donders,2021-07-09_12h19.12.929,ImageRatingTask_S4,2021.1.4,Win32,60.45949214,,,,,,,,,
,,,,,,,,,,,,,,,,,,3,21,female,right,donders,2021-07-09_12h19.12.929,ImageRatingTask_S4,2021.1.4,Win32,60.45949214,0,23,23,7,1,DreamStudyImages_rs1000x750g/Mammals/IAPS1302_dog3.jpg,,,
,,5,1.9942,1,0.1871,6,0.849,1,0.965,2,0.3483,0,0,0,0,1,main,3,21,female,right,donders,2021-07-09_12h19.12.929,ImageRatingTask_S4,2021.1.4,Win32,60.45949214,,,,,,,,,
,,,,,,,,,,,,0,1,1,1,1,second,3,21,female,right,donders,2021-07-09_12h19.12.929,ImageRatingTask_S4,2021.1.4,Win32,60.45949214,,,,,,,,,
,,,,,,,,,,,,0,2,2,2,1,third,3,21,female,right,donders,2021-07-09_12h19.12.929,ImageRatingTask_S4,2021.1.4,Win32,60.45949214,,,,,,,,,
,,,,,,,,,,,,0,3,3,3,1,fourth,3,21,female,right,donders,2021-07-09_12h19.12.929,ImageRatingTask_S4,2021.1.4,Win32,60.45949214,,,,,,,,,
,,,,,,,,,,,,0,4,4,4,1,fifth,3,21,female,right,donders,2021-07-09_12h19.12.929,ImageRatingTask_S4,2021.1.4,Win32,60.45949214,,,,,,,,,
,,,,,,,,,,,,0,5,5,5,1,sixth,3,21,female,right,donders,2021-07-09_12h19.12.929,ImageRatingTask_S4,2021.1.4,Win32,60.45949214,,,,,,,,,
,,,,,,,,,,,,0,6,6,6,1,seventh,3,21,female,right,donders,2021-07-09_12h19.12.929,ImageRatingTask_S4,2021.1.4,Win32,60.45949214,,,,,,,,,
,,,,,,,,,,,,0,7,7,7,1,last,3,21,female,right,donders,2021-07-09_12h19.12.929,ImageRatingTask_S4,2021.1.4,Win32,60.45949214,,,,,,,,,
,,,,,,,,,,,,,,,,,,3,21,female,right,donders,2021-07-09_12h19.12.929,ImageRatingTask_S4,2021.1.4,Win32,60.45949214,0,24,24,136,1,DreamStudyImages_rs1000x750g/Children/Faces_042_h.jpg,,,
,,5,3.7216,1,0.3491,7,1.1145,1,1.0093,5,0.7905,0,0,0,0,1,main,3,21,female,right,donders,2021-07-09_12h19.12.929,ImageRatingTask_S4,2021.1.4,Win32,60.45949214,,,,,,,,,
,,,,,,,,,,,,0,1,1,1,1,second,3,21,female,right,donders,2021-07-09_12h19.12.929,ImageRatingTask_S4,2021.1.4,Win32,60.45949214,,,,,,,,,
,,,,,,,,,,,,0,2,2,2,1,third,3,21,female,right,donders,2021-07-09_12h19.12.929,ImageRatingTask_S4,2021.1.4,Win32,60.45949214,,,,,,,,,
,,,,,,,,,,,,0,3,3,3,1,fourth,3,21,female,right,donders,2021-07-09_12h19.12.929,ImageRatingTask_S4,2021.1.4,Win32,60.45949214,,,,,,,,,
,,,,,,,,,,,,0,4,4,4,1,fifth,3,21,female,right,donders,2021-07-09_12h19.12.929,ImageRatingTask_S4,2021.1.4,Win32,60.45949214,,,,,,,,,
,,,,,,,,,,,,0,5,5,5,1,sixth,3,21,female,right,donders,2021-07-09_12h19.12.929,ImageRatingTask_S4,2021.1.4,Win32,60.45949214,,,,,,,,,
,,,,,,,,,,,,0,6,6,6,1,seventh,3,21,female,right,donders,2021-07-09_12h19.12.929,ImageRatingTask_S4,2021.1.4,Win32,60.45949214,,,,,,,,,
,,,,,,,,,,,,0,7,7,7,1,last,3,21,female,right,donders,2021-07-09_12h19.12.929,ImageRatingTask_S4,2021.1.4,Win32,60.45949214,,,,,,,,,
,,,,,,,,,,,,,,,,,,3,21,female,right,donders,2021-07-09_12h19.12.929,ImageRatingTask_S4,2021.1.4,Win32,60.45949214,0,25,25,51,1,DreamStudyImages_rs1000x750g/Food/Objects_101_h.jpg,,,
,,6,2.0272,3,0.7951,7,1.6998,1,0.4332,2,0.4829,0,0,0,0,1,main,3,21,female,right,donders,2021-07-09_12h19.12.929,ImageRatingTask_S4,2021.1.4,Win32,60.45949214,,,,,,,,,
,,,,,,,,,,,,0,1,1,1,1,second,3,21,female,right,donders,2021-07-09_12h19.12.929,ImageRatingTask_S4,2021.1.4,Win32,60.45949214,,,,,,,,,
,,,,,,,,,,,,0,2,2,2,1,third,3,21,female,right,donders,2021-07-09_12h19.12.929,ImageRatingTask_S4,2021.1.4,Win32,60.45949214,,,,,,,,,
,,,,,,,,,,,,0,3,3,3,1,fourth,3,21,female,right,donders,2021-07-09_12h19.12.929,ImageRatingTask_S4,2021.1.4,Win32,60.45949214,,,,,,,,,
,,,,,,,,,,,,0,4,4,4,1,fifth,3,21,female,right,donders,2021-07-09_12h19.12.929,ImageRatingTask_S4,2021.1.4,Win32,60.45949214,,,,,,,,,
,,,,,,,,,,,,0,5,5,5,1,sixth,3,21,female,right,donders,2021-07-09_12h19.12.929,ImageRatingTask_S4,2021.1.4,Win32,60.45949214,,,,,,,,,
,,,,,,,,,,,,0,6,6,6,1,seventh,3,21,female,right,donders,2021-07-09_12h19.12.929,ImageRatingTask_S4,2021.1.4,Win32,60.45949214,,,,,,,,,
,,,,,,,,,,,,0,7,7,7,1,last,3,21,female,right,donders,2021-07-09_12h19.12.929,ImageRatingTask_S4,2021.1.4,Win32,60.45949214,,,,,,,,,
,,,,,,,,,,,,,,,,,,3,21,female,right,donders,2021-07-09_12h19.12.929,ImageRatingTask_S4,2021.1.4,Win32,60.45949214,0,26,26,152,1,DreamStudyImages_rs1000x750g/Children/IAPS2345_children11.jpg,,,
,,4,12.3587,2,5.2438,6,2.535,0,1.5162,,,0,0,0,0,1,main,3,21,female,right,donders,2021-07-09_12h19.12.929,ImageRatingTask_S4,2021.1.4,Win32,60.45949214,,,,,,,,,
,,,,,,,,,,,,0,1,1,1,1,second,3,21,female,right,donders,2021-07-09_12h19.12.929,ImageRatingTask_S4,2021.1.4,Win32,60.45949214,,,,,,,,,
,,,,,,,,,,,,0,2,2,2,1,third,3,21,female,right,donders,2021-07-09_12h19.12.929,ImageRatingTask_S4,2021.1.4,Win32,60.45949214,,,,,,,,,
,,,,,,,,,,,,0,3,3,3,1,fourth,3,21,female,right,donders,2021-07-09_12h19.12.929,ImageRatingTask_S4,2021.1.4,Win32,60.45949214,,,,,,,,,
,,,,,,,,,,,,0,4,4,4,1,fifth,3,21,female,right,donders,2021-07-09_12h19.12.929,ImageRatingTask_S4,2021.1.4,Win32,60.45949214,,,,,,,,,
,,,,,,,,,,,,0,5,5,5,1,sixth,3,21,female,right,donders,2021-07-09_12h19.12.929,ImageRatingTask_S4,2021.1.4,Win32,60.45949214,,,,,,,,,
,,,,,,,,,,,,0,6,6,6,1,seventh,3,21,female,right,donders,2021-07-09_12h19.12.929,ImageRatingTask_S4,2021.1.4,Win32,60.45949214,,,,,,,,,
,,,,,,,,,,,,0,7,7,7,1,last,3,21,female,right,donders,2021-07-09_12h19.12.929,ImageRatingTask_S4,2021.1.4,Win32,60.45949214,,,,,,,,,
,,,,,,,,,,,,,,,,,,3,21,female,right,donders,2021-07-09_12h19.12.929,ImageRatingTask_S4,2021.1.4,Win32,60.45949214,0,27,27,111,1,DreamStudyImages_rs1000x750g/Food/Objects_023_v.jpg,,,
,,4,6.8382,2,0.4028,9,1.5129,1,0.4992,2,0.4334,0,0,0,0,1,main,3,21,female,right,donders,2021-07-09_12h19.12.929,ImageRatingTask_S4,2021.1.4,Win32,60.45949214,,,,,,,,,
,,,,,,,,,,,,0,1,1,1,1,second,3,21,female,right,donders,2021-07-09_12h19.12.929,ImageRatingTask_S4,2021.1.4,Win32,60.45949214,,,,,,,,,
,,,,,,,,,,,,0,2,2,2,1,third,3,21,female,right,donders,2021-07-09_12h19.12.929,ImageRatingTask_S4,2021.1.4,Win32,60.45949214,,,,,,,,,
,,,,,,,,,,,,0,3,3,3,1,fourth,3,21,female,right,donders,2021-07-09_12h19.12.929,ImageRatingTask_S4,2021.1.4,Win32,60.45949214,,,,,,,,,
,,,,,,,,,,,,0,4,4,4,1,fifth,3,21,female,right,donders,2021-07-09_12h19.12.929,ImageRatingTask_S4,2021.1.4,Win32,60.45949214,,,,,,,,,
,,,,,,,,,,,,0,5,5,5,1,sixth,3,21,female,right,donders,2021-07-09_12h19.12.929,ImageRatingTask_S4,2021.1.4,Win32,60.45949214,,,,,,,,,
,,,,,,,,,,,,0,6,6,6,1,seventh,3,21,female,right,donders,2021-07-09_12h19.12.929,ImageRatingTask_S4,2021.1.4,Win32,60.45949214,,,,,,,,,
,,,,,,,,,,,,0,7,7,7,1,last,3,21,female,right,donders,2021-07-09_12h19.12.929,ImageRatingTask_S4,2021.1.4,Win32,60.45949214,,,,,,,,,
,,,,,,,,,,,,,,,,,,3,21,female,right,donders,2021-07-09_12h19.12.929,ImageRatingTask_S4,2021.1.4,Win32,60.45949214,0,28,28,105,1,DreamStudyImages_rs1000x750g/Children/Faces_024_h.jpg,,,
,,5,1.7101,1,0.1286,7,1.4167,1,0.8499,5,1.0073,0,0,0,0,1,main,3,21,female,right,donders,2021-07-09_12h19.12.929,ImageRatingTask_S4,2021.1.4,Win32,60.45949214,,,,,,,,,
,,,,,,,,,,,,0,1,1,1,1,second,3,21,female,right,donders,2021-07-09_12h19.12.929,ImageRatingTask_S4,2021.1.4,Win32,60.45949214,,,,,,,,,
,,,,,,,,,,,,0,2,2,2,1,third,3,21,female,right,donders,2021-07-09_12h19.12.929,ImageRatingTask_S4,2021.1.4,Win32,60.45949214,,,,,,,,,
,,,,,,,,,,,,0,3,3,3,1,fourth,3,21,female,right,donders,2021-07-09_12h19.12.929,ImageRatingTask_S4,2021.1.4,Win32,60.45949214,,,,,,,,,
,,,,,,,,,,,,0,4,4,4,1,fifth,3,21,female,right,donders,2021-07-09_12h19.12.929,ImageRatingTask_S4,2021.1.4,Win32,60.45949214,,,,,,,,,
,,,,,,,,,,,,0,5,5,5,1,sixth,3,21,female,right,donders,2021-07-09_12h19.12.929,ImageRatingTask_S4,2021.1.4,Win32,60.45949214,,,,,,,,,
,,,,,,,,,,,,0,6,6,6,1,seventh,3,21,female,right,donders,2021-07-09_12h19.12.929,ImageRatingTask_S4,2021.1.4,Win32,60.45949214,,,,,,,,,
,,,,,,,,,,,,0,7,7,7,1,last,3,21,female,right,donders,2021-07-09_12h19.12.929,ImageRatingTask_S4,2021.1.4,Win32,60.45949214,,,,,,,,,
,,,,,,,,,,,,,,,,,,3,21,female,right,donders,2021-07-09_12h19.12.929,ImageRatingTask_S4,2021.1.4,Win32,60.45949214,0,29,29,30,1,DreamStudyImages_rs1000x750g/Food/Wedding 4.jpg,,,
,,5,1.7346,1,0.1439,9,0.6741,1,0.4418,2,0.4113,0,0,0,0,1,main,3,21,female,right,donders,2021-07-09_12h19.12.929,ImageRatingTask_S4,2021.1.4,Win32,60.45949214,,,,,,,,,
,,,,,,,,,,,,0,1,1,1,1,second,3,21,female,right,donders,2021-07-09_12h19.12.929,ImageRatingTask_S4,2021.1.4,Win32,60.45949214,,,,,,,,,
,,,,,,,,,,,,0,2,2,2,1,third,3,21,female,right,donders,2021-07-09_12h19.12.929,ImageRatingTask_S4,2021.1.4,Win32,60.45949214,,,,,,,,,
,,,,,,,,,,,,0,3,3,3,1,fourth,3,21,female,right,donders,2021-07-09_12h19.12.929,ImageRatingTask_S4,2021.1.4,Win32,60.45949214,,,,,,,,,
,,,,,,,,,,,,0,4,4,4,1,fifth,3,21,female,right,donders,2021-07-09_12h19.12.929,ImageRatingTask_S4,2021.1.4,Win32,60.45949214,,,,,,,,,
,,,,,,,,,,,,0,5,5,5,1,sixth,3,21,female,right,donders,2021-07-09_12h19.12.929,ImageRatingTask_S4,2021.1.4,Win32,60.45949214,,,,,,,,,
,,,,,,,,,,,,0,6,6,6,1,seventh,3,21,female,right,donders,2021-07-09_12h19.12.929,ImageRatingTask_S4,2021.1.4,Win32,60.45949214,,,,,,,,,
,,,,,,,,,,,,0,7,7,7,1,last,3,21,female,right,donders,2021-07-09_12h19.12.929,ImageRatingTask_S4,2021.1.4,Win32,60.45949214,,,,,,,,,
,,,,,,,,,,,,,,,,,,3,21,female,right,donders,2021-07-09_12h19.12.929,ImageRatingTask_S4,2021.1.4,Win32,60.45949214,0,30,30,120,1,DreamStudyImages_rs1000x750g/Children/Faces_082_v.jpg,,,
,,5,1.3249,1,0.1363,9,1.1262,1,0.4364,6,0.5668,0,0,0,0,1,main,3,21,female,right,donders,2021-07-09_12h19.12.929,ImageRatingTask_S4,2021.1.4,Win32,60.45949214,,,,,,,,,
,,,,,,,,,,,,0,1,1,1,1,second,3,21,female,right,donders,2021-07-09_12h19.12.929,ImageRatingTask_S4,2021.1.4,Win32,60.45949214,,,,,,,,,
,,,,,,,,,,,,0,2,2,2,1,third,3,21,female,right,donders,2021-07-09_12h19.12.929,ImageRatingTask_S4,2021.1.4,Win32,60.45949214,,,,,,,,,
,,,,,,,,,,,,0,3,3,3,1,fourth,3,21,female,right,donders,2021-07-09_12h19.12.929,ImageRatingTask_S4,2021.1.4,Win32,60.45949214,,,,,,,,,
,,,,,,,,,,,,0,4,4,4,1,fifth,3,21,female,right,donders,2021-07-09_12h19.12.929,ImageRatingTask_S4,2021.1.4,Win32,60.45949214,,,,,,,,,
,,,,,,,,,,,,0,5,5,5,1,sixth,3,21,female,right,donders,2021-07-09_12h19.12.929,ImageRatingTask_S4,2021.1.4,Win32,60.45949214,,,,,,,,,
,,,,,,,,,,,,0,6,6,6,1,seventh,3,21,female,right,donders,2021-07-09_12h19.12.929,ImageRatingTask_S4,2021.1.4,Win32,60.45949214,,,,,,,,,
,,,,,,,,,,,,0,7,7,7,1,last,3,21,female,right,donders,2021-07-09_12h19.12.929,ImageRatingTask_S4,2021.1.4,Win32,60.45949214,,,,,,,,,
,,,,,,,,,,,,,,,,,,3,21,female,right,donders,2021-07-09_12h19.12.929,ImageRatingTask_S4,2021.1.4,Win32,60.45949214,0,31,31,40,1,DreamStudyImages_rs1000x750g/Houses/Landscapes_046_h.jpg,,,
,,6,2.4025,3,0.8247,8,1.834,1,0.7507,5,0.5998,0,0,0,0,1,main,3,21,female,right,donders,2021-07-09_12h19.12.929,ImageRatingTask_S4,2021.1.4,Win32,60.45949214,,,,,,,,,
,,,,,,,,,,,,0,1,1,1,1,second,3,21,female,right,donders,2021-07-09_12h19.12.929,ImageRatingTask_S4,2021.1.4,Win32,60.45949214,,,,,,,,,
,,,,,,,,,,,,0,2,2,2,1,third,3,21,female,right,donders,2021-07-09_12h19.12.929,ImageRatingTask_S4,2021.1.4,Win32,60.45949214,,,,,,,,,
,,,,,,,,,,,,0,3,3,3,1,fourth,3,21,female,right,donders,2021-07-09_12h19.12.929,ImageRatingTask_S4,2021.1.4,Win32,60.45949214,,,,,,,,,
,,,,,,,,,,,,0,4,4,4,1,fifth,3,21,female,right,donders,2021-07-09_12h19.12.929,ImageRatingTask_S4,2021.1.4,Win32,60.45949214,,,,,,,,,
,,,,,,,,,,,,0,5,5,5,1,sixth,3,21,female,right,donders,2021-07-09_12h19.12.929,ImageRatingTask_S4,2021.1.4,Win32,60.45949214,,,,,,,,,
,,,,,,,,,,,,0,6,6,6,1,seventh,3,21,female,right,donders,2021-07-09_12h19.12.929,ImageRatingTask_S4,2021.1.4,Win32,60.45949214,,,,,,,,,
,,,,,,,,,,,,0,7,7,7,1,last,3,21,female,right,donders,2021-07-09_12h19.12.929,ImageRatingTask_S4,2021.1.4,Win32,60.45949214,,,,,,,,,
,,,,,,,,,,,,,,,,,,3,21,female,right,donders,2021-07-09_12h19.12.929,ImageRatingTask_S4,2021.1.4,Win32,60.45949214,0,32,32,81,1,DreamStudyImages_rs1000x750g/Food/IAPS7470_pancakes.jpg,,,
,,5,1.691,1,0.3419,5,1.3504,1,0.9089,8,0.65,0,0,0,0,1,main,3,21,female,right,donders,2021-07-09_12h19.12.929,ImageRatingTask_S4,2021.1.4,Win32,60.45949214,,,,,,,,,
,,,,,,,,,,,,0,1,1,1,1,second,3,21,female,right,donders,2021-07-09_12h19.12.929,ImageRatingTask_S4,2021.1.4,Win32,60.45949214,,,,,,,,,
,,,,,,,,,,,,0,2,2,2,1,third,3,21,female,right,donders,2021-07-09_12h19.12.929,ImageRatingTask_S4,2021.1.4,Win32,60.45949214,,,,,,,,,
,,,,,,,,,,,,0,3,3,3,1,fourth,3,21,female,right,donders,2021-07-09_12h19.12.929,ImageRatingTask_S4,2021.1.4,Win32,60.45949214,,,,,,,,,
,,,,,,,,,,,,0,4,4,4,1,fifth,3,21,female,right,donders,2021-07-09_12h19.12.929,ImageRatingTask_S4,2021.1.4,Win32,60.45949214,,,,,,,,,
,,,,,,,,,,,,0,5,5,5,1,sixth,3,21,female,right,donders,2021-07-09_12h19.12.929,ImageRatingTask_S4,2021.1.4,Win32,60.45949214,,,,,,,,,
,,,,,,,,,,,,0,6,6,6,1,seventh,3,21,female,right,donders,2021-07-09_12h19.12.929,ImageRatingTask_S4,2021.1.4,Win32,60.45949214,,,,,,,,,
,,,,,,,,,,,,0,7,7,7,1,last,3,21,female,right,donders,2021-07-09_12h19.12.929,ImageRatingTask_S4,2021.1.4,Win32,60.45949214,,,,,,,,,
,,,,,,,,,,,,,,,,,,3,21,female,right,donders,2021-07-09_12h19.12.929,ImageRatingTask_S4,2021.1.4,Win32,60.45949214,0,33,33,109,1,DreamStudyImages_rs1000x750g/Water/IAPS5780_lake2.jpg,,,
,,8,2.4095,4,2.0591,8,15.2139,1,1.1328,5,0.7416,0,0,0,0,1,main,3,21,female,right,donders,2021-07-09_12h19.12.929,ImageRatingTask_S4,2021.1.4,Win32,60.45949214,,,,,,,,,
,,,,,,,,,,,,0,1,1,1,1,second,3,21,female,right,donders,2021-07-09_12h19.12.929,ImageRatingTask_S4,2021.1.4,Win32,60.45949214,,,,,,,,,
,,,,,,,,,,,,0,2,2,2,1,third,3,21,female,right,donders,2021-07-09_12h19.12.929,ImageRatingTask_S4,2021.1.4,Win32,60.45949214,,,,,,,,,
,,,,,,,,,,,,0,3,3,3,1,fourth,3,21,female,right,donders,2021-07-09_12h19.12.929,ImageRatingTask_S4,2021.1.4,Win32,60.45949214,,,,,,,,,
,,,,,,,,,,,,0,4,4,4,1,fifth,3,21,female,right,donders,2021-07-09_12h19.12.929,ImageRatingTask_S4,2021.1.4,Win32,60.45949214,,,,,,,,,
,,,,,,,,,,,,0,5,5,5,1,sixth,3,21,female,right,donders,2021-07-09_12h19.12.929,ImageRatingTask_S4,2021.1.4,Win32,60.45949214,,,,,,,,,
,,,,,,,,,,,,0,6,6,6,1,seventh,3,21,female,right,donders,2021-07-09_12h19.12.929,ImageRatingTask_S4,2021.1.4,Win32,60.45949214,,,,,,,,,
,,,,,,,,,,,,0,7,7,7,1,last,3,21,female,right,donders,2021-07-09_12h19.12.929,ImageRatingTask_S4,2021.1.4,Win32,60.45949214,,,,,,,,,
,,,,,,,,,,,,,,,,,,3,21,female,right,donders,2021-07-09_12h19.12.929,ImageRatingTask_S4,2021.1.4,Win32,60.45949214,0,34,34,68,1,DreamStudyImages_rs1000x750g/Food/Food 2.jpg,,,
,,6,7.9416,3,0.576,8,2.8996,1,2.2658,3,0.8946,0,0,0,0,1,main,3,21,female,right,donders,2021-07-09_12h19.12.929,ImageRatingTask_S4,2021.1.4,Win32,60.45949214,,,,,,,,,
,,,,,,,,,,,,0,1,1,1,1,second,3,21,female,right,donders,2021-07-09_12h19.12.929,ImageRatingTask_S4,2021.1.4,Win32,60.45949214,,,,,,,,,
,,,,,,,,,,,,0,2,2,2,1,third,3,21,female,right,donders,2021-07-09_12h19.12.929,ImageRatingTask_S4,2021.1.4,Win32,60.45949214,,,,,,,,,
,,,,,,,,,,,,0,3,3,3,1,fourth,3,21,female,right,donders,2021-07-09_12h19.12.929,ImageRatingTask_S4,2021.1.4,Win32,60.45949214,,,,,,,,,
,,,,,,,,,,,,0,4,4,4,1,fifth,3,21,female,right,donders,2021-07-09_12h19.12.929,ImageRatingTask_S4,2021.1.4,Win32,60.45949214,,,,,,,,,
,,,,,,,,,,,,0,5,5,5,1,sixth,3,21,female,right,donders,2021-07-09_12h19.12.929,ImageRatingTask_S4,2021.1.4,Win32,60.45949214,,,,,,,,,
,,,,,,,,,,,,0,6,6,6,1,seventh,3,21,female,right,donders,2021-07-09_12h19.12.929,ImageRatingTask_S4,2021.1.4,Win32,60.45949214,,,,,,,,,
,,,,,,,,,,,,0,7,7,7,1,last,3,21,female,right,donders,2021-07-09_12h19.12.929,ImageRatingTask_S4,2021.1.4,Win32,60.45949214,,,,,,,,,
,,,,,,,,,,,,,,,,,,3,21,female,right,donders,2021-07-09_12h19.12.929,ImageRatingTask_S4,2021.1.4,Win32,60.45949214,0,35,35,98,1,DreamStudyImages_rs1000x750g/Mammals/Animals_110_h.jpg,,,
,,6,1.7415,2,0.3243,9,1.0334,1,0.5997,2,0.6496,0,0,0,0,1,main,3,21,female,right,donders,2021-07-09_12h19.12.929,ImageRatingTask_S4,2021.1.4,Win32,60.45949214,,,,,,,,,
,,,,,,,,,,,,0,1,1,1,1,second,3,21,female,right,donders,2021-07-09_12h19.12.929,ImageRatingTask_S4,2021.1.4,Win32,60.45949214,,,,,,,,,
,,,,,,,,,,,,0,2,2,2,1,third,3,21,female,right,donders,2021-07-09_12h19.12.929,ImageRatingTask_S4,2021.1.4,Win32,60.45949214,,,,,,,,,
,,,,,,,,,,,,0,3,3,3,1,fourth,3,21,female,right,donders,2021-07-09_12h19.12.929,ImageRatingTask_S4,2021.1.4,Win32,60.45949214,,,,,,,,,
,,,,,,,,,,,,0,4,4,4,1,fifth,3,21,female,right,donders,2021-07-09_12h19.12.929,ImageRatingTask_S4,2021.1.4,Win32,60.45949214,,,,,,,,,
,,,,,,,,,,,,0,5,5,5,1,sixth,3,21,female,right,donders,2021-07-09_12h19.12.929,ImageRatingTask_S4,2021.1.4,Win32,60.45949214,,,,,,,,,
,,,,,,,,,,,,0,6,6,6,1,seventh,3,21,female,right,donders,2021-07-09_12h19.12.929,ImageRatingTask_S4,2021.1.4,Win32,60.45949214,,,,,,,,,
,,,,,,,,,,,,0,7,7,7,1,last,3,21,female,right,donders,2021-07-09_12h19.12.929,ImageRatingTask_S4,2021.1.4,Win32,60.45949214,,,,,,,,,
,,,,,,,,,,,,,,,,,,3,21,female,right,donders,2021-07-09_12h19.12.929,ImageRatingTask_S4,2021.1.4,Win32,60.45949214,0,36,36,118,1,DreamStudyImages_rs1000x750g/Children/Faces_102_h.jpg,,,
,,3,6.2209,2,0.3935,9,1.4335,1,1.6785,8,0.6468,0,0,0,0,1,main,3,21,female,right,donders,2021-07-09_12h19.12.929,ImageRatingTask_S4,2021.1.4,Win32,60.45949214,,,,,,,,,
,,,,,,,,,,,,0,1,1,1,1,second,3,21,female,right,donders,2021-07-09_12h19.12.929,ImageRatingTask_S4,2021.1.4,Win32,60.45949214,,,,,,,,,
,,,,,,,,,,,,0,2,2,2,1,third,3,21,female,right,donders,2021-07-09_12h19.12.929,ImageRatingTask_S4,2021.1.4,Win32,60.45949214,,,,,,,,,
,,,,,,,,,,,,0,3,3,3,1,fourth,3,21,female,right,donders,2021-07-09_12h19.12.929,ImageRatingTask_S4,2021.1.4,Win32,60.45949214,,,,,,,,,
,,,,,,,,,,,,0,4,4,4,1,fifth,3,21,female,right,donders,2021-07-09_12h19.12.929,ImageRatingTask_S4,2021.1.4,Win32,60.45949214,,,,,,,,,
,,,,,,,,,,,,0,5,5,5,1,sixth,3,21,female,right,donders,2021-07-09_12h19.12.929,ImageRatingTask_S4,2021.1.4,Win32,60.45949214,,,,,,,,,
,,,,,,,,,,,,0,6,6,6,1,seventh,3,21,female,right,donders,2021-07-09_12h19.12.929,ImageRatingTask_S4,2021.1.4,Win32,60.45949214,,,,,,,,,
,,,,,,,,,,,,0,7,7,7,1,last,3,21,female,right,donders,2021-07-09_12h19.12.929,ImageRatingTask_S4,2021.1.4,Win32,60.45949214,,,,,,,,,
,,,,,,,,,,,,,,,,,,3,21,female,right,donders,2021-07-09_12h19.12.929,ImageRatingTask_S4,2021.1.4,Win32,60.45949214,0,37,37,112,1,DreamStudyImages_rs1000x750g/Water/Objects_233_h.jpg,,,
,,3,2.8251,2,0.3748,9,1.7651,1,0.8736,7,0.6121,0,0,0,0,1,main,3,21,female,right,donders,2021-07-09_12h19.12.929,ImageRatingTask_S4,2021.1.4,Win32,60.45949214,,,,,,,,,
,,,,,,,,,,,,0,1,1,1,1,second,3,21,female,right,donders,2021-07-09_12h19.12.929,ImageRatingTask_S4,2021.1.4,Win32,60.45949214,,,,,,,,,
,,,,,,,,,,,,0,2,2,2,1,third,3,21,female,right,donders,2021-07-09_12h19.12.929,ImageRatingTask_S4,2021.1.4,Win32,60.45949214,,,,,,,,,
,,,,,,,,,,,,0,3,3,3,1,fourth,3,21,female,right,donders,2021-07-09_12h19.12.929,ImageRatingTask_S4,2021.1.4,Win32,60.45949214,,,,,,,,,
,,,,,,,,,,,,0,4,4,4,1,fifth,3,21,female,right,donders,2021-07-09_12h19.12.929,ImageRatingTask_S4,2021.1.4,Win32,60.45949214,,,,,,,,,
,,,,,,,,,,,,0,5,5,5,1,sixth,3,21,female,right,donders,2021-07-09_12h19.12.929,ImageRatingTask_S4,2021.1.4,Win32,60.45949214,,,,,,,,,
,,,,,,,,,,,,0,6,6,6,1,seventh,3,21,female,right,donders,2021-07-09_12h19.12.929,ImageRatingTask_S4,2021.1.4,Win32,60.45949214,,,,,,,,,
,,,,,,,,,,,,0,7,7,7,1,last,3,21,female,right,donders,2021-07-09_12h19.12.929,ImageRatingTask_S4,2021.1.4,Win32,60.45949214,,,,,,,,,
,,,,,,,,,,,,,,,,,,3,21,female,right,donders,2021-07-09_12h19.12.929,ImageRatingTask_S4,2021.1.4,Win32,60.45949214,0,38,38,92,1,DreamStudyImages_rs1000x750g/Water/Weapon 1.jpg,,,
,,5,1.7541,1,0.2076,9,14.0388,1,0.8281,8,0.5245,0,0,0,0,1,main,3,21,female,right,donders,2021-07-09_12h19.12.929,ImageRatingTask_S4,2021.1.4,Win32,60.45949214,,,,,,,,,
,,,,,,,,,,,,0,1,1,1,1,second,3,21,female,right,donders,2021-07-09_12h19.12.929,ImageRatingTask_S4,2021.1.4,Win32,60.45949214,,,,,,,,,
,,,,,,,,,,,,0,2,2,2,1,third,3,21,female,right,donders,2021-07-09_12h19.12.929,ImageRatingTask_S4,2021.1.4,Win32,60.45949214,,,,,,,,,
,,,,,,,,,,,,0,3,3,3,1,fourth,3,21,female,right,donders,2021-07-09_12h19.12.929,ImageRatingTask_S4,2021.1.4,Win32,60.45949214,,,,,,,,,
,,,,,,,,,,,,0,4,4,4,1,fifth,3,21,female,right,donders,2021-07-09_12h19.12.929,ImageRatingTask_S4,2021.1.4,Win32,60.45949214,,,,,,,,,
,,,,,,,,,,,,0,5,5,5,1,sixth,3,21,female,right,donders,2021-07-09_12h19.12.929,ImageRatingTask_S4,2021.1.4,Win32,60.45949214,,,,,,,,,
,,,,,,,,,,,,0,6,6,6,1,seventh,3,21,female,right,donders,2021-07-09_12h19.12.929,ImageRatingTask_S4,2021.1.4,Win32,60.45949214,,,,,,,,,
,,,,,,,,,,,,0,7,7,7,1,last,3,21,female,right,donders,2021-07-09_12h19.12.929,ImageRatingTask_S4,2021.1.4,Win32,60.45949214,,,,,,,,,
,,,,,,,,,,,,,,,,,,3,21,female,right,donders,2021-07-09_12h19.12.929,ImageRatingTask_S4,2021.1.4,Win32,60.45949214,0,39,39,54,1,DreamStudyImages_rs1000x750g/Water/NDPS155_lake2.jpg,,,
,,5,3.6325,1,0.1622,7,1.4987,1,0.8286,3,0.9618,0,0,0,0,1,main,3,21,female,right,donders,2021-07-09_12h19.12.929,ImageRatingTask_S4,2021.1.4,Win32,60.45949214,,,,,,,,,
,,,,,,,,,,,,0,1,1,1,1,second,3,21,female,right,donders,2021-07-09_12h19.12.929,ImageRatingTask_S4,2021.1.4,Win32,60.45949214,,,,,,,,,
,,,,,,,,,,,,0,2,2,2,1,third,3,21,female,right,donders,2021-07-09_12h19.12.929,ImageRatingTask_S4,2021.1.4,Win32,60.45949214,,,,,,,,,
,,,,,,,,,,,,0,3,3,3,1,fourth,3,21,female,right,donders,2021-07-09_12h19.12.929,ImageRatingTask_S4,2021.1.4,Win32,60.45949214,,,,,,,,,
,,,,,,,,,,,,0,4,4,4,1,fifth,3,21,female,right,donders,2021-07-09_12h19.12.929,ImageRatingTask_S4,2021.1.4,Win32,60.45949214,,,,,,,,,
,,,,,,,,,,,,0,5,5,5,1,sixth,3,21,female,right,donders,2021-07-09_12h19.12.929,ImageRatingTask_S4,2021.1.4,Win32,60.45949214,,,,,,,,,
,,,,,,,,,,,,0,6,6,6,1,seventh,3,21,female,right,donders,2021-07-09_12h19.12.929,ImageRatingTask_S4,2021.1.4,Win32,60.45949214,,,,,,,,,
,,,,,,,,,,,,0,7,7,7,1,last,3,21,female,right,donders,2021-07-09_12h19.12.929,ImageRatingTask_S4,2021.1.4,Win32,60.45949214,,,,,,,,,
,,,,,,,,,,,,,,,,,,3,21,female,right,donders,2021-07-09_12h19.12.929,ImageRatingTask_S4,2021.1.4,Win32,60.45949214,0,40,40,8,1,DreamStudyImages_rs1000x750g/Mammals/Monkey 4.jpg,,,
,,4,8.3056,2,0.3215,8,8.5072,1,0.8884,5,1.1488,0,0,0,0,1,main,3,21,female,right,donders,2021-07-09_12h19.12.929,ImageRatingTask_S4,2021.1.4,Win32,60.45949214,,,,,,,,,
,,,,,,,,,,,,0,1,1,1,1,second,3,21,female,right,donders,2021-07-09_12h19.12.929,ImageRatingTask_S4,2021.1.4,Win32,60.45949214,,,,,,,,,
,,,,,,,,,,,,0,2,2,2,1,third,3,21,female,right,donders,2021-07-09_12h19.12.929,ImageRatingTask_S4,2021.1.4,Win32,60.45949214,,,,,,,,,
,,,,,,,,,,,,0,3,3,3,1,fourth,3,21,female,right,donders,2021-07-09_12h19.12.929,ImageRatingTask_S4,2021.1.4,Win32,60.45949214,,,,,,,,,
,,,,,,,,,,,,0,4,4,4,1,fifth,3,21,female,right,donders,2021-07-09_12h19.12.929,ImageRatingTask_S4,2021.1.4,Win32,60.45949214,,,,,,,,,
,,,,,,,,,,,,0,5,5,5,1,sixth,3,21,female,right,donders,2021-07-09_12h19.12.929,ImageRatingTask_S4,2021.1.4,Win32,60.45949214,,,,,,,,,
,,,,,,,,,,,,0,6,6,6,1,seventh,3,21,female,right,donders,2021-07-09_12h19.12.929,ImageRatingTask_S4,2021.1.4,Win32,60.45949214,,,,,,,,,
,,,,,,,,,,,,0,7,7,7,1,last,3,21,female,right,donders,2021-07-09_12h19.12.929,ImageRatingTask_S4,2021.1.4,Win32,60.45949214,,,,,,,,,
,,,,,,,,,,,,,,,,,,3,21,female,right,donders,2021-07-09_12h19.12.929,ImageRatingTask_S4,2021.1.4,Win32,60.45949214,0,41,41,33,1,DreamStudyImages_rs1000x750g/Food/Objects_030_v.jpg,,,
,,5,3.4453,1,0.1659,9,1.4681,1,0.3515,2,0.7233,0,0,0,0,1,main,3,21,female,right,donders,2021-07-09_12h19.12.929,ImageRatingTask_S4,2021.1.4,Win32,60.45949214,,,,,,,,,
,,,,,,,,,,,,0,1,1,1,1,second,3,21,female,right,donders,2021-07-09_12h19.12.929,ImageRatingTask_S4,2021.1.4,Win32,60.45949214,,,,,,,,,
,,,,,,,,,,,,0,2,2,2,1,third,3,21,female,right,donders,2021-07-09_12h19.12.929,ImageRatingTask_S4,2021.1.4,Win32,60.45949214,,,,,,,,,
,,,,,,,,,,,,0,3,3,3,1,fourth,3,21,female,right,donders,2021-07-09_12h19.12.929,ImageRatingTask_S4,2021.1.4,Win32,60.45949214,,,,,,,,,
,,,,,,,,,,,,0,4,4,4,1,fifth,3,21,female,right,donders,2021-07-09_12h19.12.929,ImageRatingTask_S4,2021.1.4,Win32,60.45949214,,,,,,,,,
,,,,,,,,,,,,0,5,5,5,1,sixth,3,21,female,right,donders,2021-07-09_12h19.12.929,ImageRatingTask_S4,2021.1.4,Win32,60.45949214,,,,,,,,,
,,,,,,,,,,,,0,6,6,6,1,seventh,3,21,female,right,donders,2021-07-09_12h19.12.929,ImageRatingTask_S4,2021.1.4,Win32,60.45949214,,,,,,,,,
,,,,,,,,,,,,0,7,7,7,1,last,3,21,female,right,donders,2021-07-09_12h19.12.929,ImageRatingTask_S4,2021.1.4,Win32,60.45949214,,,,,,,,,
,,,,,,,,,,,,,,,,,,3,21,female,right,donders,2021-07-09_12h19.12.929,ImageRatingTask_S4,2021.1.4,Win32,60.45949214,0,42,42,61,1,DreamStudyImages_rs1000x750g/Children/Faces_114_h.jpg,,,
,,5,12.4523,1,0.113,8,0.9923,1,0.6084,7,0.789,0,0,0,0,1,main,3,21,female,right,donders,2021-07-09_12h19.12.929,ImageRatingTask_S4,2021.1.4,Win32,60.45949214,,,,,,,,,
,,,,,,,,,,,,0,1,1,1,1,second,3,21,female,right,donders,2021-07-09_12h19.12.929,ImageRatingTask_S4,2021.1.4,Win32,60.45949214,,,,,,,,,
,,,,,,,,,,,,0,2,2,2,1,third,3,21,female,right,donders,2021-07-09_12h19.12.929,ImageRatingTask_S4,2021.1.4,Win32,60.45949214,,,,,,,,,
,,,,,,,,,,,,0,3,3,3,1,fourth,3,21,female,right,donders,2021-07-09_12h19.12.929,ImageRatingTask_S4,2021.1.4,Win32,60.45949214,,,,,,,,,
,,,,,,,,,,,,0,4,4,4,1,fifth,3,21,female,right,donders,2021-07-09_12h19.12.929,ImageRatingTask_S4,2021.1.4,Win32,60.45949214,,,,,,,,,
,,,,,,,,,,,,0,5,5,5,1,sixth,3,21,female,right,donders,2021-07-09_12h19.12.929,ImageRatingTask_S4,2021.1.4,Win32,60.45949214,,,,,,,,,
,,,,,,,,,,,,0,6,6,6,1,seventh,3,21,female,right,donders,2021-07-09_12h19.12.929,ImageRatingTask_S4,2021.1.4,Win32,60.45949214,,,,,,,,,
,,,,,,,,,,,,0,7,7,7,1,last,3,21,female,right,donders,2021-07-09_12h19.12.929,ImageRatingTask_S4,2021.1.4,Win32,60.45949214,,,,,,,,,
,,,,,,,,,,,,,,,,,,3,21,female,right,donders,2021-07-09_12h19.12.929,ImageRatingTask_S4,2021.1.4,Win32,60.45949214,0,43,43,154,1,DreamStudyImages_rs1000x750g/Vehicles/Objects_281_h.jpg,,,
,,4,3.5599,4,2.1883,8,2.3512,1,3.2597,3,2.3121,0,0,0,0,1,main,3,21,female,right,donders,2021-07-09_12h19.12.929,ImageRatingTask_S4,2021.1.4,Win32,60.45949214,,,,,,,,,
,,,,,,,,,,,,0,1,1,1,1,second,3,21,female,right,donders,2021-07-09_12h19.12.929,ImageRatingTask_S4,2021.1.4,Win32,60.45949214,,,,,,,,,
,,,,,,,,,,,,0,2,2,2,1,third,3,21,female,right,donders,2021-07-09_12h19.12.929,ImageRatingTask_S4,2021.1.4,Win32,60.45949214,,,,,,,,,
,,,,,,,,,,,,0,3,3,3,1,fourth,3,21,female,right,donders,2021-07-09_12h19.12.929,ImageRatingTask_S4,2021.1.4,Win32,60.45949214,,,,,,,,,
,,,,,,,,,,,,0,4,4,4,1,fifth,3,21,female,right,donders,2021-07-09_12h19.12.929,ImageRatingTask_S4,2021.1.4,Win32,60.45949214,,,,,,,,,
,,,,,,,,,,,,0,5,5,5,1,sixth,3,21,female,right,donders,2021-07-09_12h19.12.929,ImageRatingTask_S4,2021.1.4,Win32,60.45949214,,,,,,,,,
,,,,,,,,,,,,0,6,6,6,1,seventh,3,21,female,right,donders,2021-07-09_12h19.12.929,ImageRatingTask_S4,2021.1.4,Win32,60.45949214,,,,,,,,,
,,,,,,,,,,,,0,7,7,7,1,last,3,21,female,right,donders,2021-07-09_12h19.12.929,ImageRatingTask_S4,2021.1.4,Win32,60.45949214,,,,,,,,,
,,,,,,,,,,,,,,,,,,3,21,female,right,donders,2021-07-09_12h19.12.929,ImageRatingTask_S4,2021.1.4,Win32,60.45949214,0,44,44,148,1,DreamStudyImages_rs1000x750g/Mammals/Animals_111_h.jpg,,,
,,7,2.1134,3,0.3325,9,1.2698,1,0.5148,2,0.3067,0,0,0,0,1,main,3,21,female,right,donders,2021-07-09_12h19.12.929,ImageRatingTask_S4,2021.1.4,Win32,60.45949214,,,,,,,,,
,,,,,,,,,,,,0,1,1,1,1,second,3,21,female,right,donders,2021-07-09_12h19.12.929,ImageRatingTask_S4,2021.1.4,Win32,60.45949214,,,,,,,,,
,,,,,,,,,,,,0,2,2,2,1,third,3,21,female,right,donders,2021-07-09_12h19.12.929,ImageRatingTask_S4,2021.1.4,Win32,60.45949214,,,,,,,,,
,,,,,,,,,,,,0,3,3,3,1,fourth,3,21,female,right,donders,2021-07-09_12h19.12.929,ImageRatingTask_S4,2021.1.4,Win32,60.45949214,,,,,,,,,
,,,,,,,,,,,,0,4,4,4,1,fifth,3,21,female,right,donders,2021-07-09_12h19.12.929,ImageRatingTask_S4,2021.1.4,Win32,60.45949214,,,,,,,,,
,,,,,,,,,,,,0,5,5,5,1,sixth,3,21,female,right,donders,2021-07-09_12h19.12.929,ImageRatingTask_S4,2021.1.4,Win32,60.45949214,,,,,,,,,
,,,,,,,,,,,,0,6,6,6,1,seventh,3,21,female,right,donders,2021-07-09_12h19.12.929,ImageRatingTask_S4,2021.1.4,Win32,60.45949214,,,,,,,,,
,,,,,,,,,,,,0,7,7,7,1,last,3,21,female,right,donders,2021-07-09_12h19.12.929,ImageRatingTask_S4,2021.1.4,Win32,60.45949214,,,,,,,,,
,,,,,,,,,,,,,,,,,,3,21,female,right,donders,2021-07-09_12h19.12.929,ImageRatingTask_S4,2021.1.4,Win32,60.45949214,0,45,45,155,1,DreamStudyImages_rs1000x750g/Children/Excited face 3.jpg,,,
,,4,2.8974,3,0.3461,8,2.661,1,0.7178,2,0.4282,0,0,0,0,1,main,3,21,female,right,donders,2021-07-09_12h19.12.929,ImageRatingTask_S4,2021.1.4,Win32,60.45949214,,,,,,,,,
,,,,,,,,,,,,0,1,1,1,1,second,3,21,female,right,donders,2021-07-09_12h19.12.929,ImageRatingTask_S4,2021.1.4,Win32,60.45949214,,,,,,,,,
,,,,,,,,,,,,0,2,2,2,1,third,3,21,female,right,donders,2021-07-09_12h19.12.929,ImageRatingTask_S4,2021.1.4,Win32,60.45949214,,,,,,,,,
,,,,,,,,,,,,0,3,3,3,1,fourth,3,21,female,right,donders,2021-07-09_12h19.12.929,ImageRatingTask_S4,2021.1.4,Win32,60.45949214,,,,,,,,,
,,,,,,,,,,,,0,4,4,4,1,fifth,3,21,female,right,donders,2021-07-09_12h19.12.929,ImageRatingTask_S4,2021.1.4,Win32,60.45949214,,,,,,,,,
,,,,,,,,,,,,0,5,5,5,1,sixth,3,21,female,right,donders,2021-07-09_12h19.12.929,ImageRatingTask_S4,2021.1.4,Win32,60.45949214,,,,,,,,,
,,,,,,,,,,,,0,6,6,6,1,seventh,3,21,female,right,donders,2021-07-09_12h19.12.929,ImageRatingTask_S4,2021.1.4,Win32,60.45949214,,,,,,,,,
,,,,,,,,,,,,0,7,7,7,1,last,3,21,female,right,donders,2021-07-09_12h19.12.929,ImageRatingTask_S4,2021.1.4,Win32,60.45949214,,,,,,,,,
,,,,,,,,,,,,,,,,,,3,21,female,right,donders,2021-07-09_12h19.12.929,ImageRatingTask_S4,2021.1.4,Win32,60.45949214,0,46,46,80,1,DreamStudyImages_rs1000x750g/Children/NDPS136_hurtchild2_humans.jpg,,,
,,6,1.8368,2,0.4296,7,1.2663,1,0.7648,2,0.3722,0,0,0,0,1,main,3,21,female,right,donders,2021-07-09_12h19.12.929,ImageRatingTask_S4,2021.1.4,Win32,60.45949214,,,,,,,,,
,,,,,,,,,,,,0,1,1,1,1,second,3,21,female,right,donders,2021-07-09_12h19.12.929,ImageRatingTask_S4,2021.1.4,Win32,60.45949214,,,,,,,,,
,,,,,,,,,,,,0,2,2,2,1,third,3,21,female,right,donders,2021-07-09_12h19.12.929,ImageRatingTask_S4,2021.1.4,Win32,60.45949214,,,,,,,,,
,,,,,,,,,,,,0,3,3,3,1,fourth,3,21,female,right,donders,2021-07-09_12h19.12.929,ImageRatingTask_S4,2021.1.4,Win32,60.45949214,,,,,,,,,
,,,,,,,,,,,,0,4,4,4,1,fifth,3,21,female,right,donders,2021-07-09_12h19.12.929,ImageRatingTask_S4,2021.1.4,Win32,60.45949214,,,,,,,,,
,,,,,,,,,,,,0,5,5,5,1,sixth,3,21,female,right,donders,2021-07-09_12h19.12.929,ImageRatingTask_S4,2021.1.4,Win32,60.45949214,,,,,,,,,
,,,,,,,,,,,,0,6,6,6,1,seventh,3,21,female,right,donders,2021-07-09_12h19.12.929,ImageRatingTask_S4,2021.1.4,Win32,60.45949214,,,,,,,,,
,,,,,,,,,,,,0,7,7,7,1,last,3,21,female,right,donders,2021-07-09_12h19.12.929,ImageRatingTask_S4,2021.1.4,Win32,60.45949214,,,,,,,,,
,,,,,,,,,,,,,,,,,,3,21,female,right,donders,2021-07-09_12h19.12.929,ImageRatingTask_S4,2021.1.4,Win32,60.45949214,0,47,47,63,1,DreamStudyImages_rs1000x750g/Children/IAPS2224_children5.jpg,,,
,,5,1.3665,1,0.4474,6,4.046,1,0.9447,6,0.7398,0,0,0,0,1,main,3,21,female,right,donders,2021-07-09_12h19.12.929,ImageRatingTask_S4,2021.1.4,Win32,60.45949214,,,,,,,,,
,,,,,,,,,,,,0,1,1,1,1,second,3,21,female,right,donders,2021-07-09_12h19.12.929,ImageRatingTask_S4,2021.1.4,Win32,60.45949214,,,,,,,,,
,,,,,,,,,,,,0,2,2,2,1,third,3,21,female,right,donders,2021-07-09_12h19.12.929,ImageRatingTask_S4,2021.1.4,Win32,60.45949214,,,,,,,,,
,,,,,,,,,,,,0,3,3,3,1,fourth,3,21,female,right,donders,2021-07-09_12h19.12.929,ImageRatingTask_S4,2021.1.4,Win32,60.45949214,,,,,,,,,
,,,,,,,,,,,,0,4,4,4,1,fifth,3,21,female,right,donders,2021-07-09_12h19.12.929,ImageRatingTask_S4,2021.1.4,Win32,60.45949214,,,,,,,,,
,,,,,,,,,,,,0,5,5,5,1,sixth,3,21,female,right,donders,2021-07-09_12h19.12.929,ImageRatingTask_S4,2021.1.4,Win32,60.45949214,,,,,,,,,
,,,,,,,,,,,,0,6,6,6,1,seventh,3,21,female,right,donders,2021-07-09_12h19.12.929,ImageRatingTask_S4,2021.1.4,Win32,60.45949214,,,,,,,,,
,,,,,,,,,,,,0,7,7,7,1,last,3,21,female,right,donders,2021-07-09_12h19.12.929,ImageRatingTask_S4,2021.1.4,Win32,60.45949214,,,,,,,,,
,,,,,,,,,,,,,,,,,,3,21,female,right,donders,2021-07-09_12h19.12.929,ImageRatingTask_S4,2021.1.4,Win32,60.45949214,0,48,48,29,1,DreamStudyImages_rs1000x750g/Houses/Landscapes_090_h_CROPPED.jpg,,,
,,5,1.3602,1,0.2585,7,1.3927,1,0.7944,7,0.5774,0,0,0,0,1,main,3,21,female,right,donders,2021-07-09_12h19.12.929,ImageRatingTask_S4,2021.1.4,Win32,60.45949214,,,,,,,,,
,,,,,,,,,,,,0,1,1,1,1,second,3,21,female,right,donders,2021-07-09_12h19.12.929,ImageRatingTask_S4,2021.1.4,Win32,60.45949214,,,,,,,,,
,,,,,,,,,,,,0,2,2,2,1,third,3,21,female,right,donders,2021-07-09_12h19.12.929,ImageRatingTask_S4,2021.1.4,Win32,60.45949214,,,,,,,,,
,,,,,,,,,,,,0,3,3,3,1,fourth,3,21,female,right,donders,2021-07-09_12h19.12.929,ImageRatingTask_S4,2021.1.4,Win32,60.45949214,,,,,,,,,
,,,,,,,,,,,,0,4,4,4,1,fifth,3,21,female,right,donders,2021-07-09_12h19.12.929,ImageRatingTask_S4,2021.1.4,Win32,60.45949214,,,,,,,,,
,,,,,,,,,,,,0,5,5,5,1,sixth,3,21,female,right,donders,2021-07-09_12h19.12.929,ImageRatingTask_S4,2021.1.4,Win32,60.45949214,,,,,,,,,
,,,,,,,,,,,,0,6,6,6,1,seventh,3,21,female,right,donders,2021-07-09_12h19.12.929,ImageRatingTask_S4,2021.1.4,Win32,60.45949214,,,,,,,,,
,,,,,,,,,,,,0,7,7,7,1,last,3,21,female,right,donders,2021-07-09_12h19.12.929,ImageRatingTask_S4,2021.1.4,Win32,60.45949214,,,,,,,,,
,,,,,,,,,,,,,,,,,,3,21,female,right,donders,2021-07-09_12h19.12.929,ImageRatingTask_S4,2021.1.4,Win32,60.45949214,0,49,49,47,1,DreamStudyImages_rs1000x750g/Vehicles/bluevan.jpg,,,
,,6,1.7654,2,0.2122,7,1.7242,1,0.6246,2,0.5299,0,0,0,0,1,main,3,21,female,right,donders,2021-07-09_12h19.12.929,ImageRatingTask_S4,2021.1.4,Win32,60.45949214,,,,,,,,,
,,,,,,,,,,,,0,1,1,1,1,second,3,21,female,right,donders,2021-07-09_12h19.12.929,ImageRatingTask_S4,2021.1.4,Win32,60.45949214,,,,,,,,,
,,,,,,,,,,,,0,2,2,2,1,third,3,21,female,right,donders,2021-07-09_12h19.12.929,ImageRatingTask_S4,2021.1.4,Win32,60.45949214,,,,,,,,,
,,,,,,,,,,,,0,3,3,3,1,fourth,3,21,female,right,donders,2021-07-09_12h19.12.929,ImageRatingTask_S4,2021.1.4,Win32,60.45949214,,,,,,,,,
,,,,,,,,,,,,0,4,4,4,1,fifth,3,21,female,right,donders,2021-07-09_12h19.12.929,ImageRatingTask_S4,2021.1.4,Win32,60.45949214,,,,,,,,,
,,,,,,,,,,,,0,5,5,5,1,sixth,3,21,female,right,donders,2021-07-09_12h19.12.929,ImageRatingTask_S4,2021.1.4,Win32,60.45949214,,,,,,,,,
,,,,,,,,,,,,0,6,6,6,1,seventh,3,21,female,right,donders,2021-07-09_12h19.12.929,ImageRatingTask_S4,2021.1.4,Win32,60.45949214,,,,,,,,,
,,,,,,,,,,,,0,7,7,7,1,last,3,21,female,right,donders,2021-07-09_12h19.12.929,ImageRatingTask_S4,2021.1.4,Win32,60.45949214,,,,,,,,,
,,,,,,,,,,,,,,,,,,3,21,female,right,donders,2021-07-09_12h19.12.929,ImageRatingTask_S4,2021.1.4,Win32,60.45949214,0,50,50,14,1,DreamStudyImages_rs1000x750g/Children/Faces_129_h.jpg,,,
,,5,2.1286,1,0.1556,8,2.0909,1,0.6581,2,0.3651,0,0,0,0,1,main,3,21,female,right,donders,2021-07-09_12h19.12.929,ImageRatingTask_S4,2021.1.4,Win32,60.45949214,,,,,,,,,
,,,,,,,,,,,,0,1,1,1,1,second,3,21,female,right,donders,2021-07-09_12h19.12.929,ImageRatingTask_S4,2021.1.4,Win32,60.45949214,,,,,,,,,
,,,,,,,,,,,,0,2,2,2,1,third,3,21,female,right,donders,2021-07-09_12h19.12.929,ImageRatingTask_S4,2021.1.4,Win32,60.45949214,,,,,,,,,
,,,,,,,,,,,,0,3,3,3,1,fourth,3,21,female,right,donders,2021-07-09_12h19.12.929,ImageRatingTask_S4,2021.1.4,Win32,60.45949214,,,,,,,,,
,,,,,,,,,,,,0,4,4,4,1,fifth,3,21,female,right,donders,2021-07-09_12h19.12.929,ImageRatingTask_S4,2021.1.4,Win32,60.45949214,,,,,,,,,
,,,,,,,,,,,,0,5,5,5,1,sixth,3,21,female,right,donders,2021-07-09_12h19.12.929,ImageRatingTask_S4,2021.1.4,Win32,60.45949214,,,,,,,,,
,,,,,,,,,,,,0,6,6,6,1,seventh,3,21,female,right,donders,2021-07-09_12h19.12.929,ImageRatingTask_S4,2021.1.4,Win32,60.45949214,,,,,,,,,
,,,,,,,,,,,,0,7,7,7,1,last,3,21,female,right,donders,2021-07-09_12h19.12.929,ImageRatingTask_S4,2021.1.4,Win32,60.45949214,,,,,,,,,
,,,,,,,,,,,,,,,,,,3,21,female,right,donders,2021-07-09_12h19.12.929,ImageRatingTask_S4,2021.1.4,Win32,60.45949214,0,51,51,9,1,DreamStudyImages_rs1000x750g/Children/People_049_h.jpg,,,
,,5,1.4394,1,0.5008,7,1.0818,1,1.0088,7,0.5407,0,0,0,0,1,main,3,21,female,right,donders,2021-07-09_12h19.12.929,ImageRatingTask_S4,2021.1.4,Win32,60.45949214,,,,,,,,,
,,,,,,,,,,,,0,1,1,1,1,second,3,21,female,right,donders,2021-07-09_12h19.12.929,ImageRatingTask_S4,2021.1.4,Win32,60.45949214,,,,,,,,,
,,,,,,,,,,,,0,2,2,2,1,third,3,21,female,right,donders,2021-07-09_12h19.12.929,ImageRatingTask_S4,2021.1.4,Win32,60.45949214,,,,,,,,,
,,,,,,,,,,,,0,3,3,3,1,fourth,3,21,female,right,donders,2021-07-09_12h19.12.929,ImageRatingTask_S4,2021.1.4,Win32,60.45949214,,,,,,,,,
,,,,,,,,,,,,0,4,4,4,1,fifth,3,21,female,right,donders,2021-07-09_12h19.12.929,ImageRatingTask_S4,2021.1.4,Win32,60.45949214,,,,,,,,,
,,,,,,,,,,,,0,5,5,5,1,sixth,3,21,female,right,donders,2021-07-09_12h19.12.929,ImageRatingTask_S4,2021.1.4,Win32,60.45949214,,,,,,,,,
,,,,,,,,,,,,0,6,6,6,1,seventh,3,21,female,right,donders,2021-07-09_12h19.12.929,ImageRatingTask_S4,2021.1.4,Win32,60.45949214,,,,,,,,,
,,,,,,,,,,,,0,7,7,7,1,last,3,21,female,right,donders,2021-07-09_12h19.12.929,ImageRatingTask_S4,2021.1.4,Win32,60.45949214,,,,,,,,,
,,,,,,,,,,,,,,,,,,3,21,female,right,donders,2021-07-09_12h19.12.929,ImageRatingTask_S4,2021.1.4,Win32,60.45949214,0,52,52,55,1,DreamStudyImages_rs1000x750g/Vehicles/Objects_308_h.jpg,,,
,,5,2.3689,1,0.124,9,0.9106,1,0.7968,6,0.9734,0,0,0,0,1,main,3,21,female,right,donders,2021-07-09_12h19.12.929,ImageRatingTask_S4,2021.1.4,Win32,60.45949214,,,,,,,,,
,,,,,,,,,,,,0,1,1,1,1,second,3,21,female,right,donders,2021-07-09_12h19.12.929,ImageRatingTask_S4,2021.1.4,Win32,60.45949214,,,,,,,,,
,,,,,,,,,,,,0,2,2,2,1,third,3,21,female,right,donders,2021-07-09_12h19.12.929,ImageRatingTask_S4,2021.1.4,Win32,60.45949214,,,,,,,,,
,,,,,,,,,,,,0,3,3,3,1,fourth,3,21,female,right,donders,2021-07-09_12h19.12.929,ImageRatingTask_S4,2021.1.4,Win32,60.45949214,,,,,,,,,
,,,,,,,,,,,,0,4,4,4,1,fifth,3,21,female,right,donders,2021-07-09_12h19.12.929,ImageRatingTask_S4,2021.1.4,Win32,60.45949214,,,,,,,,,
,,,,,,,,,,,,0,5,5,5,1,sixth,3,21,female,right,donders,2021-07-09_12h19.12.929,ImageRatingTask_S4,2021.1.4,Win32,60.45949214,,,,,,,,,
,,,,,,,,,,,,0,6,6,6,1,seventh,3,21,female,right,donders,2021-07-09_12h19.12.929,ImageRatingTask_S4,2021.1.4,Win32,60.45949214,,,,,,,,,
,,,,,,,,,,,,0,7,7,7,1,last,3,21,female,right,donders,2021-07-09_12h19.12.929,ImageRatingTask_S4,2021.1.4,Win32,60.45949214,,,,,,,,,
,,,,,,,,,,,,,,,,,,3,21,female,right,donders,2021-07-09_12h19.12.929,ImageRatingTask_S4,2021.1.4,Win32,60.45949214,0,53,53,158,1,DreamStudyImages_rs1000x750g/Houses/nicehouse.jpg,,,
,,4,1.7829,2,0.6025,8,2.6795,1,0.7307,2,0.6083,0,0,0,0,1,main,3,21,female,right,donders,2021-07-09_12h19.12.929,ImageRatingTask_S4,2021.1.4,Win32,60.45949214,,,,,,,,,
,,,,,,,,,,,,0,1,1,1,1,second,3,21,female,right,donders,2021-07-09_12h19.12.929,ImageRatingTask_S4,2021.1.4,Win32,60.45949214,,,,,,,,,
,,,,,,,,,,,,0,2,2,2,1,third,3,21,female,right,donders,2021-07-09_12h19.12.929,ImageRatingTask_S4,2021.1.4,Win32,60.45949214,,,,,,,,,
,,,,,,,,,,,,0,3,3,3,1,fourth,3,21,female,right,donders,2021-07-09_12h19.12.929,ImageRatingTask_S4,2021.1.4,Win32,60.45949214,,,,,,,,,
,,,,,,,,,,,,0,4,4,4,1,fifth,3,21,female,right,donders,2021-07-09_12h19.12.929,ImageRatingTask_S4,2021.1.4,Win32,60.45949214,,,,,,,,,
,,,,,,,,,,,,0,5,5,5,1,sixth,3,21,female,right,donders,2021-07-09_12h19.12.929,ImageRatingTask_S4,2021.1.4,Win32,60.45949214,,,,,,,,,
,,,,,,,,,,,,0,6,6,6,1,seventh,3,21,female,right,donders,2021-07-09_12h19.12.929,ImageRatingTask_S4,2021.1.4,Win32,60.45949214,,,,,,,,,
,,,,,,,,,,,,0,7,7,7,1,last,3,21,female,right,donders,2021-07-09_12h19.12.929,ImageRatingTask_S4,2021.1.4,Win32,60.45949214,,,,,,,,,
,,,,,,,,,,,,,,,,,,3,21,female,right,donders,2021-07-09_12h19.12.929,ImageRatingTask_S4,2021.1.4,Win32,60.45949214,0,54,54,117,1,DreamStudyImages_rs1000x750g/Children/Sad face 9.jpg,,,
,,5,28.6316,1,0.1962,7,1.76,1,0.8926,5,1.0728,0,0,0,0,1,main,3,21,female,right,donders,2021-07-09_12h19.12.929,ImageRatingTask_S4,2021.1.4,Win32,60.45949214,,,,,,,,,
,,,,,,,,,,,,0,1,1,1,1,second,3,21,female,right,donders,2021-07-09_12h19.12.929,ImageRatingTask_S4,2021.1.4,Win32,60.45949214,,,,,,,,,
,,,,,,,,,,,,0,2,2,2,1,third,3,21,female,right,donders,2021-07-09_12h19.12.929,ImageRatingTask_S4,2021.1.4,Win32,60.45949214,,,,,,,,,
,,,,,,,,,,,,0,3,3,3,1,fourth,3,21,female,right,donders,2021-07-09_12h19.12.929,ImageRatingTask_S4,2021.1.4,Win32,60.45949214,,,,,,,,,
,,,,,,,,,,,,0,4,4,4,1,fifth,3,21,female,right,donders,2021-07-09_12h19.12.929,ImageRatingTask_S4,2021.1.4,Win32,60.45949214,,,,,,,,,
,,,,,,,,,,,,0,5,5,5,1,sixth,3,21,female,right,donders,2021-07-09_12h19.12.929,ImageRatingTask_S4,2021.1.4,Win32,60.45949214,,,,,,,,,
,,,,,,,,,,,,0,6,6,6,1,seventh,3,21,female,right,donders,2021-07-09_12h19.12.929,ImageRatingTask_S4,2021.1.4,Win32,60.45949214,,,,,,,,,
,,,,,,,,,,,,0,7,7,7,1,last,3,21,female,right,donders,2021-07-09_12h19.12.929,ImageRatingTask_S4,2021.1.4,Win32,60.45949214,,,,,,,,,
,,,,,,,,,,,,,,,,,,3,21,female,right,donders,2021-07-09_12h19.12.929,ImageRatingTask_S4,2021.1.4,Win32,60.45949214,0,55,55,67,1,DreamStudyImages_rs1000x750g/Food/Objects_051_h.jpg,,,
,,7,2.5801,2,1.2817,7,2.2166,1,0.6169,3,0.8953,0,0,0,0,1,main,3,21,female,right,donders,2021-07-09_12h19.12.929,ImageRatingTask_S4,2021.1.4,Win32,60.45949214,,,,,,,,,
,,,,,,,,,,,,0,1,1,1,1,second,3,21,female,right,donders,2021-07-09_12h19.12.929,ImageRatingTask_S4,2021.1.4,Win32,60.45949214,,,,,,,,,
,,,,,,,,,,,,0,2,2,2,1,third,3,21,female,right,donders,2021-07-09_12h19.12.929,ImageRatingTask_S4,2021.1.4,Win32,60.45949214,,,,,,,,,
,,,,,,,,,,,,0,3,3,3,1,fourth,3,21,female,right,donders,2021-07-09_12h19.12.929,ImageRatingTask_S4,2021.1.4,Win32,60.45949214,,,,,,,,,
,,,,,,,,,,,,0,4,4,4,1,fifth,3,21,female,right,donders,2021-07-09_12h19.12.929,ImageRatingTask_S4,2021.1.4,Win32,60.45949214,,,,,,,,,
,,,,,,,,,,,,0,5,5,5,1,sixth,3,21,female,right,donders,2021-07-09_12h19.12.929,ImageRatingTask_S4,2021.1.4,Win32,60.45949214,,,,,,,,,
,,,,,,,,,,,,0,6,6,6,1,seventh,3,21,female,right,donders,2021-07-09_12h19.12.929,ImageRatingTask_S4,2021.1.4,Win32,60.45949214,,,,,,,,,
,,,,,,,,,,,,0,7,7,7,1,last,3,21,female,right,donders,2021-07-09_12h19.12.929,ImageRatingTask_S4,2021.1.4,Win32,60.45949214,,,,,,,,,
,,,,,,,,,,,,,,,,,,3,21,female,right,donders,2021-07-09_12h19.12.929,ImageRatingTask_S4,2021.1.4,Win32,60.45949214,0,56,56,36,1,DreamStudyImages_rs1000x750g/Mammals/Cat 6.jpg,,,
,,5,3.1404,1,0.1389,8,1.4587,1,0.5829,7,0.716,0,0,0,0,1,main,3,21,female,right,donders,2021-07-09_12h19.12.929,ImageRatingTask_S4,2021.1.4,Win32,60.45949214,,,,,,,,,
,,,,,,,,,,,,0,1,1,1,1,second,3,21,female,right,donders,2021-07-09_12h19.12.929,ImageRatingTask_S4,2021.1.4,Win32,60.45949214,,,,,,,,,
,,,,,,,,,,,,0,2,2,2,1,third,3,21,female,right,donders,2021-07-09_12h19.12.929,ImageRatingTask_S4,2021.1.4,Win32,60.45949214,,,,,,,,,
,,,,,,,,,,,,0,3,3,3,1,fourth,3,21,female,right,donders,2021-07-09_12h19.12.929,ImageRatingTask_S4,2021.1.4,Win32,60.45949214,,,,,,,,,
,,,,,,,,,,,,0,4,4,4,1,fifth,3,21,female,right,donders,2021-07-09_12h19.12.929,ImageRatingTask_S4,2021.1.4,Win32,60.45949214,,,,,,,,,
,,,,,,,,,,,,0,5,5,5,1,sixth,3,21,female,right,donders,2021-07-09_12h19.12.929,ImageRatingTask_S4,2021.1.4,Win32,60.45949214,,,,,,,,,
,,,,,,,,,,,,0,6,6,6,1,seventh,3,21,female,right,donders,2021-07-09_12h19.12.929,ImageRatingTask_S4,2021.1.4,Win32,60.45949214,,,,,,,,,
,,,,,,,,,,,,0,7,7,7,1,last,3,21,female,right,donders,2021-07-09_12h19.12.929,ImageRatingTask_S4,2021.1.4,Win32,60.45949214,,,,,,,,,
,,,,,,,,,,,,,,,,,,3,21,female,right,donders,2021-07-09_12h19.12.929,ImageRatingTask_S4,2021.1.4,Win32,60.45949214,0,57,57,22,1,DreamStudyImages_rs1000x750g/Vehicles/Ambulance 2.jpg,,,
,,5,4.9859,1,0.6706,9,1.8457,1,0.4167,6,0.6917,0,0,0,0,1,main,3,21,female,right,donders,2021-07-09_12h19.12.929,ImageRatingTask_S4,2021.1.4,Win32,60.45949214,,,,,,,,,
,,,,,,,,,,,,0,1,1,1,1,second,3,21,female,right,donders,2021-07-09_12h19.12.929,ImageRatingTask_S4,2021.1.4,Win32,60.45949214,,,,,,,,,
,,,,,,,,,,,,0,2,2,2,1,third,3,21,female,right,donders,2021-07-09_12h19.12.929,ImageRatingTask_S4,2021.1.4,Win32,60.45949214,,,,,,,,,
,,,,,,,,,,,,0,3,3,3,1,fourth,3,21,female,right,donders,2021-07-09_12h19.12.929,ImageRatingTask_S4,2021.1.4,Win32,60.45949214,,,,,,,,,
,,,,,,,,,,,,0,4,4,4,1,fifth,3,21,female,right,donders,2021-07-09_12h19.12.929,ImageRatingTask_S4,2021.1.4,Win32,60.45949214,,,,,,,,,
,,,,,,,,,,,,0,5,5,5,1,sixth,3,21,female,right,donders,2021-07-09_12h19.12.929,ImageRatingTask_S4,2021.1.4,Win32,60.45949214,,,,,,,,,
,,,,,,,,,,,,0,6,6,6,1,seventh,3,21,female,right,donders,2021-07-09_12h19.12.929,ImageRatingTask_S4,2021.1.4,Win32,60.45949214,,,,,,,,,
,,,,,,,,,,,,0,7,7,7,1,last,3,21,female,right,donders,2021-07-09_12h19.12.929,ImageRatingTask_S4,2021.1.4,Win32,60.45949214,,,,,,,,,
,,,,,,,,,,,,,,,,,,3,21,female,right,donders,2021-07-09_12h19.12.929,ImageRatingTask_S4,2021.1.4,Win32,60.45949214,0,58,58,60,1,DreamStudyImages_rs1000x750g/Houses/NDPS18_houses2_CROPPED.jpg,,,
,,5,2.338,1,0.1744,9,0.6569,1,0.3093,8,0.5413,0,0,0,0,1,main,3,21,female,right,donders,2021-07-09_12h19.12.929,ImageRatingTask_S4,2021.1.4,Win32,60.45949214,,,,,,,,,
,,,,,,,,,,,,0,1,1,1,1,second,3,21,female,right,donders,2021-07-09_12h19.12.929,ImageRatingTask_S4,2021.1.4,Win32,60.45949214,,,,,,,,,
,,,,,,,,,,,,0,2,2,2,1,third,3,21,female,right,donders,2021-07-09_12h19.12.929,ImageRatingTask_S4,2021.1.4,Win32,60.45949214,,,,,,,,,
,,,,,,,,,,,,0,3,3,3,1,fourth,3,21,female,right,donders,2021-07-09_12h19.12.929,ImageRatingTask_S4,2021.1.4,Win32,60.45949214,,,,,,,,,
,,,,,,,,,,,,0,4,4,4,1,fifth,3,21,female,right,donders,2021-07-09_12h19.12.929,ImageRatingTask_S4,2021.1.4,Win32,60.45949214,,,,,,,,,
,,,,,,,,,,,,0,5,5,5,1,sixth,3,21,female,right,donders,2021-07-09_12h19.12.929,ImageRatingTask_S4,2021.1.4,Win32,60.45949214,,,,,,,,,
,,,,,,,,,,,,0,6,6,6,1,seventh,3,21,female,right,donders,2021-07-09_12h19.12.929,ImageRatingTask_S4,2021.1.4,Win32,60.45949214,,,,,,,,,
,,,,,,,,,,,,0,7,7,7,1,last,3,21,female,right,donders,2021-07-09_12h19.12.929,ImageRatingTask_S4,2021.1.4,Win32,60.45949214,,,,,,,,,
,,,,,,,,,,,,,,,,,,3,21,female,right,donders,2021-07-09_12h19.12.929,ImageRatingTask_S4,2021.1.4,Win32,60.45949214,0,59,59,2,1,DreamStudyImages_rs1000x750g/Water/lakepontoon2.jpg,,,
,,6,1.865,3,0.3641,8,1.8478,1,0.4341,2,0.5004,0,0,0,0,1,main,3,21,female,right,donders,2021-07-09_12h19.12.929,ImageRatingTask_S4,2021.1.4,Win32,60.45949214,,,,,,,,,
,,,,,,,,,,,,0,1,1,1,1,second,3,21,female,right,donders,2021-07-09_12h19.12.929,ImageRatingTask_S4,2021.1.4,Win32,60.45949214,,,,,,,,,
,,,,,,,,,,,,0,2,2,2,1,third,3,21,female,right,donders,2021-07-09_12h19.12.929,ImageRatingTask_S4,2021.1.4,Win32,60.45949214,,,,,,,,,
,,,,,,,,,,,,0,3,3,3,1,fourth,3,21,female,right,donders,2021-07-09_12h19.12.929,ImageRatingTask_S4,2021.1.4,Win32,60.45949214,,,,,,,,,
,,,,,,,,,,,,0,4,4,4,1,fifth,3,21,female,right,donders,2021-07-09_12h19.12.929,ImageRatingTask_S4,2021.1.4,Win32,60.45949214,,,,,,,,,
,,,,,,,,,,,,0,5,5,5,1,sixth,3,21,female,right,donders,2021-07-09_12h19.12.929,ImageRatingTask_S4,2021.1.4,Win32,60.45949214,,,,,,,,,
,,,,,,,,,,,,0,6,6,6,1,seventh,3,21,female,right,donders,2021-07-09_12h19.12.929,ImageRatingTask_S4,2021.1.4,Win32,60.45949214,,,,,,,,,
,,,,,,,,,,,,0,7,7,7,1,last,3,21,female,right,donders,2021-07-09_12h19.12.929,ImageRatingTask_S4,2021.1.4,Win32,60.45949214,,,,,,,,,
,,,,,,,,,,,,,,,,,,3,21,female,right,donders,2021-07-09_12h19.12.929,ImageRatingTask_S4,2021.1.4,Win32,60.45949214,0,60,60,57,1,DreamStudyImages_rs1000x750g/Children/Faces_096_h.jpg,,,
,,6,4.3953,3,1.1299,9,1.1659,1,0.4485,8,0.5089,0,0,0,0,1,main,3,21,female,right,donders,2021-07-09_12h19.12.929,ImageRatingTask_S4,2021.1.4,Win32,60.45949214,,,,,,,,,
,,,,,,,,,,,,0,1,1,1,1,second,3,21,female,right,donders,2021-07-09_12h19.12.929,ImageRatingTask_S4,2021.1.4,Win32,60.45949214,,,,,,,,,
,,,,,,,,,,,,0,2,2,2,1,third,3,21,female,right,donders,2021-07-09_12h19.12.929,ImageRatingTask_S4,2021.1.4,Win32,60.45949214,,,,,,,,,
,,,,,,,,,,,,0,3,3,3,1,fourth,3,21,female,right,donders,2021-07-09_12h19.12.929,ImageRatingTask_S4,2021.1.4,Win32,60.45949214,,,,,,,,,
,,,,,,,,,,,,0,4,4,4,1,fifth,3,21,female,right,donders,2021-07-09_12h19.12.929,ImageRatingTask_S4,2021.1.4,Win32,60.45949214,,,,,,,,,
,,,,,,,,,,,,0,5,5,5,1,sixth,3,21,female,right,donders,2021-07-09_12h19.12.929,ImageRatingTask_S4,2021.1.4,Win32,60.45949214,,,,,,,,,
,,,,,,,,,,,,0,6,6,6,1,seventh,3,21,female,right,donders,2021-07-09_12h19.12.929,ImageRatingTask_S4,2021.1.4,Win32,60.45949214,,,,,,,,,
,,,,,,,,,,,,0,7,7,7,1,last,3,21,female,right,donders,2021-07-09_12h19.12.929,ImageRatingTask_S4,2021.1.4,Win32,60.45949214,,,,,,,,,
,,,,,,,,,,,,,,,,,,3,21,female,right,donders,2021-07-09_12h19.12.929,ImageRatingTask_S4,2021.1.4,Win32,60.45949214,0,61,61,127,1,DreamStudyImages_rs1000x750g/Water/ocean.jpg,,,
,,5,1.7811,1,0.2026,5,0.729,1,1.1344,7,0.5615,0,0,0,0,1,main,3,21,female,right,donders,2021-07-09_12h19.12.929,ImageRatingTask_S4,2021.1.4,Win32,60.45949214,,,,,,,,,
,,,,,,,,,,,,0,1,1,1,1,second,3,21,female,right,donders,2021-07-09_12h19.12.929,ImageRatingTask_S4,2021.1.4,Win32,60.45949214,,,,,,,,,
,,,,,,,,,,,,0,2,2,2,1,third,3,21,female,right,donders,2021-07-09_12h19.12.929,ImageRatingTask_S4,2021.1.4,Win32,60.45949214,,,,,,,,,
,,,,,,,,,,,,0,3,3,3,1,fourth,3,21,female,right,donders,2021-07-09_12h19.12.929,ImageRatingTask_S4,2021.1.4,Win32,60.45949214,,,,,,,,,
,,,,,,,,,,,,0,4,4,4,1,fifth,3,21,female,right,donders,2021-07-09_12h19.12.929,ImageRatingTask_S4,2021.1.4,Win32,60.45949214,,,,,,,,,
,,,,,,,,,,,,0,5,5,5,1,sixth,3,21,female,right,donders,2021-07-09_12h19.12.929,ImageRatingTask_S4,2021.1.4,Win32,60.45949214,,,,,,,,,
,,,,,,,,,,,,0,6,6,6,1,seventh,3,21,female,right,donders,2021-07-09_12h19.12.929,ImageRatingTask_S4,2021.1.4,Win32,60.45949214,,,,,,,,,
,,,,,,,,,,,,0,7,7,7,1,last,3,21,female,right,donders,2021-07-09_12h19.12.929,ImageRatingTask_S4,2021.1.4,Win32,60.45949214,,,,,,,,,
,,,,,,,,,,,,,,,,,,3,21,female,right,donders,2021-07-09_12h19.12.929,ImageRatingTask_S4,2021.1.4,Win32,60.45949214,0,62,62,153,1,DreamStudyImages_rs1000x750g/Vehicles/IAPS7130_truck.jpg,,,
,,5,1.688,1,0.6568,4,1.0753,1,0.8586,6,0.8112,0,0,0,0,1,main,3,21,female,right,donders,2021-07-09_12h19.12.929,ImageRatingTask_S4,2021.1.4,Win32,60.45949214,,,,,,,,,
,,,,,,,,,,,,0,1,1,1,1,second,3,21,female,right,donders,2021-07-09_12h19.12.929,ImageRatingTask_S4,2021.1.4,Win32,60.45949214,,,,,,,,,
,,,,,,,,,,,,0,2,2,2,1,third,3,21,female,right,donders,2021-07-09_12h19.12.929,ImageRatingTask_S4,2021.1.4,Win32,60.45949214,,,,,,,,,
,,,,,,,,,,,,0,3,3,3,1,fourth,3,21,female,right,donders,2021-07-09_12h19.12.929,ImageRatingTask_S4,2021.1.4,Win32,60.45949214,,,,,,,,,
,,,,,,,,,,,,0,4,4,4,1,fifth,3,21,female,right,donders,2021-07-09_12h19.12.929,ImageRatingTask_S4,2021.1.4,Win32,60.45949214,,,,,,,,,
,,,,,,,,,,,,0,5,5,5,1,sixth,3,21,female,right,donders,2021-07-09_12h19.12.929,ImageRatingTask_S4,2021.1.4,Win32,60.45949214,,,,,,,,,
,,,,,,,,,,,,0,6,6,6,1,seventh,3,21,female,right,donders,2021-07-09_12h19.12.929,ImageRatingTask_S4,2021.1.4,Win32,60.45949214,,,,,,,,,
,,,,,,,,,,,,0,7,7,7,1,last,3,21,female,right,donders,2021-07-09_12h19.12.929,ImageRatingTask_S4,2021.1.4,Win32,60.45949214,,,,,,,,,
,,,,,,,,,,,,,,,,,,3,21,female,right,donders,2021-07-09_12h19.12.929,ImageRatingTask_S4,2021.1.4,Win32,60.45949214,0,63,63,24,1,DreamStudyImages_rs1000x750g/Houses/IAPS7490_window.jpg,,,
,,7,2.4422,4,0.2642,9,8.551,1,0.6909,3,0.7929,0,0,0,0,1,main,3,21,female,right,donders,2021-07-09_12h19.12.929,ImageRatingTask_S4,2021.1.4,Win32,60.45949214,,,,,,,,,
,,,,,,,,,,,,0,1,1,1,1,second,3,21,female,right,donders,2021-07-09_12h19.12.929,ImageRatingTask_S4,2021.1.4,Win32,60.45949214,,,,,,,,,
,,,,,,,,,,,,0,2,2,2,1,third,3,21,female,right,donders,2021-07-09_12h19.12.929,ImageRatingTask_S4,2021.1.4,Win32,60.45949214,,,,,,,,,
,,,,,,,,,,,,0,3,3,3,1,fourth,3,21,female,right,donders,2021-07-09_12h19.12.929,ImageRatingTask_S4,2021.1.4,Win32,60.45949214,,,,,,,,,
,,,,,,,,,,,,0,4,4,4,1,fifth,3,21,female,right,donders,2021-07-09_12h19.12.929,ImageRatingTask_S4,2021.1.4,Win32,60.45949214,,,,,,,,,
,,,,,,,,,,,,0,5,5,5,1,sixth,3,21,female,right,donders,2021-07-09_12h19.12.929,ImageRatingTask_S4,2021.1.4,Win32,60.45949214,,,,,,,,,
,,,,,,,,,,,,0,6,6,6,1,seventh,3,21,female,right,donders,2021-07-09_12h19.12.929,ImageRatingTask_S4,2021.1.4,Win32,60.45949214,,,,,,,,,
,,,,,,,,,,,,0,7,7,7,1,last,3,21,female,right,donders,2021-07-09_12h19.12.929,ImageRatingTask_S4,2021.1.4,Win32,60.45949214,,,,,,,,,
,,,,,,,,,,,,,,,,,,3,21,female,right,donders,2021-07-09_12h19.12.929,ImageRatingTask_S4,2021.1.4,Win32,60.45949214,0,64,64,6,1,DreamStudyImages_rs1000x750g/Mammals/Animals_122_h.jpg,,,
,,6,2.7715,2,0.2192,9,1.1312,1,0.6102,2,0.5963,0,0,0,0,1,main,3,21,female,right,donders,2021-07-09_12h19.12.929,ImageRatingTask_S4,2021.1.4,Win32,60.45949214,,,,,,,,,
,,,,,,,,,,,,0,1,1,1,1,second,3,21,female,right,donders,2021-07-09_12h19.12.929,ImageRatingTask_S4,2021.1.4,Win32,60.45949214,,,,,,,,,
,,,,,,,,,,,,0,2,2,2,1,third,3,21,female,right,donders,2021-07-09_12h19.12.929,ImageRatingTask_S4,2021.1.4,Win32,60.45949214,,,,,,,,,
,,,,,,,,,,,,0,3,3,3,1,fourth,3,21,female,right,donders,2021-07-09_12h19.12.929,ImageRatingTask_S4,2021.1.4,Win32,60.45949214,,,,,,,,,
,,,,,,,,,,,,0,4,4,4,1,fifth,3,21,female,right,donders,2021-07-09_12h19.12.929,ImageRatingTask_S4,2021.1.4,Win32,60.45949214,,,,,,,,,
,,,,,,,,,,,,0,5,5,5,1,sixth,3,21,female,right,donders,2021-07-09_12h19.12.929,ImageRatingTask_S4,2021.1.4,Win32,60.45949214,,,,,,,,,
,,,,,,,,,,,,0,6,6,6,1,seventh,3,21,female,right,donders,2021-07-09_12h19.12.929,ImageRatingTask_S4,2021.1.4,Win32,60.45949214,,,,,,,,,
,,,,,,,,,,,,0,7,7,7,1,last,3,21,female,right,donders,2021-07-09_12h19.12.929,ImageRatingTask_S4,2021.1.4,Win32,60.45949214,,,,,,,,,
,,,,,,,,,,,,,,,,,,3,21,female,right,donders,2021-07-09_12h19.12.929,ImageRatingTask_S4,2021.1.4,Win32,60.45949214,0,65,65,83,1,DreamStudyImages_rs1000x750g/Children/People_043_h.jpg,,,
,,5,1.722,1,0.383,8,0.4107,1,0.5158,7,0.52,0,0,0,0,1,main,3,21,female,right,donders,2021-07-09_12h19.12.929,ImageRatingTask_S4,2021.1.4,Win32,60.45949214,,,,,,,,,
,,,,,,,,,,,,0,1,1,1,1,second,3,21,female,right,donders,2021-07-09_12h19.12.929,ImageRatingTask_S4,2021.1.4,Win32,60.45949214,,,,,,,,,
,,,,,,,,,,,,0,2,2,2,1,third,3,21,female,right,donders,2021-07-09_12h19.12.929,ImageRatingTask_S4,2021.1.4,Win32,60.45949214,,,,,,,,,
,,,,,,,,,,,,0,3,3,3,1,fourth,3,21,female,right,donders,2021-07-09_12h19.12.929,ImageRatingTask_S4,2021.1.4,Win32,60.45949214,,,,,,,,,
,,,,,,,,,,,,0,4,4,4,1,fifth,3,21,female,right,donders,2021-07-09_12h19.12.929,ImageRatingTask_S4,2021.1.4,Win32,60.45949214,,,,,,,,,
,,,,,,,,,,,,0,5,5,5,1,sixth,3,21,female,right,donders,2021-07-09_12h19.12.929,ImageRatingTask_S4,2021.1.4,Win32,60.45949214,,,,,,,,,
,,,,,,,,,,,,0,6,6,6,1,seventh,3,21,female,right,donders,2021-07-09_12h19.12.929,ImageRatingTask_S4,2021.1.4,Win32,60.45949214,,,,,,,,,
,,,,,,,,,,,,0,7,7,7,1,last,3,21,female,right,donders,2021-07-09_12h19.12.929,ImageRatingTask_S4,2021.1.4,Win32,60.45949214,,,,,,,,,
,,,,,,,,,,,,,,,,,,3,21,female,right,donders,2021-07-09_12h19.12.929,ImageRatingTask_S4,2021.1.4,Win32,60.45949214,0,66,66,77,1,DreamStudyImages_rs1000x750g/Vehicles/trainwagon.jpg,,,
,,5,1.892,1,0.4539,9,1.2414,1,0.4698,2,0.3569,0,0,0,0,1,main,3,21,female,right,donders,2021-07-09_12h19.12.929,ImageRatingTask_S4,2021.1.4,Win32,60.45949214,,,,,,,,,
,,,,,,,,,,,,0,1,1,1,1,second,3,21,female,right,donders,2021-07-09_12h19.12.929,ImageRatingTask_S4,2021.1.4,Win32,60.45949214,,,,,,,,,
,,,,,,,,,,,,0,2,2,2,1,third,3,21,female,right,donders,2021-07-09_12h19.12.929,ImageRatingTask_S4,2021.1.4,Win32,60.45949214,,,,,,,,,
,,,,,,,,,,,,0,3,3,3,1,fourth,3,21,female,right,donders,2021-07-09_12h19.12.929,ImageRatingTask_S4,2021.1.4,Win32,60.45949214,,,,,,,,,
,,,,,,,,,,,,0,4,4,4,1,fifth,3,21,female,right,donders,2021-07-09_12h19.12.929,ImageRatingTask_S4,2021.1.4,Win32,60.45949214,,,,,,,,,
,,,,,,,,,,,,0,5,5,5,1,sixth,3,21,female,right,donders,2021-07-09_12h19.12.929,ImageRatingTask_S4,2021.1.4,Win32,60.45949214,,,,,,,,,
,,,,,,,,,,,,0,6,6,6,1,seventh,3,21,female,right,donders,2021-07-09_12h19.12.929,ImageRatingTask_S4,2021.1.4,Win32,60.45949214,,,,,,,,,
,,,,,,,,,,,,0,7,7,7,1,last,3,21,female,right,donders,2021-07-09_12h19.12.929,ImageRatingTask_S4,2021.1.4,Win32,60.45949214,,,,,,,,,
,,,,,,,,,,,,,,,,,,3,21,female,right,donders,2021-07-09_12h19.12.929,ImageRatingTask_S4,2021.1.4,Win32,60.45949214,0,67,67,70,1,DreamStudyImages_rs1000x750g/Children/Faces_075_v.jpg,,,
,,5,2.8686,1,0.1226,9,0.6154,1,0.2595,8,0.7317,0,0,0,0,1,main,3,21,female,right,donders,2021-07-09_12h19.12.929,ImageRatingTask_S4,2021.1.4,Win32,60.45949214,,,,,,,,,
,,,,,,,,,,,,0,1,1,1,1,second,3,21,female,right,donders,2021-07-09_12h19.12.929,ImageRatingTask_S4,2021.1.4,Win32,60.45949214,,,,,,,,,
,,,,,,,,,,,,0,2,2,2,1,third,3,21,female,right,donders,2021-07-09_12h19.12.929,ImageRatingTask_S4,2021.1.4,Win32,60.45949214,,,,,,,,,
,,,,,,,,,,,,0,3,3,3,1,fourth,3,21,female,right,donders,2021-07-09_12h19.12.929,ImageRatingTask_S4,2021.1.4,Win32,60.45949214,,,,,,,,,
,,,,,,,,,,,,0,4,4,4,1,fifth,3,21,female,right,donders,2021-07-09_12h19.12.929,ImageRatingTask_S4,2021.1.4,Win32,60.45949214,,,,,,,,,
,,,,,,,,,,,,0,5,5,5,1,sixth,3,21,female,right,donders,2021-07-09_12h19.12.929,ImageRatingTask_S4,2021.1.4,Win32,60.45949214,,,,,,,,,
,,,,,,,,,,,,0,6,6,6,1,seventh,3,21,female,right,donders,2021-07-09_12h19.12.929,ImageRatingTask_S4,2021.1.4,Win32,60.45949214,,,,,,,,,
,,,,,,,,,,,,0,7,7,7,1,last,3,21,female,right,donders,2021-07-09_12h19.12.929,ImageRatingTask_S4,2021.1.4,Win32,60.45949214,,,,,,,,,
,,,,,,,,,,,,,,,,,,3,21,female,right,donders,2021-07-09_12h19.12.929,ImageRatingTask_S4,2021.1.4,Win32,60.45949214,0,68,68,62,1,DreamStudyImages_rs1000x750g/Water/Landscapes_155_h.jpg,,,
,,6,2.5889,3,1.0679,9,1.9011,1,0.4745,8,0.7342,0,0,0,0,1,main,3,21,female,right,donders,2021-07-09_12h19.12.929,ImageRatingTask_S4,2021.1.4,Win32,60.45949214,,,,,,,,,
,,,,,,,,,,,,0,1,1,1,1,second,3,21,female,right,donders,2021-07-09_12h19.12.929,ImageRatingTask_S4,2021.1.4,Win32,60.45949214,,,,,,,,,
,,,,,,,,,,,,0,2,2,2,1,third,3,21,female,right,donders,2021-07-09_12h19.12.929,ImageRatingTask_S4,2021.1.4,Win32,60.45949214,,,,,,,,,
,,,,,,,,,,,,0,3,3,3,1,fourth,3,21,female,right,donders,2021-07-09_12h19.12.929,ImageRatingTask_S4,2021.1.4,Win32,60.45949214,,,,,,,,,
,,,,,,,,,,,,0,4,4,4,1,fifth,3,21,female,right,donders,2021-07-09_12h19.12.929,ImageRatingTask_S4,2021.1.4,Win32,60.45949214,,,,,,,,,
,,,,,,,,,,,,0,5,5,5,1,sixth,3,21,female,right,donders,2021-07-09_12h19.12.929,ImageRatingTask_S4,2021.1.4,Win32,60.45949214,,,,,,,,,
,,,,,,,,,,,,0,6,6,6,1,seventh,3,21,female,right,donders,2021-07-09_12h19.12.929,ImageRatingTask_S4,2021.1.4,Win32,60.45949214,,,,,,,,,
,,,,,,,,,,,,0,7,7,7,1,last,3,21,female,right,donders,2021-07-09_12h19.12.929,ImageRatingTask_S4,2021.1.4,Win32,60.45949214,,,,,,,,,
,,,,,,,,,,,,,,,,,,3,21,female,right,donders,2021-07-09_12h19.12.929,ImageRatingTask_S4,2021.1.4,Win32,60.45949214,0,69,69,26,1,DreamStudyImages_rs1000x750g/Water/Lake 15.jpg,,,
,,7,2.1822,4,0.3953,8,2.0591,1,0.8079,3,0.476,0,0,0,0,1,main,3,21,female,right,donders,2021-07-09_12h19.12.929,ImageRatingTask_S4,2021.1.4,Win32,60.45949214,,,,,,,,,
,,,,,,,,,,,,0,1,1,1,1,second,3,21,female,right,donders,2021-07-09_12h19.12.929,ImageRatingTask_S4,2021.1.4,Win32,60.45949214,,,,,,,,,
,,,,,,,,,,,,0,2,2,2,1,third,3,21,female,right,donders,2021-07-09_12h19.12.929,ImageRatingTask_S4,2021.1.4,Win32,60.45949214,,,,,,,,,
,,,,,,,,,,,,0,3,3,3,1,fourth,3,21,female,right,donders,2021-07-09_12h19.12.929,ImageRatingTask_S4,2021.1.4,Win32,60.45949214,,,,,,,,,
,,,,,,,,,,,,0,4,4,4,1,fifth,3,21,female,right,donders,2021-07-09_12h19.12.929,ImageRatingTask_S4,2021.1.4,Win32,60.45949214,,,,,,,,,
,,,,,,,,,,,,0,5,5,5,1,sixth,3,21,female,right,donders,2021-07-09_12h19.12.929,ImageRatingTask_S4,2021.1.4,Win32,60.45949214,,,,,,,,,
,,,,,,,,,,,,0,6,6,6,1,seventh,3,21,female,right,donders,2021-07-09_12h19.12.929,ImageRatingTask_S4,2021.1.4,Win32,60.45949214,,,,,,,,,
,,,,,,,,,,,,0,7,7,7,1,last,3,21,female,right,donders,2021-07-09_12h19.12.929,ImageRatingTask_S4,2021.1.4,Win32,60.45949214,,,,,,,,,
,,,,,,,,,,,,,,,,,,3,21,female,right,donders,2021-07-09_12h19.12.929,ImageRatingTask_S4,2021.1.4,Win32,60.45949214,0,70,70,53,1,DreamStudyImages_rs1000x750g/Mammals/Animals_120_h.jpg,,,
,,3,161.8212,3,0.9341,4,1.9741,1,1.5329,8,2.7262,0,0,0,0,1,main,3,21,female,right,donders,2021-07-09_12h19.12.929,ImageRatingTask_S4,2021.1.4,Win32,60.45949214,,,,,,,,,
,,,,,,,,,,,,0,1,1,1,1,second,3,21,female,right,donders,2021-07-09_12h19.12.929,ImageRatingTask_S4,2021.1.4,Win32,60.45949214,,,,,,,,,
,,,,,,,,,,,,0,2,2,2,1,third,3,21,female,right,donders,2021-07-09_12h19.12.929,ImageRatingTask_S4,2021.1.4,Win32,60.45949214,,,,,,,,,
,,,,,,,,,,,,0,3,3,3,1,fourth,3,21,female,right,donders,2021-07-09_12h19.12.929,ImageRatingTask_S4,2021.1.4,Win32,60.45949214,,,,,,,,,
,,,,,,,,,,,,0,4,4,4,1,fifth,3,21,female,right,donders,2021-07-09_12h19.12.929,ImageRatingTask_S4,2021.1.4,Win32,60.45949214,,,,,,,,,
,,,,,,,,,,,,0,5,5,5,1,sixth,3,21,female,right,donders,2021-07-09_12h19.12.929,ImageRatingTask_S4,2021.1.4,Win32,60.45949214,,,,,,,,,
,,,,,,,,,,,,0,6,6,6,1,seventh,3,21,female,right,donders,2021-07-09_12h19.12.929,ImageRatingTask_S4,2021.1.4,Win32,60.45949214,,,,,,,,,
,,,,,,,,,,,,0,7,7,7,1,last,3,21,female,right,donders,2021-07-09_12h19.12.929,ImageRatingTask_S4,2021.1.4,Win32,60.45949214,,,,,,,,,
,,,,,,,,,,,,,,,,,,3,21,female,right,donders,2021-07-09_12h19.12.929,ImageRatingTask_S4,2021.1.4,Win32,60.45949214,0,71,71,100,1,DreamStudyImages_rs1000x750g/Water/Explosion 5.jpg,,,
,,7,1.9589,3,0.3098,8,1.3998,1,0.7335,3,0.8734,0,0,0,0,1,main,3,21,female,right,donders,2021-07-09_12h19.12.929,ImageRatingTask_S4,2021.1.4,Win32,60.45949214,,,,,,,,,
,,,,,,,,,,,,0,1,1,1,1,second,3,21,female,right,donders,2021-07-09_12h19.12.929,ImageRatingTask_S4,2021.1.4,Win32,60.45949214,,,,,,,,,
,,,,,,,,,,,,0,2,2,2,1,third,3,21,female,right,donders,2021-07-09_12h19.12.929,ImageRatingTask_S4,2021.1.4,Win32,60.45949214,,,,,,,,,
,,,,,,,,,,,,0,3,3,3,1,fourth,3,21,female,right,donders,2021-07-09_12h19.12.929,ImageRatingTask_S4,2021.1.4,Win32,60.45949214,,,,,,,,,
,,,,,,,,,,,,0,4,4,4,1,fifth,3,21,female,right,donders,2021-07-09_12h19.12.929,ImageRatingTask_S4,2021.1.4,Win32,60.45949214,,,,,,,,,
,,,,,,,,,,,,0,5,5,5,1,sixth,3,21,female,right,donders,2021-07-09_12h19.12.929,ImageRatingTask_S4,2021.1.4,Win32,60.45949214,,,,,,,,,
,,,,,,,,,,,,0,6,6,6,1,seventh,3,21,female,right,donders,2021-07-09_12h19.12.929,ImageRatingTask_S4,2021.1.4,Win32,60.45949214,,,,,,,,,
,,,,,,,,,,,,0,7,7,7,1,last,3,21,female,right,donders,2021-07-09_12h19.12.929,ImageRatingTask_S4,2021.1.4,Win32,60.45949214,,,,,,,,,
,,,,,,,,,,,,,,,,,,3,21,female,right,donders,2021-07-09_12h19.12.929,ImageRatingTask_S4,2021.1.4,Win32,60.45949214,0,72,72,79,1,DreamStudyImages_rs1000x750g/Mammals/Animals_191_h.jpg,,,
,,5,3.7446,1,0.1024,8,1.2533,1,0.5903,2,0.4334,0,0,0,0,1,main,3,21,female,right,donders,2021-07-09_12h19.12.929,ImageRatingTask_S4,2021.1.4,Win32,60.45949214,,,,,,,,,
,,,,,,,,,,,,0,1,1,1,1,second,3,21,female,right,donders,2021-07-09_12h19.12.929,ImageRatingTask_S4,2021.1.4,Win32,60.45949214,,,,,,,,,
,,,,,,,,,,,,0,2,2,2,1,third,3,21,female,right,donders,2021-07-09_12h19.12.929,ImageRatingTask_S4,2021.1.4,Win32,60.45949214,,,,,,,,,
,,,,,,,,,,,,0,3,3,3,1,fourth,3,21,female,right,donders,2021-07-09_12h19.12.929,ImageRatingTask_S4,2021.1.4,Win32,60.45949214,,,,,,,,,
,,,,,,,,,,,,0,4,4,4,1,fifth,3,21,female,right,donders,2021-07-09_12h19.12.929,ImageRatingTask_S4,2021.1.4,Win32,60.45949214,,,,,,,,,
,,,,,,,,,,,,0,5,5,5,1,sixth,3,21,female,right,donders,2021-07-09_12h19.12.929,ImageRatingTask_S4,2021.1.4,Win32,60.45949214,,,,,,,,,
,,,,,,,,,,,,0,6,6,6,1,seventh,3,21,female,right,donders,2021-07-09_12h19.12.929,ImageRatingTask_S4,2021.1.4,Win32,60.45949214,,,,,,,,,
,,,,,,,,,,,,0,7,7,7,1,last,3,21,female,right,donders,2021-07-09_12h19.12.929,ImageRatingTask_S4,2021.1.4,Win32,60.45949214,,,,,,,,,
,,,,,,,,,,,,,,,,,,3,21,female,right,donders,2021-07-09_12h19.12.929,ImageRatingTask_S4,2021.1.4,Win32,60.45949214,0,73,73,39,1,DreamStudyImages_rs1000x750g/Children/IAPS2410_boy8.jpg,,,
,,6,9.3236,2,0.7392,9,59.0216,1,0.7154,3,1.0526,0,0,0,0,1,main,3,21,female,right,donders,2021-07-09_12h19.12.929,ImageRatingTask_S4,2021.1.4,Win32,60.45949214,,,,,,,,,
,,,,,,,,,,,,0,1,1,1,1,second,3,21,female,right,donders,2021-07-09_12h19.12.929,ImageRatingTask_S4,2021.1.4,Win32,60.45949214,,,,,,,,,
,,,,,,,,,,,,0,2,2,2,1,third,3,21,female,right,donders,2021-07-09_12h19.12.929,ImageRatingTask_S4,2021.1.4,Win32,60.45949214,,,,,,,,,
,,,,,,,,,,,,0,3,3,3,1,fourth,3,21,female,right,donders,2021-07-09_12h19.12.929,ImageRatingTask_S4,2021.1.4,Win32,60.45949214,,,,,,,,,
,,,,,,,,,,,,0,4,4,4,1,fifth,3,21,female,right,donders,2021-07-09_12h19.12.929,ImageRatingTask_S4,2021.1.4,Win32,60.45949214,,,,,,,,,
,,,,,,,,,,,,0,5,5,5,1,sixth,3,21,female,right,donders,2021-07-09_12h19.12.929,ImageRatingTask_S4,2021.1.4,Win32,60.45949214,,,,,,,,,
,,,,,,,,,,,,0,6,6,6,1,seventh,3,21,female,right,donders,2021-07-09_12h19.12.929,ImageRatingTask_S4,2021.1.4,Win32,60.45949214,,,,,,,,,
,,,,,,,,,,,,0,7,7,7,1,last,3,21,female,right,donders,2021-07-09_12h19.12.929,ImageRatingTask_S4,2021.1.4,Win32,60.45949214,,,,,,,,,
,,,,,,,,,,,,,,,,,,3,21,female,right,donders,2021-07-09_12h19.12.929,ImageRatingTask_S4,2021.1.4,Win32,60.45949214,0,74,74,66,1,DreamStudyImages_rs1000x750g/Mammals/Animals_113_h.jpg,,,
,,5,6.1101,1,0.1712,6,1.0667,1,0.4157,5,1.1002,0,0,0,0,1,main,3,21,female,right,donders,2021-07-09_12h19.12.929,ImageRatingTask_S4,2021.1.4,Win32,60.45949214,,,,,,,,,
,,,,,,,,,,,,0,1,1,1,1,second,3,21,female,right,donders,2021-07-09_12h19.12.929,ImageRatingTask_S4,2021.1.4,Win32,60.45949214,,,,,,,,,
,,,,,,,,,,,,0,2,2,2,1,third,3,21,female,right,donders,2021-07-09_12h19.12.929,ImageRatingTask_S4,2021.1.4,Win32,60.45949214,,,,,,,,,
,,,,,,,,,,,,0,3,3,3,1,fourth,3,21,female,right,donders,2021-07-09_12h19.12.929,ImageRatingTask_S4,2021.1.4,Win32,60.45949214,,,,,,,,,
,,,,,,,,,,,,0,4,4,4,1,fifth,3,21,female,right,donders,2021-07-09_12h19.12.929,ImageRatingTask_S4,2021.1.4,Win32,60.45949214,,,,,,,,,
,,,,,,,,,,,,0,5,5,5,1,sixth,3,21,female,right,donders,2021-07-09_12h19.12.929,ImageRatingTask_S4,2021.1.4,Win32,60.45949214,,,,,,,,,
,,,,,,,,,,,,0,6,6,6,1,seventh,3,21,female,right,donders,2021-07-09_12h19.12.929,ImageRatingTask_S4,2021.1.4,Win32,60.45949214,,,,,,,,,
,,,,,,,,,,,,0,7,7,7,1,last,3,21,female,right,donders,2021-07-09_12h19.12.929,ImageRatingTask_S4,2021.1.4,Win32,60.45949214,,,,,,,,,
,,,,,,,,,,,,,,,,,,3,21,female,right,donders,2021-07-09_12h19.12.929,ImageRatingTask_S4,2021.1.4,Win32,60.45949214,0,75,75,52,1,DreamStudyImages_rs1000x750g/Food/IAPS7482_diner4.jpg,,,
,,4,5.4227,3,0.3405,8,1.8999,1,0.5437,8,0.7514,0,0,0,0,1,main,3,21,female,right,donders,2021-07-09_12h19.12.929,ImageRatingTask_S4,2021.1.4,Win32,60.45949214,,,,,,,,,
,,,,,,,,,,,,0,1,1,1,1,second,3,21,female,right,donders,2021-07-09_12h19.12.929,ImageRatingTask_S4,2021.1.4,Win32,60.45949214,,,,,,,,,
,,,,,,,,,,,,0,2,2,2,1,third,3,21,female,right,donders,2021-07-09_12h19.12.929,ImageRatingTask_S4,2021.1.4,Win32,60.45949214,,,,,,,,,
,,,,,,,,,,,,0,3,3,3,1,fourth,3,21,female,right,donders,2021-07-09_12h19.12.929,ImageRatingTask_S4,2021.1.4,Win32,60.45949214,,,,,,,,,
,,,,,,,,,,,,0,4,4,4,1,fifth,3,21,female,right,donders,2021-07-09_12h19.12.929,ImageRatingTask_S4,2021.1.4,Win32,60.45949214,,,,,,,,,
,,,,,,,,,,,,0,5,5,5,1,sixth,3,21,female,right,donders,2021-07-09_12h19.12.929,ImageRatingTask_S4,2021.1.4,Win32,60.45949214,,,,,,,,,
,,,,,,,,,,,,0,6,6,6,1,seventh,3,21,female,right,donders,2021-07-09_12h19.12.929,ImageRatingTask_S4,2021.1.4,Win32,60.45949214,,,,,,,,,
,,,,,,,,,,,,0,7,7,7,1,last,3,21,female,right,donders,2021-07-09_12h19.12.929,ImageRatingTask_S4,2021.1.4,Win32,60.45949214,,,,,,,,,
,,,,,,,,,,,,,,,,,,3,21,female,right,donders,2021-07-09_12h19.12.929,ImageRatingTask_S4,2021.1.4,Win32,60.45949214,0,76,76,159,1,DreamStudyImages_rs1000x750g/Water/NDPS124_swamp.jpg,,,
,,5,1.3943,1,0.1271,9,0.6666,1,1.0491,6,1.053,0,0,0,0,1,main,3,21,female,right,donders,2021-07-09_12h19.12.929,ImageRatingTask_S4,2021.1.4,Win32,60.45949214,,,,,,,,,
,,,,,,,,,,,,0,1,1,1,1,second,3,21,female,right,donders,2021-07-09_12h19.12.929,ImageRatingTask_S4,2021.1.4,Win32,60.45949214,,,,,,,,,
,,,,,,,,,,,,0,2,2,2,1,third,3,21,female,right,donders,2021-07-09_12h19.12.929,ImageRatingTask_S4,2021.1.4,Win32,60.45949214,,,,,,,,,
