slider_pre.response,slider_pre.rt,key_val.keys,key_val.rt,key_aro.keys,key_aro.rt,key_qual.keys,key_qual.rt,key_ncat.keys,key_ncat.rt,key_cats.keys,key_cats.rt,ncat_order.thisRepN,ncat_order.thisTrialN,ncat_order.thisN,ncat_order.thisIndex,ncat_order.ran,cond_cat,participant,age,gender,handedness (L/R),site (IMT/Donders),date,expName,psychopyVersion,OS,frameRate,img_trials.thisRepN,img_trials.thisTrialN,img_trials.thisN,img_trials.thisIndex,img_trials.ran,filename,slider_post.response,slider_post.rt,key_fb.keys,key_fb.rt,fb.thisRepN,fb.thisTrialN,fb.thisN,fb.thisIndex,fb.ran,fb_qst,textbox_openfb.text
5,4.0207,5,2.4553,1,2.4696,9,1.6978,1,0.4423,8,0.768,0,0,0,0,1,main,3,21,female,right,donders,2021-07-09_16h02.31.236,ImageRatingTask_S5,2021.1.4,Win32,59.65163445,,,,,,,,,,,,,,,,,
,,,,,,,,,,,,0,1,1,1,1,second,3,21,female,right,donders,2021-07-09_16h02.31.236,ImageRatingTask_S5,2021.1.4,Win32,59.65163445,,,,,,,,,,,,,,,,,
,,,,,,,,,,,,0,2,2,2,1,third,3,21,female,right,donders,2021-07-09_16h02.31.236,ImageRatingTask_S5,2021.1.4,Win32,59.65163445,,,,,,,,,,,,,,,,,
,,,,,,,,,,,,0,3,3,3,1,fourth,3,21,female,right,donders,2021-07-09_16h02.31.236,ImageRatingTask_S5,2021.1.4,Win32,59.65163445,,,,,,,,,,,,,,,,,
,,,,,,,,,,,,0,4,4,4,1,fifth,3,21,female,right,donders,2021-07-09_16h02.31.236,ImageRatingTask_S5,2021.1.4,Win32,59.65163445,,,,,,,,,,,,,,,,,
,,,,,,,,,,,,0,5,5,5,1,sixth,3,21,female,right,donders,2021-07-09_16h02.31.236,ImageRatingTask_S5,2021.1.4,Win32,59.65163445,,,,,,,,,,,,,,,,,
,,,,,,,,,,,,0,6,6,6,1,seventh,3,21,female,right,donders,2021-07-09_16h02.31.236,ImageRatingTask_S5,2021.1.4,Win32,59.65163445,,,,,,,,,,,,,,,,,
,,,,,,,,,,,,0,7,7,7,1,last,3,21,female,right,donders,2021-07-09_16h02.31.236,ImageRatingTask_S5,2021.1.4,Win32,59.65163445,,,,,,,,,,,,,,,,,
,,,,,,,,,,,,,,,,,,3,21,female,right,donders,2021-07-09_16h02.31.236,ImageRatingTask_S5,2021.1.4,Win32,59.65163445,0,0,0,111,1,DreamStudyImages_rs1000x750g/Water/Lake 9.jpg,,,,,,,,,,,
,,6,2.0947,2,0.4396,9,1.1832,1,0.3003,2,1.0202,0,0,0,0,1,main,3,21,female,right,donders,2021-07-09_16h02.31.236,ImageRatingTask_S5,2021.1.4,Win32,59.65163445,,,,,,,,,,,,,,,,,
,,,,,,,,,,,,0,1,1,1,1,second,3,21,female,right,donders,2021-07-09_16h02.31.236,ImageRatingTask_S5,2021.1.4,Win32,59.65163445,,,,,,,,,,,,,,,,,
,,,,,,,,,,,,0,2,2,2,1,third,3,21,female,right,donders,2021-07-09_16h02.31.236,ImageRatingTask_S5,2021.1.4,Win32,59.65163445,,,,,,,,,,,,,,,,,
,,,,,,,,,,,,0,3,3,3,1,fourth,3,21,female,right,donders,2021-07-09_16h02.31.236,ImageRatingTask_S5,2021.1.4,Win32,59.65163445,,,,,,,,,,,,,,,,,
,,,,,,,,,,,,0,4,4,4,1,fifth,3,21,female,right,donders,2021-07-09_16h02.31.236,ImageRatingTask_S5,2021.1.4,Win32,59.65163445,,,,,,,,,,,,,,,,,
,,,,,,,,,,,,0,5,5,5,1,sixth,3,21,female,right,donders,2021-07-09_16h02.31.236,ImageRatingTask_S5,2021.1.4,Win32,59.65163445,,,,,,,,,,,,,,,,,
,,,,,,,,,,,,0,6,6,6,1,seventh,3,21,female,right,donders,2021-07-09_16h02.31.236,ImageRatingTask_S5,2021.1.4,Win32,59.65163445,,,,,,,,,,,,,,,,,
,,,,,,,,,,,,0,7,7,7,1,last,3,21,female,right,donders,2021-07-09_16h02.31.236,ImageRatingTask_S5,2021.1.4,Win32,59.65163445,,,,,,,,,,,,,,,,,
,,,,,,,,,,,,,,,,,,3,21,female,right,donders,2021-07-09_16h02.31.236,ImageRatingTask_S5,2021.1.4,Win32,59.65163445,0,1,1,142,1,DreamStudyImages_rs1000x750g/Children/Faces_124_h.jpg,,,,,,,,,,,
,,5,2.0192,1,0.1727,9,1.4851,1,0.18,8,0.6145,0,0,0,0,1,main,3,21,female,right,donders,2021-07-09_16h02.31.236,ImageRatingTask_S5,2021.1.4,Win32,59.65163445,,,,,,,,,,,,,,,,,
,,,,,,,,,,,,0,1,1,1,1,second,3,21,female,right,donders,2021-07-09_16h02.31.236,ImageRatingTask_S5,2021.1.4,Win32,59.65163445,,,,,,,,,,,,,,,,,
,,,,,,,,,,,,0,2,2,2,1,third,3,21,female,right,donders,2021-07-09_16h02.31.236,ImageRatingTask_S5,2021.1.4,Win32,59.65163445,,,,,,,,,,,,,,,,,
,,,,,,,,,,,,0,3,3,3,1,fourth,3,21,female,right,donders,2021-07-09_16h02.31.236,ImageRatingTask_S5,2021.1.4,Win32,59.65163445,,,,,,,,,,,,,,,,,
,,,,,,,,,,,,0,4,4,4,1,fifth,3,21,female,right,donders,2021-07-09_16h02.31.236,ImageRatingTask_S5,2021.1.4,Win32,59.65163445,,,,,,,,,,,,,,,,,
,,,,,,,,,,,,0,5,5,5,1,sixth,3,21,female,right,donders,2021-07-09_16h02.31.236,ImageRatingTask_S5,2021.1.4,Win32,59.65163445,,,,,,,,,,,,,,,,,
,,,,,,,,,,,,0,6,6,6,1,seventh,3,21,female,right,donders,2021-07-09_16h02.31.236,ImageRatingTask_S5,2021.1.4,Win32,59.65163445,,,,,,,,,,,,,,,,,
,,,,,,,,,,,,0,7,7,7,1,last,3,21,female,right,donders,2021-07-09_16h02.31.236,ImageRatingTask_S5,2021.1.4,Win32,59.65163445,,,,,,,,,,,,,,,,,
,,,,,,,,,,,,,,,,,,3,21,female,right,donders,2021-07-09_16h02.31.236,ImageRatingTask_S5,2021.1.4,Win32,59.65163445,0,2,2,67,1,DreamStudyImages_rs1000x750g/Water/Landscapes_004_h.jpg,,,,,,,,,,,
,,4,2.4752,2,0.5758,9,1.0871,1,0.3052,3,1.1284,0,0,0,0,1,main,3,21,female,right,donders,2021-07-09_16h02.31.236,ImageRatingTask_S5,2021.1.4,Win32,59.65163445,,,,,,,,,,,,,,,,,
,,,,,,,,,,,,0,1,1,1,1,second,3,21,female,right,donders,2021-07-09_16h02.31.236,ImageRatingTask_S5,2021.1.4,Win32,59.65163445,,,,,,,,,,,,,,,,,
,,,,,,,,,,,,0,2,2,2,1,third,3,21,female,right,donders,2021-07-09_16h02.31.236,ImageRatingTask_S5,2021.1.4,Win32,59.65163445,,,,,,,,,,,,,,,,,
,,,,,,,,,,,,0,3,3,3,1,fourth,3,21,female,right,donders,2021-07-09_16h02.31.236,ImageRatingTask_S5,2021.1.4,Win32,59.65163445,,,,,,,,,,,,,,,,,
,,,,,,,,,,,,0,4,4,4,1,fifth,3,21,female,right,donders,2021-07-09_16h02.31.236,ImageRatingTask_S5,2021.1.4,Win32,59.65163445,,,,,,,,,,,,,,,,,
,,,,,,,,,,,,0,5,5,5,1,sixth,3,21,female,right,donders,2021-07-09_16h02.31.236,ImageRatingTask_S5,2021.1.4,Win32,59.65163445,,,,,,,,,,,,,,,,,
,,,,,,,,,,,,0,6,6,6,1,seventh,3,21,female,right,donders,2021-07-09_16h02.31.236,ImageRatingTask_S5,2021.1.4,Win32,59.65163445,,,,,,,,,,,,,,,,,
,,,,,,,,,,,,0,7,7,7,1,last,3,21,female,right,donders,2021-07-09_16h02.31.236,ImageRatingTask_S5,2021.1.4,Win32,59.65163445,,,,,,,,,,,,,,,,,
,,,,,,,,,,,,,,,,,,3,21,female,right,donders,2021-07-09_16h02.31.236,ImageRatingTask_S5,2021.1.4,Win32,59.65163445,0,3,3,34,1,DreamStudyImages_rs1000x750g/Mammals/Animals_085_h.jpg,,,,,,,,,,,
,,7,2.6936,2,0.5651,9,1.0164,1,0.2833,5,2.3337,0,0,0,0,1,main,3,21,female,right,donders,2021-07-09_16h02.31.236,ImageRatingTask_S5,2021.1.4,Win32,59.65163445,,,,,,,,,,,,,,,,,
,,,,,,,,,,,,0,1,1,1,1,second,3,21,female,right,donders,2021-07-09_16h02.31.236,ImageRatingTask_S5,2021.1.4,Win32,59.65163445,,,,,,,,,,,,,,,,,
,,,,,,,,,,,,0,2,2,2,1,third,3,21,female,right,donders,2021-07-09_16h02.31.236,ImageRatingTask_S5,2021.1.4,Win32,59.65163445,,,,,,,,,,,,,,,,,
,,,,,,,,,,,,0,3,3,3,1,fourth,3,21,female,right,donders,2021-07-09_16h02.31.236,ImageRatingTask_S5,2021.1.4,Win32,59.65163445,,,,,,,,,,,,,,,,,
,,,,,,,,,,,,0,4,4,4,1,fifth,3,21,female,right,donders,2021-07-09_16h02.31.236,ImageRatingTask_S5,2021.1.4,Win32,59.65163445,,,,,,,,,,,,,,,,,
,,,,,,,,,,,,0,5,5,5,1,sixth,3,21,female,right,donders,2021-07-09_16h02.31.236,ImageRatingTask_S5,2021.1.4,Win32,59.65163445,,,,,,,,,,,,,,,,,
,,,,,,,,,,,,0,6,6,6,1,seventh,3,21,female,right,donders,2021-07-09_16h02.31.236,ImageRatingTask_S5,2021.1.4,Win32,59.65163445,,,,,,,,,,,,,,,,,
,,,,,,,,,,,,0,7,7,7,1,last,3,21,female,right,donders,2021-07-09_16h02.31.236,ImageRatingTask_S5,2021.1.4,Win32,59.65163445,,,,,,,,,,,,,,,,,
,,,,,,,,,,,,,,,,,,3,21,female,right,donders,2021-07-09_16h02.31.236,ImageRatingTask_S5,2021.1.4,Win32,59.65163445,0,4,4,83,1,DreamStudyImages_rs1000x750g/Food/Objects_085_h.jpg,,,,,,,,,,,
,,6,2.0276,3,0.2796,9,0.8003,1,0.243,5,1.6003,0,0,0,0,1,main,3,21,female,right,donders,2021-07-09_16h02.31.236,ImageRatingTask_S5,2021.1.4,Win32,59.65163445,,,,,,,,,,,,,,,,,
,,,,,,,,,,,,0,1,1,1,1,second,3,21,female,right,donders,2021-07-09_16h02.31.236,ImageRatingTask_S5,2021.1.4,Win32,59.65163445,,,,,,,,,,,,,,,,,
,,,,,,,,,,,,0,2,2,2,1,third,3,21,female,right,donders,2021-07-09_16h02.31.236,ImageRatingTask_S5,2021.1.4,Win32,59.65163445,,,,,,,,,,,,,,,,,
,,,,,,,,,,,,0,3,3,3,1,fourth,3,21,female,right,donders,2021-07-09_16h02.31.236,ImageRatingTask_S5,2021.1.4,Win32,59.65163445,,,,,,,,,,,,,,,,,
,,,,,,,,,,,,0,4,4,4,1,fifth,3,21,female,right,donders,2021-07-09_16h02.31.236,ImageRatingTask_S5,2021.1.4,Win32,59.65163445,,,,,,,,,,,,,,,,,
,,,,,,,,,,,,0,5,5,5,1,sixth,3,21,female,right,donders,2021-07-09_16h02.31.236,ImageRatingTask_S5,2021.1.4,Win32,59.65163445,,,,,,,,,,,,,,,,,
,,,,,,,,,,,,0,6,6,6,1,seventh,3,21,female,right,donders,2021-07-09_16h02.31.236,ImageRatingTask_S5,2021.1.4,Win32,59.65163445,,,,,,,,,,,,,,,,,
,,,,,,,,,,,,0,7,7,7,1,last,3,21,female,right,donders,2021-07-09_16h02.31.236,ImageRatingTask_S5,2021.1.4,Win32,59.65163445,,,,,,,,,,,,,,,,,
,,,,,,,,,,,,,,,,,,3,21,female,right,donders,2021-07-09_16h02.31.236,ImageRatingTask_S5,2021.1.4,Win32,59.65163445,0,5,5,99,1,DreamStudyImages_rs1000x750g/Food/Birthday 1.jpg,,,,,,,,,,,
,,5,4.063,1,0.5473,8,1.6233,1,0.7487,5,0.8118,0,0,0,0,1,main,3,21,female,right,donders,2021-07-09_16h02.31.236,ImageRatingTask_S5,2021.1.4,Win32,59.65163445,,,,,,,,,,,,,,,,,
,,,,,,,,,,,,0,1,1,1,1,second,3,21,female,right,donders,2021-07-09_16h02.31.236,ImageRatingTask_S5,2021.1.4,Win32,59.65163445,,,,,,,,,,,,,,,,,
,,,,,,,,,,,,0,2,2,2,1,third,3,21,female,right,donders,2021-07-09_16h02.31.236,ImageRatingTask_S5,2021.1.4,Win32,59.65163445,,,,,,,,,,,,,,,,,
,,,,,,,,,,,,0,3,3,3,1,fourth,3,21,female,right,donders,2021-07-09_16h02.31.236,ImageRatingTask_S5,2021.1.4,Win32,59.65163445,,,,,,,,,,,,,,,,,
,,,,,,,,,,,,0,4,4,4,1,fifth,3,21,female,right,donders,2021-07-09_16h02.31.236,ImageRatingTask_S5,2021.1.4,Win32,59.65163445,,,,,,,,,,,,,,,,,
,,,,,,,,,,,,0,5,5,5,1,sixth,3,21,female,right,donders,2021-07-09_16h02.31.236,ImageRatingTask_S5,2021.1.4,Win32,59.65163445,,,,,,,,,,,,,,,,,
,,,,,,,,,,,,0,6,6,6,1,seventh,3,21,female,right,donders,2021-07-09_16h02.31.236,ImageRatingTask_S5,2021.1.4,Win32,59.65163445,,,,,,,,,,,,,,,,,
,,,,,,,,,,,,0,7,7,7,1,last,3,21,female,right,donders,2021-07-09_16h02.31.236,ImageRatingTask_S5,2021.1.4,Win32,59.65163445,,,,,,,,,,,,,,,,,
,,,,,,,,,,,,,,,,,,3,21,female,right,donders,2021-07-09_16h02.31.236,ImageRatingTask_S5,2021.1.4,Win32,59.65163445,0,6,6,24,1,DreamStudyImages_rs1000x750g/Food/Objects_034_v.jpg,,,,,,,,,,,
,,5,2.091,1,0.1263,9,0.7294,1,0.7654,7,0.5886,0,0,0,0,1,main,3,21,female,right,donders,2021-07-09_16h02.31.236,ImageRatingTask_S5,2021.1.4,Win32,59.65163445,,,,,,,,,,,,,,,,,
,,,,,,,,,,,,0,1,1,1,1,second,3,21,female,right,donders,2021-07-09_16h02.31.236,ImageRatingTask_S5,2021.1.4,Win32,59.65163445,,,,,,,,,,,,,,,,,
,,,,,,,,,,,,0,2,2,2,1,third,3,21,female,right,donders,2021-07-09_16h02.31.236,ImageRatingTask_S5,2021.1.4,Win32,59.65163445,,,,,,,,,,,,,,,,,
,,,,,,,,,,,,0,3,3,3,1,fourth,3,21,female,right,donders,2021-07-09_16h02.31.236,ImageRatingTask_S5,2021.1.4,Win32,59.65163445,,,,,,,,,,,,,,,,,
,,,,,,,,,,,,0,4,4,4,1,fifth,3,21,female,right,donders,2021-07-09_16h02.31.236,ImageRatingTask_S5,2021.1.4,Win32,59.65163445,,,,,,,,,,,,,,,,,
,,,,,,,,,,,,0,5,5,5,1,sixth,3,21,female,right,donders,2021-07-09_16h02.31.236,ImageRatingTask_S5,2021.1.4,Win32,59.65163445,,,,,,,,,,,,,,,,,
,,,,,,,,,,,,0,6,6,6,1,seventh,3,21,female,right,donders,2021-07-09_16h02.31.236,ImageRatingTask_S5,2021.1.4,Win32,59.65163445,,,,,,,,,,,,,,,,,
,,,,,,,,,,,,0,7,7,7,1,last,3,21,female,right,donders,2021-07-09_16h02.31.236,ImageRatingTask_S5,2021.1.4,Win32,59.65163445,,,,,,,,,,,,,,,,,
,,,,,,,,,,,,,,,,,,3,21,female,right,donders,2021-07-09_16h02.31.236,ImageRatingTask_S5,2021.1.4,Win32,59.65163445,0,7,7,69,1,DreamStudyImages_rs1000x750g/Vehicles/fireengine.jpg,,,,,,,,,,,
,,7,1.7533,3,0.3812,8,2.1285,1,0.2663,3,1.3997,0,0,0,0,1,main,3,21,female,right,donders,2021-07-09_16h02.31.236,ImageRatingTask_S5,2021.1.4,Win32,59.65163445,,,,,,,,,,,,,,,,,
,,,,,,,,,,,,0,1,1,1,1,second,3,21,female,right,donders,2021-07-09_16h02.31.236,ImageRatingTask_S5,2021.1.4,Win32,59.65163445,,,,,,,,,,,,,,,,,
,,,,,,,,,,,,0,2,2,2,1,third,3,21,female,right,donders,2021-07-09_16h02.31.236,ImageRatingTask_S5,2021.1.4,Win32,59.65163445,,,,,,,,,,,,,,,,,
,,,,,,,,,,,,0,3,3,3,1,fourth,3,21,female,right,donders,2021-07-09_16h02.31.236,ImageRatingTask_S5,2021.1.4,Win32,59.65163445,,,,,,,,,,,,,,,,,
,,,,,,,,,,,,0,4,4,4,1,fifth,3,21,female,right,donders,2021-07-09_16h02.31.236,ImageRatingTask_S5,2021.1.4,Win32,59.65163445,,,,,,,,,,,,,,,,,
,,,,,,,,,,,,0,5,5,5,1,sixth,3,21,female,right,donders,2021-07-09_16h02.31.236,ImageRatingTask_S5,2021.1.4,Win32,59.65163445,,,,,,,,,,,,,,,,,
,,,,,,,,,,,,0,6,6,6,1,seventh,3,21,female,right,donders,2021-07-09_16h02.31.236,ImageRatingTask_S5,2021.1.4,Win32,59.65163445,,,,,,,,,,,,,,,,,
,,,,,,,,,,,,0,7,7,7,1,last,3,21,female,right,donders,2021-07-09_16h02.31.236,ImageRatingTask_S5,2021.1.4,Win32,59.65163445,,,,,,,,,,,,,,,,,
,,,,,,,,,,,,,,,,,,3,21,female,right,donders,2021-07-09_16h02.31.236,ImageRatingTask_S5,2021.1.4,Win32,59.65163445,0,8,8,106,1,DreamStudyImages_rs1000x750g/Mammals/Dog 14.jpg,,,,,,,,,,,
,,5,1.7114,1,0.3832,4,1.8207,1,0.8171,6,0.611,0,0,0,0,1,main,3,21,female,right,donders,2021-07-09_16h02.31.236,ImageRatingTask_S5,2021.1.4,Win32,59.65163445,,,,,,,,,,,,,,,,,
,,,,,,,,,,,,0,1,1,1,1,second,3,21,female,right,donders,2021-07-09_16h02.31.236,ImageRatingTask_S5,2021.1.4,Win32,59.65163445,,,,,,,,,,,,,,,,,
,,,,,,,,,,,,0,2,2,2,1,third,3,21,female,right,donders,2021-07-09_16h02.31.236,ImageRatingTask_S5,2021.1.4,Win32,59.65163445,,,,,,,,,,,,,,,,,
,,,,,,,,,,,,0,3,3,3,1,fourth,3,21,female,right,donders,2021-07-09_16h02.31.236,ImageRatingTask_S5,2021.1.4,Win32,59.65163445,,,,,,,,,,,,,,,,,
,,,,,,,,,,,,0,4,4,4,1,fifth,3,21,female,right,donders,2021-07-09_16h02.31.236,ImageRatingTask_S5,2021.1.4,Win32,59.65163445,,,,,,,,,,,,,,,,,
,,,,,,,,,,,,0,5,5,5,1,sixth,3,21,female,right,donders,2021-07-09_16h02.31.236,ImageRatingTask_S5,2021.1.4,Win32,59.65163445,,,,,,,,,,,,,,,,,
,,,,,,,,,,,,0,6,6,6,1,seventh,3,21,female,right,donders,2021-07-09_16h02.31.236,ImageRatingTask_S5,2021.1.4,Win32,59.65163445,,,,,,,,,,,,,,,,,
,,,,,,,,,,,,0,7,7,7,1,last,3,21,female,right,donders,2021-07-09_16h02.31.236,ImageRatingTask_S5,2021.1.4,Win32,59.65163445,,,,,,,,,,,,,,,,,
,,,,,,,,,,,,,,,,,,3,21,female,right,donders,2021-07-09_16h02.31.236,ImageRatingTask_S5,2021.1.4,Win32,59.65163445,0,9,9,128,1,DreamStudyImages_rs1000x750g/Houses/NDPS4_buildings2_water_CROPPED.jpg,,,,,,,,,,,
,,4,4.2747,3,0.3217,7,2.5497,1,0.3249,2,0.6677,0,0,0,0,1,main,3,21,female,right,donders,2021-07-09_16h02.31.236,ImageRatingTask_S5,2021.1.4,Win32,59.65163445,,,,,,,,,,,,,,,,,
,,,,,,,,,,,,0,1,1,1,1,second,3,21,female,right,donders,2021-07-09_16h02.31.236,ImageRatingTask_S5,2021.1.4,Win32,59.65163445,,,,,,,,,,,,,,,,,
,,,,,,,,,,,,0,2,2,2,1,third,3,21,female,right,donders,2021-07-09_16h02.31.236,ImageRatingTask_S5,2021.1.4,Win32,59.65163445,,,,,,,,,,,,,,,,,
,,,,,,,,,,,,0,3,3,3,1,fourth,3,21,female,right,donders,2021-07-09_16h02.31.236,ImageRatingTask_S5,2021.1.4,Win32,59.65163445,,,,,,,,,,,,,,,,,
,,,,,,,,,,,,0,4,4,4,1,fifth,3,21,female,right,donders,2021-07-09_16h02.31.236,ImageRatingTask_S5,2021.1.4,Win32,59.65163445,,,,,,,,,,,,,,,,,
,,,,,,,,,,,,0,5,5,5,1,sixth,3,21,female,right,donders,2021-07-09_16h02.31.236,ImageRatingTask_S5,2021.1.4,Win32,59.65163445,,,,,,,,,,,,,,,,,
,,,,,,,,,,,,0,6,6,6,1,seventh,3,21,female,right,donders,2021-07-09_16h02.31.236,ImageRatingTask_S5,2021.1.4,Win32,59.65163445,,,,,,,,,,,,,,,,,
,,,,,,,,,,,,0,7,7,7,1,last,3,21,female,right,donders,2021-07-09_16h02.31.236,ImageRatingTask_S5,2021.1.4,Win32,59.65163445,,,,,,,,,,,,,,,,,
,,,,,,,,,,,,,,,,,,3,21,female,right,donders,2021-07-09_16h02.31.236,ImageRatingTask_S5,2021.1.4,Win32,59.65163445,0,10,10,77,1,DreamStudyImages_rs1000x750g/Children/People_031_v.jpg,,,,,,,,,,,
,,7,3.2435,3,0.5991,9,0.9086,1,0.2168,3,0.8489,0,0,0,0,1,main,3,21,female,right,donders,2021-07-09_16h02.31.236,ImageRatingTask_S5,2021.1.4,Win32,59.65163445,,,,,,,,,,,,,,,,,
,,,,,,,,,,,,0,1,1,1,1,second,3,21,female,right,donders,2021-07-09_16h02.31.236,ImageRatingTask_S5,2021.1.4,Win32,59.65163445,,,,,,,,,,,,,,,,,
,,,,,,,,,,,,0,2,2,2,1,third,3,21,female,right,donders,2021-07-09_16h02.31.236,ImageRatingTask_S5,2021.1.4,Win32,59.65163445,,,,,,,,,,,,,,,,,
,,,,,,,,,,,,0,3,3,3,1,fourth,3,21,female,right,donders,2021-07-09_16h02.31.236,ImageRatingTask_S5,2021.1.4,Win32,59.65163445,,,,,,,,,,,,,,,,,
,,,,,,,,,,,,0,4,4,4,1,fifth,3,21,female,right,donders,2021-07-09_16h02.31.236,ImageRatingTask_S5,2021.1.4,Win32,59.65163445,,,,,,,,,,,,,,,,,
,,,,,,,,,,,,0,5,5,5,1,sixth,3,21,female,right,donders,2021-07-09_16h02.31.236,ImageRatingTask_S5,2021.1.4,Win32,59.65163445,,,,,,,,,,,,,,,,,
,,,,,,,,,,,,0,6,6,6,1,seventh,3,21,female,right,donders,2021-07-09_16h02.31.236,ImageRatingTask_S5,2021.1.4,Win32,59.65163445,,,,,,,,,,,,,,,,,
,,,,,,,,,,,,0,7,7,7,1,last,3,21,female,right,donders,2021-07-09_16h02.31.236,ImageRatingTask_S5,2021.1.4,Win32,59.65163445,,,,,,,,,,,,,,,,,
,,,,,,,,,,,,,,,,,,3,21,female,right,donders,2021-07-09_16h02.31.236,ImageRatingTask_S5,2021.1.4,Win32,59.65163445,0,11,11,117,1,DreamStudyImages_rs1000x750g/Mammals/Animals_053_h.jpg,,,,,,,,,,,
,,7,3.4238,3,0.8311,9,1.0674,1,0.3507,3,0.4566,0,0,0,0,1,main,3,21,female,right,donders,2021-07-09_16h02.31.236,ImageRatingTask_S5,2021.1.4,Win32,59.65163445,,,,,,,,,,,,,,,,,
,,,,,,,,,,,,0,1,1,1,1,second,3,21,female,right,donders,2021-07-09_16h02.31.236,ImageRatingTask_S5,2021.1.4,Win32,59.65163445,,,,,,,,,,,,,,,,,
,,,,,,,,,,,,0,2,2,2,1,third,3,21,female,right,donders,2021-07-09_16h02.31.236,ImageRatingTask_S5,2021.1.4,Win32,59.65163445,,,,,,,,,,,,,,,,,
,,,,,,,,,,,,0,3,3,3,1,fourth,3,21,female,right,donders,2021-07-09_16h02.31.236,ImageRatingTask_S5,2021.1.4,Win32,59.65163445,,,,,,,,,,,,,,,,,
,,,,,,,,,,,,0,4,4,4,1,fifth,3,21,female,right,donders,2021-07-09_16h02.31.236,ImageRatingTask_S5,2021.1.4,Win32,59.65163445,,,,,,,,,,,,,,,,,
,,,,,,,,,,,,0,5,5,5,1,sixth,3,21,female,right,donders,2021-07-09_16h02.31.236,ImageRatingTask_S5,2021.1.4,Win32,59.65163445,,,,,,,,,,,,,,,,,
,,,,,,,,,,,,0,6,6,6,1,seventh,3,21,female,right,donders,2021-07-09_16h02.31.236,ImageRatingTask_S5,2021.1.4,Win32,59.65163445,,,,,,,,,,,,,,,,,
,,,,,,,,,,,,0,7,7,7,1,last,3,21,female,right,donders,2021-07-09_16h02.31.236,ImageRatingTask_S5,2021.1.4,Win32,59.65163445,,,,,,,,,,,,,,,,,
,,,,,,,,,,,,,,,,,,3,21,female,right,donders,2021-07-09_16h02.31.236,ImageRatingTask_S5,2021.1.4,Win32,59.65163445,0,12,12,130,1,DreamStudyImages_rs1000x750g/Mammals/Animals_167_h.jpg,,,,,,,,,,,
,,4,1.7633,2,1.6712,8,1.7669,1,0.2999,2,0.6835,0,0,0,0,1,main,3,21,female,right,donders,2021-07-09_16h02.31.236,ImageRatingTask_S5,2021.1.4,Win32,59.65163445,,,,,,,,,,,,,,,,,
,,,,,,,,,,,,0,1,1,1,1,second,3,21,female,right,donders,2021-07-09_16h02.31.236,ImageRatingTask_S5,2021.1.4,Win32,59.65163445,,,,,,,,,,,,,,,,,
,,,,,,,,,,,,0,2,2,2,1,third,3,21,female,right,donders,2021-07-09_16h02.31.236,ImageRatingTask_S5,2021.1.4,Win32,59.65163445,,,,,,,,,,,,,,,,,
,,,,,,,,,,,,0,3,3,3,1,fourth,3,21,female,right,donders,2021-07-09_16h02.31.236,ImageRatingTask_S5,2021.1.4,Win32,59.65163445,,,,,,,,,,,,,,,,,
,,,,,,,,,,,,0,4,4,4,1,fifth,3,21,female,right,donders,2021-07-09_16h02.31.236,ImageRatingTask_S5,2021.1.4,Win32,59.65163445,,,,,,,,,,,,,,,,,
,,,,,,,,,,,,0,5,5,5,1,sixth,3,21,female,right,donders,2021-07-09_16h02.31.236,ImageRatingTask_S5,2021.1.4,Win32,59.65163445,,,,,,,,,,,,,,,,,
,,,,,,,,,,,,0,6,6,6,1,seventh,3,21,female,right,donders,2021-07-09_16h02.31.236,ImageRatingTask_S5,2021.1.4,Win32,59.65163445,,,,,,,,,,,,,,,,,
,,,,,,,,,,,,0,7,7,7,1,last,3,21,female,right,donders,2021-07-09_16h02.31.236,ImageRatingTask_S5,2021.1.4,Win32,59.65163445,,,,,,,,,,,,,,,,,
,,,,,,,,,,,,,,,,,,3,21,female,right,donders,2021-07-09_16h02.31.236,ImageRatingTask_S5,2021.1.4,Win32,59.65163445,0,13,13,119,1,DreamStudyImages_rs1000x750g/Children/Sad face 1.jpg,,,,,,,,,,,
,,5,1.7457,1,0.4474,7,0.8667,1,0.6432,2,0.2116,0,0,0,0,1,main,3,21,female,right,donders,2021-07-09_16h02.31.236,ImageRatingTask_S5,2021.1.4,Win32,59.65163445,,,,,,,,,,,,,,,,,
,,,,,,,,,,,,0,1,1,1,1,second,3,21,female,right,donders,2021-07-09_16h02.31.236,ImageRatingTask_S5,2021.1.4,Win32,59.65163445,,,,,,,,,,,,,,,,,
,,,,,,,,,,,,0,2,2,2,1,third,3,21,female,right,donders,2021-07-09_16h02.31.236,ImageRatingTask_S5,2021.1.4,Win32,59.65163445,,,,,,,,,,,,,,,,,
,,,,,,,,,,,,0,3,3,3,1,fourth,3,21,female,right,donders,2021-07-09_16h02.31.236,ImageRatingTask_S5,2021.1.4,Win32,59.65163445,,,,,,,,,,,,,,,,,
,,,,,,,,,,,,0,4,4,4,1,fifth,3,21,female,right,donders,2021-07-09_16h02.31.236,ImageRatingTask_S5,2021.1.4,Win32,59.65163445,,,,,,,,,,,,,,,,,
,,,,,,,,,,,,0,5,5,5,1,sixth,3,21,female,right,donders,2021-07-09_16h02.31.236,ImageRatingTask_S5,2021.1.4,Win32,59.65163445,,,,,,,,,,,,,,,,,
,,,,,,,,,,,,0,6,6,6,1,seventh,3,21,female,right,donders,2021-07-09_16h02.31.236,ImageRatingTask_S5,2021.1.4,Win32,59.65163445,,,,,,,,,,,,,,,,,
,,,,,,,,,,,,0,7,7,7,1,last,3,21,female,right,donders,2021-07-09_16h02.31.236,ImageRatingTask_S5,2021.1.4,Win32,59.65163445,,,,,,,,,,,,,,,,,
,,,,,,,,,,,,,,,,,,3,21,female,right,donders,2021-07-09_16h02.31.236,ImageRatingTask_S5,2021.1.4,Win32,59.65163445,0,14,14,134,1,DreamStudyImages_rs1000x750g/Children/Gazing 6.jpg,,,,,,,,,,,
,,5,3.057,1,0.5461,7,1.2587,1,0.3273,5,1.308,0,0,0,0,1,main,3,21,female,right,donders,2021-07-09_16h02.31.236,ImageRatingTask_S5,2021.1.4,Win32,59.65163445,,,,,,,,,,,,,,,,,
,,,,,,,,,,,,0,1,1,1,1,second,3,21,female,right,donders,2021-07-09_16h02.31.236,ImageRatingTask_S5,2021.1.4,Win32,59.65163445,,,,,,,,,,,,,,,,,
,,,,,,,,,,,,0,2,2,2,1,third,3,21,female,right,donders,2021-07-09_16h02.31.236,ImageRatingTask_S5,2021.1.4,Win32,59.65163445,,,,,,,,,,,,,,,,,
,,,,,,,,,,,,0,3,3,3,1,fourth,3,21,female,right,donders,2021-07-09_16h02.31.236,ImageRatingTask_S5,2021.1.4,Win32,59.65163445,,,,,,,,,,,,,,,,,
,,,,,,,,,,,,0,4,4,4,1,fifth,3,21,female,right,donders,2021-07-09_16h02.31.236,ImageRatingTask_S5,2021.1.4,Win32,59.65163445,,,,,,,,,,,,,,,,,
,,,,,,,,,,,,0,5,5,5,1,sixth,3,21,female,right,donders,2021-07-09_16h02.31.236,ImageRatingTask_S5,2021.1.4,Win32,59.65163445,,,,,,,,,,,,,,,,,
,,,,,,,,,,,,0,6,6,6,1,seventh,3,21,female,right,donders,2021-07-09_16h02.31.236,ImageRatingTask_S5,2021.1.4,Win32,59.65163445,,,,,,,,,,,,,,,,,
,,,,,,,,,,,,0,7,7,7,1,last,3,21,female,right,donders,2021-07-09_16h02.31.236,ImageRatingTask_S5,2021.1.4,Win32,59.65163445,,,,,,,,,,,,,,,,,
,,,,,,,,,,,,,,,,,,3,21,female,right,donders,2021-07-09_16h02.31.236,ImageRatingTask_S5,2021.1.4,Win32,59.65163445,0,15,15,36,1,DreamStudyImages_rs1000x750g/Food/Objects_058_h.jpg,,,,,,,,,,,
,,5,1.3476,1,0.1479,8,1.5112,1,0.697,6,0.8162,0,0,0,0,1,main,3,21,female,right,donders,2021-07-09_16h02.31.236,ImageRatingTask_S5,2021.1.4,Win32,59.65163445,,,,,,,,,,,,,,,,,
,,,,,,,,,,,,0,1,1,1,1,second,3,21,female,right,donders,2021-07-09_16h02.31.236,ImageRatingTask_S5,2021.1.4,Win32,59.65163445,,,,,,,,,,,,,,,,,
,,,,,,,,,,,,0,2,2,2,1,third,3,21,female,right,donders,2021-07-09_16h02.31.236,ImageRatingTask_S5,2021.1.4,Win32,59.65163445,,,,,,,,,,,,,,,,,
,,,,,,,,,,,,0,3,3,3,1,fourth,3,21,female,right,donders,2021-07-09_16h02.31.236,ImageRatingTask_S5,2021.1.4,Win32,59.65163445,,,,,,,,,,,,,,,,,
,,,,,,,,,,,,0,4,4,4,1,fifth,3,21,female,right,donders,2021-07-09_16h02.31.236,ImageRatingTask_S5,2021.1.4,Win32,59.65163445,,,,,,,,,,,,,,,,,
,,,,,,,,,,,,0,5,5,5,1,sixth,3,21,female,right,donders,2021-07-09_16h02.31.236,ImageRatingTask_S5,2021.1.4,Win32,59.65163445,,,,,,,,,,,,,,,,,
,,,,,,,,,,,,0,6,6,6,1,seventh,3,21,female,right,donders,2021-07-09_16h02.31.236,ImageRatingTask_S5,2021.1.4,Win32,59.65163445,,,,,,,,,,,,,,,,,
,,,,,,,,,,,,0,7,7,7,1,last,3,21,female,right,donders,2021-07-09_16h02.31.236,ImageRatingTask_S5,2021.1.4,Win32,59.65163445,,,,,,,,,,,,,,,,,
,,,,,,,,,,,,,,,,,,3,21,female,right,donders,2021-07-09_16h02.31.236,ImageRatingTask_S5,2021.1.4,Win32,59.65163445,0,16,16,98,1,DreamStudyImages_rs1000x750g/Houses/Landscapes_082_v_CROPPED.jpg,,,,,,,,,,,
,,6,1.7964,2,0.2276,8,1.3029,1,0.55,2,0.5167,0,0,0,0,1,main,3,21,female,right,donders,2021-07-09_16h02.31.236,ImageRatingTask_S5,2021.1.4,Win32,59.65163445,,,,,,,,,,,,,,,,,
,,,,,,,,,,,,0,1,1,1,1,second,3,21,female,right,donders,2021-07-09_16h02.31.236,ImageRatingTask_S5,2021.1.4,Win32,59.65163445,,,,,,,,,,,,,,,,,
,,,,,,,,,,,,0,2,2,2,1,third,3,21,female,right,donders,2021-07-09_16h02.31.236,ImageRatingTask_S5,2021.1.4,Win32,59.65163445,,,,,,,,,,,,,,,,,
,,,,,,,,,,,,0,3,3,3,1,fourth,3,21,female,right,donders,2021-07-09_16h02.31.236,ImageRatingTask_S5,2021.1.4,Win32,59.65163445,,,,,,,,,,,,,,,,,
,,,,,,,,,,,,0,4,4,4,1,fifth,3,21,female,right,donders,2021-07-09_16h02.31.236,ImageRatingTask_S5,2021.1.4,Win32,59.65163445,,,,,,,,,,,,,,,,,
,,,,,,,,,,,,0,5,5,5,1,sixth,3,21,female,right,donders,2021-07-09_16h02.31.236,ImageRatingTask_S5,2021.1.4,Win32,59.65163445,,,,,,,,,,,,,,,,,
,,,,,,,,,,,,0,6,6,6,1,seventh,3,21,female,right,donders,2021-07-09_16h02.31.236,ImageRatingTask_S5,2021.1.4,Win32,59.65163445,,,,,,,,,,,,,,,,,
,,,,,,,,,,,,0,7,7,7,1,last,3,21,female,right,donders,2021-07-09_16h02.31.236,ImageRatingTask_S5,2021.1.4,Win32,59.65163445,,,,,,,,,,,,,,,,,
,,,,,,,,,,,,,,,,,,3,21,female,right,donders,2021-07-09_16h02.31.236,ImageRatingTask_S5,2021.1.4,Win32,59.65163445,0,17,17,110,1,DreamStudyImages_rs1000x750g/Children/Faces_073_v.jpg,,,,,,,,,,,
,,6,50.0162,2,0.492,7,1.1834,1,0.685,5,0.6168,0,0,0,0,1,main,3,21,female,right,donders,2021-07-09_16h02.31.236,ImageRatingTask_S5,2021.1.4,Win32,59.65163445,,,,,,,,,,,,,,,,,
,,,,,,,,,,,,0,1,1,1,1,second,3,21,female,right,donders,2021-07-09_16h02.31.236,ImageRatingTask_S5,2021.1.4,Win32,59.65163445,,,,,,,,,,,,,,,,,
,,,,,,,,,,,,0,2,2,2,1,third,3,21,female,right,donders,2021-07-09_16h02.31.236,ImageRatingTask_S5,2021.1.4,Win32,59.65163445,,,,,,,,,,,,,,,,,
,,,,,,,,,,,,0,3,3,3,1,fourth,3,21,female,right,donders,2021-07-09_16h02.31.236,ImageRatingTask_S5,2021.1.4,Win32,59.65163445,,,,,,,,,,,,,,,,,
,,,,,,,,,,,,0,4,4,4,1,fifth,3,21,female,right,donders,2021-07-09_16h02.31.236,ImageRatingTask_S5,2021.1.4,Win32,59.65163445,,,,,,,,,,,,,,,,,
,,,,,,,,,,,,0,5,5,5,1,sixth,3,21,female,right,donders,2021-07-09_16h02.31.236,ImageRatingTask_S5,2021.1.4,Win32,59.65163445,,,,,,,,,,,,,,,,,
,,,,,,,,,,,,0,6,6,6,1,seventh,3,21,female,right,donders,2021-07-09_16h02.31.236,ImageRatingTask_S5,2021.1.4,Win32,59.65163445,,,,,,,,,,,,,,,,,
,,,,,,,,,,,,0,7,7,7,1,last,3,21,female,right,donders,2021-07-09_16h02.31.236,ImageRatingTask_S5,2021.1.4,Win32,59.65163445,,,,,,,,,,,,,,,,,
,,,,,,,,,,,,,,,,,,3,21,female,right,donders,2021-07-09_16h02.31.236,ImageRatingTask_S5,2021.1.4,Win32,59.65163445,0,18,18,151,1,DreamStudyImages_rs1000x750g/Food/IAPS7430_chocolate3.jpg,,,,,,,,,,,
,,5,3.2504,1,0.1584,8,1.1581,1,0.3665,3,1.45,0,0,0,0,1,main,3,21,female,right,donders,2021-07-09_16h02.31.236,ImageRatingTask_S5,2021.1.4,Win32,59.65163445,,,,,,,,,,,,,,,,,
,,,,,,,,,,,,0,1,1,1,1,second,3,21,female,right,donders,2021-07-09_16h02.31.236,ImageRatingTask_S5,2021.1.4,Win32,59.65163445,,,,,,,,,,,,,,,,,
,,,,,,,,,,,,0,2,2,2,1,third,3,21,female,right,donders,2021-07-09_16h02.31.236,ImageRatingTask_S5,2021.1.4,Win32,59.65163445,,,,,,,,,,,,,,,,,
,,,,,,,,,,,,0,3,3,3,1,fourth,3,21,female,right,donders,2021-07-09_16h02.31.236,ImageRatingTask_S5,2021.1.4,Win32,59.65163445,,,,,,,,,,,,,,,,,
,,,,,,,,,,,,0,4,4,4,1,fifth,3,21,female,right,donders,2021-07-09_16h02.31.236,ImageRatingTask_S5,2021.1.4,Win32,59.65163445,,,,,,,,,,,,,,,,,
,,,,,,,,,,,,0,5,5,5,1,sixth,3,21,female,right,donders,2021-07-09_16h02.31.236,ImageRatingTask_S5,2021.1.4,Win32,59.65163445,,,,,,,,,,,,,,,,,
,,,,,,,,,,,,0,6,6,6,1,seventh,3,21,female,right,donders,2021-07-09_16h02.31.236,ImageRatingTask_S5,2021.1.4,Win32,59.65163445,,,,,,,,,,,,,,,,,
,,,,,,,,,,,,0,7,7,7,1,last,3,21,female,right,donders,2021-07-09_16h02.31.236,ImageRatingTask_S5,2021.1.4,Win32,59.65163445,,,,,,,,,,,,,,,,,
,,,,,,,,,,,,,,,,,,3,21,female,right,donders,2021-07-09_16h02.31.236,ImageRatingTask_S5,2021.1.4,Win32,59.65163445,0,19,19,80,1,DreamStudyImages_rs1000x750g/Mammals/Animals_199_h.jpg,,,,,,,,,,,
,,5,1.1964,1,0.2167,9,0.8772,1,0.2832,7,0.6158,0,0,0,0,1,main,3,21,female,right,donders,2021-07-09_16h02.31.236,ImageRatingTask_S5,2021.1.4,Win32,59.65163445,,,,,,,,,,,,,,,,,
,,,,,,,,,,,,0,1,1,1,1,second,3,21,female,right,donders,2021-07-09_16h02.31.236,ImageRatingTask_S5,2021.1.4,Win32,59.65163445,,,,,,,,,,,,,,,,,
,,,,,,,,,,,,0,2,2,2,1,third,3,21,female,right,donders,2021-07-09_16h02.31.236,ImageRatingTask_S5,2021.1.4,Win32,59.65163445,,,,,,,,,,,,,,,,,
,,,,,,,,,,,,0,3,3,3,1,fourth,3,21,female,right,donders,2021-07-09_16h02.31.236,ImageRatingTask_S5,2021.1.4,Win32,59.65163445,,,,,,,,,,,,,,,,,
,,,,,,,,,,,,0,4,4,4,1,fifth,3,21,female,right,donders,2021-07-09_16h02.31.236,ImageRatingTask_S5,2021.1.4,Win32,59.65163445,,,,,,,,,,,,,,,,,
,,,,,,,,,,,,0,5,5,5,1,sixth,3,21,female,right,donders,2021-07-09_16h02.31.236,ImageRatingTask_S5,2021.1.4,Win32,59.65163445,,,,,,,,,,,,,,,,,
,,,,,,,,,,,,0,6,6,6,1,seventh,3,21,female,right,donders,2021-07-09_16h02.31.236,ImageRatingTask_S5,2021.1.4,Win32,59.65163445,,,,,,,,,,,,,,,,,
,,,,,,,,,,,,0,7,7,7,1,last,3,21,female,right,donders,2021-07-09_16h02.31.236,ImageRatingTask_S5,2021.1.4,Win32,59.65163445,,,,,,,,,,,,,,,,,
,,,,,,,,,,,,,,,,,,3,21,female,right,donders,2021-07-09_16h02.31.236,ImageRatingTask_S5,2021.1.4,Win32,59.65163445,0,20,20,28,1,DreamStudyImages_rs1000x750g/Vehicles/bigtruck.jpg,,,,,,,,,,,
,,6,2.9361,2,0.3082,7,0.8837,1,0.358,3,0.917,0,0,0,0,1,main,3,21,female,right,donders,2021-07-09_16h02.31.236,ImageRatingTask_S5,2021.1.4,Win32,59.65163445,,,,,,,,,,,,,,,,,
,,,,,,,,,,,,0,1,1,1,1,second,3,21,female,right,donders,2021-07-09_16h02.31.236,ImageRatingTask_S5,2021.1.4,Win32,59.65163445,,,,,,,,,,,,,,,,,
,,,,,,,,,,,,0,2,2,2,1,third,3,21,female,right,donders,2021-07-09_16h02.31.236,ImageRatingTask_S5,2021.1.4,Win32,59.65163445,,,,,,,,,,,,,,,,,
,,,,,,,,,,,,0,3,3,3,1,fourth,3,21,female,right,donders,2021-07-09_16h02.31.236,ImageRatingTask_S5,2021.1.4,Win32,59.65163445,,,,,,,,,,,,,,,,,
,,,,,,,,,,,,0,4,4,4,1,fifth,3,21,female,right,donders,2021-07-09_16h02.31.236,ImageRatingTask_S5,2021.1.4,Win32,59.65163445,,,,,,,,,,,,,,,,,
,,,,,,,,,,,,0,5,5,5,1,sixth,3,21,female,right,donders,2021-07-09_16h02.31.236,ImageRatingTask_S5,2021.1.4,Win32,59.65163445,,,,,,,,,,,,,,,,,
,,,,,,,,,,,,0,6,6,6,1,seventh,3,21,female,right,donders,2021-07-09_16h02.31.236,ImageRatingTask_S5,2021.1.4,Win32,59.65163445,,,,,,,,,,,,,,,,,
,,,,,,,,,,,,0,7,7,7,1,last,3,21,female,right,donders,2021-07-09_16h02.31.236,ImageRatingTask_S5,2021.1.4,Win32,59.65163445,,,,,,,,,,,,,,,,,
,,,,,,,,,,,,,,,,,,3,21,female,right,donders,2021-07-09_16h02.31.236,ImageRatingTask_S5,2021.1.4,Win32,59.65163445,0,21,21,38,1,DreamStudyImages_rs1000x750g/Mammals/IAPS1500_dog6.jpg,,,,,,,,,,,
,,7,1.8277,3,0.2445,8,2.1361,1,0.6735,3,0.7667,0,0,0,0,1,main,3,21,female,right,donders,2021-07-09_16h02.31.236,ImageRatingTask_S5,2021.1.4,Win32,59.65163445,,,,,,,,,,,,,,,,,
,,,,,,,,,,,,0,1,1,1,1,second,3,21,female,right,donders,2021-07-09_16h02.31.236,ImageRatingTask_S5,2021.1.4,Win32,59.65163445,,,,,,,,,,,,,,,,,
,,,,,,,,,,,,0,2,2,2,1,third,3,21,female,right,donders,2021-07-09_16h02.31.236,ImageRatingTask_S5,2021.1.4,Win32,59.65163445,,,,,,,,,,,,,,,,,
,,,,,,,,,,,,0,3,3,3,1,fourth,3,21,female,right,donders,2021-07-09_16h02.31.236,ImageRatingTask_S5,2021.1.4,Win32,59.65163445,,,,,,,,,,,,,,,,,
,,,,,,,,,,,,0,4,4,4,1,fifth,3,21,female,right,donders,2021-07-09_16h02.31.236,ImageRatingTask_S5,2021.1.4,Win32,59.65163445,,,,,,,,,,,,,,,,,
,,,,,,,,,,,,0,5,5,5,1,sixth,3,21,female,right,donders,2021-07-09_16h02.31.236,ImageRatingTask_S5,2021.1.4,Win32,59.65163445,,,,,,,,,,,,,,,,,
,,,,,,,,,,,,0,6,6,6,1,seventh,3,21,female,right,donders,2021-07-09_16h02.31.236,ImageRatingTask_S5,2021.1.4,Win32,59.65163445,,,,,,,,,,,,,,,,,
,,,,,,,,,,,,0,7,7,7,1,last,3,21,female,right,donders,2021-07-09_16h02.31.236,ImageRatingTask_S5,2021.1.4,Win32,59.65163445,,,,,,,,,,,,,,,,,
,,,,,,,,,,,,,,,,,,3,21,female,right,donders,2021-07-09_16h02.31.236,ImageRatingTask_S5,2021.1.4,Win32,59.65163445,0,22,22,84,1,DreamStudyImages_rs1000x750g/Mammals/Elephant 1.jpg,,,,,,,,,,,
,,5,3.1894,1,0.0732,9,1.1344,1,2.972,5,0.833,0,0,0,0,1,main,3,21,female,right,donders,2021-07-09_16h02.31.236,ImageRatingTask_S5,2021.1.4,Win32,59.65163445,,,,,,,,,,,,,,,,,
,,,,,,,,,,,,0,1,1,1,1,second,3,21,female,right,donders,2021-07-09_16h02.31.236,ImageRatingTask_S5,2021.1.4,Win32,59.65163445,,,,,,,,,,,,,,,,,
,,,,,,,,,,,,0,2,2,2,1,third,3,21,female,right,donders,2021-07-09_16h02.31.236,ImageRatingTask_S5,2021.1.4,Win32,59.65163445,,,,,,,,,,,,,,,,,
,,,,,,,,,,,,0,3,3,3,1,fourth,3,21,female,right,donders,2021-07-09_16h02.31.236,ImageRatingTask_S5,2021.1.4,Win32,59.65163445,,,,,,,,,,,,,,,,,
,,,,,,,,,,,,0,4,4,4,1,fifth,3,21,female,right,donders,2021-07-09_16h02.31.236,ImageRatingTask_S5,2021.1.4,Win32,59.65163445,,,,,,,,,,,,,,,,,
,,,,,,,,,,,,0,5,5,5,1,sixth,3,21,female,right,donders,2021-07-09_16h02.31.236,ImageRatingTask_S5,2021.1.4,Win32,59.65163445,,,,,,,,,,,,,,,,,
,,,,,,,,,,,,0,6,6,6,1,seventh,3,21,female,right,donders,2021-07-09_16h02.31.236,ImageRatingTask_S5,2021.1.4,Win32,59.65163445,,,,,,,,,,,,,,,,,
,,,,,,,,,,,,0,7,7,7,1,last,3,21,female,right,donders,2021-07-09_16h02.31.236,ImageRatingTask_S5,2021.1.4,Win32,59.65163445,,,,,,,,,,,,,,,,,
,,,,,,,,,,,,,,,,,,3,21,female,right,donders,2021-07-09_16h02.31.236,ImageRatingTask_S5,2021.1.4,Win32,59.65163445,0,23,23,101,1,DreamStudyImages_rs1000x750g/Food/Objects_071_h.jpg,,,,,,,,,,,
,,7,9.8873,2,0.6044,9,1.3008,1,0.2893,3,1.0319,0,0,0,0,1,main,3,21,female,right,donders,2021-07-09_16h02.31.236,ImageRatingTask_S5,2021.1.4,Win32,59.65163445,,,,,,,,,,,,,,,,,
,,,,,,,,,,,,0,1,1,1,1,second,3,21,female,right,donders,2021-07-09_16h02.31.236,ImageRatingTask_S5,2021.1.4,Win32,59.65163445,,,,,,,,,,,,,,,,,
,,,,,,,,,,,,0,2,2,2,1,third,3,21,female,right,donders,2021-07-09_16h02.31.236,ImageRatingTask_S5,2021.1.4,Win32,59.65163445,,,,,,,,,,,,,,,,,
,,,,,,,,,,,,0,3,3,3,1,fourth,3,21,female,right,donders,2021-07-09_16h02.31.236,ImageRatingTask_S5,2021.1.4,Win32,59.65163445,,,,,,,,,,,,,,,,,
,,,,,,,,,,,,0,4,4,4,1,fifth,3,21,female,right,donders,2021-07-09_16h02.31.236,ImageRatingTask_S5,2021.1.4,Win32,59.65163445,,,,,,,,,,,,,,,,,
,,,,,,,,,,,,0,5,5,5,1,sixth,3,21,female,right,donders,2021-07-09_16h02.31.236,ImageRatingTask_S5,2021.1.4,Win32,59.65163445,,,,,,,,,,,,,,,,,
,,,,,,,,,,,,0,6,6,6,1,seventh,3,21,female,right,donders,2021-07-09_16h02.31.236,ImageRatingTask_S5,2021.1.4,Win32,59.65163445,,,,,,,,,,,,,,,,,
,,,,,,,,,,,,0,7,7,7,1,last,3,21,female,right,donders,2021-07-09_16h02.31.236,ImageRatingTask_S5,2021.1.4,Win32,59.65163445,,,,,,,,,,,,,,,,,
,,,,,,,,,,,,,,,,,,3,21,female,right,donders,2021-07-09_16h02.31.236,ImageRatingTask_S5,2021.1.4,Win32,59.65163445,0,24,24,15,1,DreamStudyImages_rs1000x750g/Mammals/Animals_164_h.jpg,,,,,,,,,,,
,,6,4.4229,2,0.5561,8,1.1833,1,0.3834,3,0.7168,0,0,0,0,1,main,3,21,female,right,donders,2021-07-09_16h02.31.236,ImageRatingTask_S5,2021.1.4,Win32,59.65163445,,,,,,,,,,,,,,,,,
,,,,,,,,,,,,0,1,1,1,1,second,3,21,female,right,donders,2021-07-09_16h02.31.236,ImageRatingTask_S5,2021.1.4,Win32,59.65163445,,,,,,,,,,,,,,,,,
,,,,,,,,,,,,0,2,2,2,1,third,3,21,female,right,donders,2021-07-09_16h02.31.236,ImageRatingTask_S5,2021.1.4,Win32,59.65163445,,,,,,,,,,,,,,,,,
,,,,,,,,,,,,0,3,3,3,1,fourth,3,21,female,right,donders,2021-07-09_16h02.31.236,ImageRatingTask_S5,2021.1.4,Win32,59.65163445,,,,,,,,,,,,,,,,,
,,,,,,,,,,,,0,4,4,4,1,fifth,3,21,female,right,donders,2021-07-09_16h02.31.236,ImageRatingTask_S5,2021.1.4,Win32,59.65163445,,,,,,,,,,,,,,,,,
,,,,,,,,,,,,0,5,5,5,1,sixth,3,21,female,right,donders,2021-07-09_16h02.31.236,ImageRatingTask_S5,2021.1.4,Win32,59.65163445,,,,,,,,,,,,,,,,,
,,,,,,,,,,,,0,6,6,6,1,seventh,3,21,female,right,donders,2021-07-09_16h02.31.236,ImageRatingTask_S5,2021.1.4,Win32,59.65163445,,,,,,,,,,,,,,,,,
,,,,,,,,,,,,0,7,7,7,1,last,3,21,female,right,donders,2021-07-09_16h02.31.236,ImageRatingTask_S5,2021.1.4,Win32,59.65163445,,,,,,,,,,,,,,,,,
,,,,,,,,,,,,,,,,,,3,21,female,right,donders,2021-07-09_16h02.31.236,ImageRatingTask_S5,2021.1.4,Win32,59.65163445,0,25,25,138,1,DreamStudyImages_rs1000x750g/Mammals/Animals_126_h.jpg,,,,,,,,,,,
,,5,1.4617,1,0.1618,7,0.966,1,1.3835,7,0.983,0,0,0,0,1,main,3,21,female,right,donders,2021-07-09_16h02.31.236,ImageRatingTask_S5,2021.1.4,Win32,59.65163445,,,,,,,,,,,,,,,,,
,,,,,,,,,,,,0,1,1,1,1,second,3,21,female,right,donders,2021-07-09_16h02.31.236,ImageRatingTask_S5,2021.1.4,Win32,59.65163445,,,,,,,,,,,,,,,,,
,,,,,,,,,,,,0,2,2,2,1,third,3,21,female,right,donders,2021-07-09_16h02.31.236,ImageRatingTask_S5,2021.1.4,Win32,59.65163445,,,,,,,,,,,,,,,,,
,,,,,,,,,,,,0,3,3,3,1,fourth,3,21,female,right,donders,2021-07-09_16h02.31.236,ImageRatingTask_S5,2021.1.4,Win32,59.65163445,,,,,,,,,,,,,,,,,
,,,,,,,,,,,,0,4,4,4,1,fifth,3,21,female,right,donders,2021-07-09_16h02.31.236,ImageRatingTask_S5,2021.1.4,Win32,59.65163445,,,,,,,,,,,,,,,,,
,,,,,,,,,,,,0,5,5,5,1,sixth,3,21,female,right,donders,2021-07-09_16h02.31.236,ImageRatingTask_S5,2021.1.4,Win32,59.65163445,,,,,,,,,,,,,,,,,
,,,,,,,,,,,,0,6,6,6,1,seventh,3,21,female,right,donders,2021-07-09_16h02.31.236,ImageRatingTask_S5,2021.1.4,Win32,59.65163445,,,,,,,,,,,,,,,,,
,,,,,,,,,,,,0,7,7,7,1,last,3,21,female,right,donders,2021-07-09_16h02.31.236,ImageRatingTask_S5,2021.1.4,Win32,59.65163445,,,,,,,,,,,,,,,,,
,,,,,,,,,,,,,,,,,,3,21,female,right,donders,2021-07-09_16h02.31.236,ImageRatingTask_S5,2021.1.4,Win32,59.65163445,0,26,26,93,1,DreamStudyImages_rs1000x750g/Vehicles/Desert 1.jpg,,,,,,,,,,,
,,5,1.7239,1,0.1523,7,1.3383,1,0.6675,6,1.0372,0,0,0,0,1,main,3,21,female,right,donders,2021-07-09_16h02.31.236,ImageRatingTask_S5,2021.1.4,Win32,59.65163445,,,,,,,,,,,,,,,,,
,,,,,,,,,,,,0,1,1,1,1,second,3,21,female,right,donders,2021-07-09_16h02.31.236,ImageRatingTask_S5,2021.1.4,Win32,59.65163445,,,,,,,,,,,,,,,,,
,,,,,,,,,,,,0,2,2,2,1,third,3,21,female,right,donders,2021-07-09_16h02.31.236,ImageRatingTask_S5,2021.1.4,Win32,59.65163445,,,,,,,,,,,,,,,,,
,,,,,,,,,,,,0,3,3,3,1,fourth,3,21,female,right,donders,2021-07-09_16h02.31.236,ImageRatingTask_S5,2021.1.4,Win32,59.65163445,,,,,,,,,,,,,,,,,
,,,,,,,,,,,,0,4,4,4,1,fifth,3,21,female,right,donders,2021-07-09_16h02.31.236,ImageRatingTask_S5,2021.1.4,Win32,59.65163445,,,,,,,,,,,,,,,,,
,,,,,,,,,,,,0,5,5,5,1,sixth,3,21,female,right,donders,2021-07-09_16h02.31.236,ImageRatingTask_S5,2021.1.4,Win32,59.65163445,,,,,,,,,,,,,,,,,
,,,,,,,,,,,,0,6,6,6,1,seventh,3,21,female,right,donders,2021-07-09_16h02.31.236,ImageRatingTask_S5,2021.1.4,Win32,59.65163445,,,,,,,,,,,,,,,,,
,,,,,,,,,,,,0,7,7,7,1,last,3,21,female,right,donders,2021-07-09_16h02.31.236,ImageRatingTask_S5,2021.1.4,Win32,59.65163445,,,,,,,,,,,,,,,,,
,,,,,,,,,,,,,,,,,,3,21,female,right,donders,2021-07-09_16h02.31.236,ImageRatingTask_S5,2021.1.4,Win32,59.65163445,0,27,27,147,1,DreamStudyImages_rs1000x750g/Houses/Landscapes_003_v.jpg,,,,,,,,,,,
,,5,2.9067,1,0.3863,9,0.7672,1,0.7834,3,1.0262,0,0,0,0,1,main,3,21,female,right,donders,2021-07-09_16h02.31.236,ImageRatingTask_S5,2021.1.4,Win32,59.65163445,,,,,,,,,,,,,,,,,
,,,,,,,,,,,,0,1,1,1,1,second,3,21,female,right,donders,2021-07-09_16h02.31.236,ImageRatingTask_S5,2021.1.4,Win32,59.65163445,,,,,,,,,,,,,,,,,
,,,,,,,,,,,,0,2,2,2,1,third,3,21,female,right,donders,2021-07-09_16h02.31.236,ImageRatingTask_S5,2021.1.4,Win32,59.65163445,,,,,,,,,,,,,,,,,
,,,,,,,,,,,,0,3,3,3,1,fourth,3,21,female,right,donders,2021-07-09_16h02.31.236,ImageRatingTask_S5,2021.1.4,Win32,59.65163445,,,,,,,,,,,,,,,,,
,,,,,,,,,,,,0,4,4,4,1,fifth,3,21,female,right,donders,2021-07-09_16h02.31.236,ImageRatingTask_S5,2021.1.4,Win32,59.65163445,,,,,,,,,,,,,,,,,
,,,,,,,,,,,,0,5,5,5,1,sixth,3,21,female,right,donders,2021-07-09_16h02.31.236,ImageRatingTask_S5,2021.1.4,Win32,59.65163445,,,,,,,,,,,,,,,,,
,,,,,,,,,,,,0,6,6,6,1,seventh,3,21,female,right,donders,2021-07-09_16h02.31.236,ImageRatingTask_S5,2021.1.4,Win32,59.65163445,,,,,,,,,,,,,,,,,
,,,,,,,,,,,,0,7,7,7,1,last,3,21,female,right,donders,2021-07-09_16h02.31.236,ImageRatingTask_S5,2021.1.4,Win32,59.65163445,,,,,,,,,,,,,,,,,
,,,,,,,,,,,,,,,,,,3,21,female,right,donders,2021-07-09_16h02.31.236,ImageRatingTask_S5,2021.1.4,Win32,59.65163445,0,28,28,141,1,DreamStudyImages_rs1000x750g/Mammals/Animals_102_h.jpg,,,,,,,,,,,
,,5,1.7948,1,0.2993,9,1.9671,1,0.2861,7,0.5667,0,0,0,0,1,main,3,21,female,right,donders,2021-07-09_16h02.31.236,ImageRatingTask_S5,2021.1.4,Win32,59.65163445,,,,,,,,,,,,,,,,,
,,,,,,,,,,,,0,1,1,1,1,second,3,21,female,right,donders,2021-07-09_16h02.31.236,ImageRatingTask_S5,2021.1.4,Win32,59.65163445,,,,,,,,,,,,,,,,,
,,,,,,,,,,,,0,2,2,2,1,third,3,21,female,right,donders,2021-07-09_16h02.31.236,ImageRatingTask_S5,2021.1.4,Win32,59.65163445,,,,,,,,,,,,,,,,,
,,,,,,,,,,,,0,3,3,3,1,fourth,3,21,female,right,donders,2021-07-09_16h02.31.236,ImageRatingTask_S5,2021.1.4,Win32,59.65163445,,,,,,,,,,,,,,,,,
,,,,,,,,,,,,0,4,4,4,1,fifth,3,21,female,right,donders,2021-07-09_16h02.31.236,ImageRatingTask_S5,2021.1.4,Win32,59.65163445,,,,,,,,,,,,,,,,,
,,,,,,,,,,,,0,5,5,5,1,sixth,3,21,female,right,donders,2021-07-09_16h02.31.236,ImageRatingTask_S5,2021.1.4,Win32,59.65163445,,,,,,,,,,,,,,,,,
,,,,,,,,,,,,0,6,6,6,1,seventh,3,21,female,right,donders,2021-07-09_16h02.31.236,ImageRatingTask_S5,2021.1.4,Win32,59.65163445,,,,,,,,,,,,,,,,,
,,,,,,,,,,,,0,7,7,7,1,last,3,21,female,right,donders,2021-07-09_16h02.31.236,ImageRatingTask_S5,2021.1.4,Win32,59.65163445,,,,,,,,,,,,,,,,,
,,,,,,,,,,,,,,,,,,3,21,female,right,donders,2021-07-09_16h02.31.236,ImageRatingTask_S5,2021.1.4,Win32,59.65163445,0,29,29,66,1,DreamStudyImages_rs1000x750g/Vehicles/monstertruck.jpg,,,,,,,,,,,
,,4,2.4738,2,0.6926,8,1.7857,1,0.4873,2,0.5839,0,0,0,0,1,main,3,21,female,right,donders,2021-07-09_16h02.31.236,ImageRatingTask_S5,2021.1.4,Win32,59.65163445,,,,,,,,,,,,,,,,,
,,,,,,,,,,,,0,1,1,1,1,second,3,21,female,right,donders,2021-07-09_16h02.31.236,ImageRatingTask_S5,2021.1.4,Win32,59.65163445,,,,,,,,,,,,,,,,,
,,,,,,,,,,,,0,2,2,2,1,third,3,21,female,right,donders,2021-07-09_16h02.31.236,ImageRatingTask_S5,2021.1.4,Win32,59.65163445,,,,,,,,,,,,,,,,,
,,,,,,,,,,,,0,3,3,3,1,fourth,3,21,female,right,donders,2021-07-09_16h02.31.236,ImageRatingTask_S5,2021.1.4,Win32,59.65163445,,,,,,,,,,,,,,,,,
,,,,,,,,,,,,0,4,4,4,1,fifth,3,21,female,right,donders,2021-07-09_16h02.31.236,ImageRatingTask_S5,2021.1.4,Win32,59.65163445,,,,,,,,,,,,,,,,,
,,,,,,,,,,,,0,5,5,5,1,sixth,3,21,female,right,donders,2021-07-09_16h02.31.236,ImageRatingTask_S5,2021.1.4,Win32,59.65163445,,,,,,,,,,,,,,,,,
,,,,,,,,,,,,0,6,6,6,1,seventh,3,21,female,right,donders,2021-07-09_16h02.31.236,ImageRatingTask_S5,2021.1.4,Win32,59.65163445,,,,,,,,,,,,,,,,,
,,,,,,,,,,,,0,7,7,7,1,last,3,21,female,right,donders,2021-07-09_16h02.31.236,ImageRatingTask_S5,2021.1.4,Win32,59.65163445,,,,,,,,,,,,,,,,,
,,,,,,,,,,,,,,,,,,3,21,female,right,donders,2021-07-09_16h02.31.236,ImageRatingTask_S5,2021.1.4,Win32,59.65163445,0,30,30,12,1,DreamStudyImages_rs1000x750g/Children/Faces_007_h.jpg,,,,,,,,,,,
,,4,6.442,2,0.5502,9,0.9648,1,0.3169,6,1.0656,0,0,0,0,1,main,3,21,female,right,donders,2021-07-09_16h02.31.236,ImageRatingTask_S5,2021.1.4,Win32,59.65163445,,,,,,,,,,,,,,,,,
,,,,,,,,,,,,0,1,1,1,1,second,3,21,female,right,donders,2021-07-09_16h02.31.236,ImageRatingTask_S5,2021.1.4,Win32,59.65163445,,,,,,,,,,,,,,,,,
,,,,,,,,,,,,0,2,2,2,1,third,3,21,female,right,donders,2021-07-09_16h02.31.236,ImageRatingTask_S5,2021.1.4,Win32,59.65163445,,,,,,,,,,,,,,,,,
,,,,,,,,,,,,0,3,3,3,1,fourth,3,21,female,right,donders,2021-07-09_16h02.31.236,ImageRatingTask_S5,2021.1.4,Win32,59.65163445,,,,,,,,,,,,,,,,,
,,,,,,,,,,,,0,4,4,4,1,fifth,3,21,female,right,donders,2021-07-09_16h02.31.236,ImageRatingTask_S5,2021.1.4,Win32,59.65163445,,,,,,,,,,,,,,,,,
,,,,,,,,,,,,0,5,5,5,1,sixth,3,21,female,right,donders,2021-07-09_16h02.31.236,ImageRatingTask_S5,2021.1.4,Win32,59.65163445,,,,,,,,,,,,,,,,,
,,,,,,,,,,,,0,6,6,6,1,seventh,3,21,female,right,donders,2021-07-09_16h02.31.236,ImageRatingTask_S5,2021.1.4,Win32,59.65163445,,,,,,,,,,,,,,,,,
,,,,,,,,,,,,0,7,7,7,1,last,3,21,female,right,donders,2021-07-09_16h02.31.236,ImageRatingTask_S5,2021.1.4,Win32,59.65163445,,,,,,,,,,,,,,,,,
,,,,,,,,,,,,,,,,,,3,21,female,right,donders,2021-07-09_16h02.31.236,ImageRatingTask_S5,2021.1.4,Win32,59.65163445,0,31,31,45,1,DreamStudyImages_rs1000x750g/Houses/Landscapes_002_h.jpg,,,,,,,,,,,
,,4,9.3584,3,0.8135,8,1.7943,1,1.0661,5,1.0666,0,0,0,0,1,main,3,21,female,right,donders,2021-07-09_16h02.31.236,ImageRatingTask_S5,2021.1.4,Win32,59.65163445,,,,,,,,,,,,,,,,,
,,,,,,,,,,,,0,1,1,1,1,second,3,21,female,right,donders,2021-07-09_16h02.31.236,ImageRatingTask_S5,2021.1.4,Win32,59.65163445,,,,,,,,,,,,,,,,,
,,,,,,,,,,,,0,2,2,2,1,third,3,21,female,right,donders,2021-07-09_16h02.31.236,ImageRatingTask_S5,2021.1.4,Win32,59.65163445,,,,,,,,,,,,,,,,,
,,,,,,,,,,,,0,3,3,3,1,fourth,3,21,female,right,donders,2021-07-09_16h02.31.236,ImageRatingTask_S5,2021.1.4,Win32,59.65163445,,,,,,,,,,,,,,,,,
,,,,,,,,,,,,0,4,4,4,1,fifth,3,21,female,right,donders,2021-07-09_16h02.31.236,ImageRatingTask_S5,2021.1.4,Win32,59.65163445,,,,,,,,,,,,,,,,,
,,,,,,,,,,,,0,5,5,5,1,sixth,3,21,female,right,donders,2021-07-09_16h02.31.236,ImageRatingTask_S5,2021.1.4,Win32,59.65163445,,,,,,,,,,,,,,,,,
,,,,,,,,,,,,0,6,6,6,1,seventh,3,21,female,right,donders,2021-07-09_16h02.31.236,ImageRatingTask_S5,2021.1.4,Win32,59.65163445,,,,,,,,,,,,,,,,,
,,,,,,,,,,,,0,7,7,7,1,last,3,21,female,right,donders,2021-07-09_16h02.31.236,ImageRatingTask_S5,2021.1.4,Win32,59.65163445,,,,,,,,,,,,,,,,,
,,,,,,,,,,,,,,,,,,3,21,female,right,donders,2021-07-09_16h02.31.236,ImageRatingTask_S5,2021.1.4,Win32,59.65163445,0,32,32,118,1,DreamStudyImages_rs1000x750g/Food/Objects_037_h.jpg,,,,,,,,,,,
,,3,4.3765,5,1.1606,6,1.9881,1,0.7996,3,0.5661,0,0,0,0,1,main,3,21,female,right,donders,2021-07-09_16h02.31.236,ImageRatingTask_S5,2021.1.4,Win32,59.65163445,,,,,,,,,,,,,,,,,
,,,,,,,,,,,,0,1,1,1,1,second,3,21,female,right,donders,2021-07-09_16h02.31.236,ImageRatingTask_S5,2021.1.4,Win32,59.65163445,,,,,,,,,,,,,,,,,
,,,,,,,,,,,,0,2,2,2,1,third,3,21,female,right,donders,2021-07-09_16h02.31.236,ImageRatingTask_S5,2021.1.4,Win32,59.65163445,,,,,,,,,,,,,,,,,
,,,,,,,,,,,,0,3,3,3,1,fourth,3,21,female,right,donders,2021-07-09_16h02.31.236,ImageRatingTask_S5,2021.1.4,Win32,59.65163445,,,,,,,,,,,,,,,,,
,,,,,,,,,,,,0,4,4,4,1,fifth,3,21,female,right,donders,2021-07-09_16h02.31.236,ImageRatingTask_S5,2021.1.4,Win32,59.65163445,,,,,,,,,,,,,,,,,
,,,,,,,,,,,,0,5,5,5,1,sixth,3,21,female,right,donders,2021-07-09_16h02.31.236,ImageRatingTask_S5,2021.1.4,Win32,59.65163445,,,,,,,,,,,,,,,,,
,,,,,,,,,,,,0,6,6,6,1,seventh,3,21,female,right,donders,2021-07-09_16h02.31.236,ImageRatingTask_S5,2021.1.4,Win32,59.65163445,,,,,,,,,,,,,,,,,
,,,,,,,,,,,,0,7,7,7,1,last,3,21,female,right,donders,2021-07-09_16h02.31.236,ImageRatingTask_S5,2021.1.4,Win32,59.65163445,,,,,,,,,,,,,,,,,
,,,,,,,,,,,,,,,,,,3,21,female,right,donders,2021-07-09_16h02.31.236,ImageRatingTask_S5,2021.1.4,Win32,59.65163445,0,33,33,73,1,DreamStudyImages_rs1000x750g/Mammals/IAPS9180_deadseals.jpg,,,,,,,,,,,
,,3,3.3089,3,1.1985,9,5.8397,1,0.8801,3,0.8831,0,0,0,0,1,main,3,21,female,right,donders,2021-07-09_16h02.31.236,ImageRatingTask_S5,2021.1.4,Win32,59.65163445,,,,,,,,,,,,,,,,,
,,,,,,,,,,,,0,1,1,1,1,second,3,21,female,right,donders,2021-07-09_16h02.31.236,ImageRatingTask_S5,2021.1.4,Win32,59.65163445,,,,,,,,,,,,,,,,,
,,,,,,,,,,,,0,2,2,2,1,third,3,21,female,right,donders,2021-07-09_16h02.31.236,ImageRatingTask_S5,2021.1.4,Win32,59.65163445,,,,,,,,,,,,,,,,,
,,,,,,,,,,,,0,3,3,3,1,fourth,3,21,female,right,donders,2021-07-09_16h02.31.236,ImageRatingTask_S5,2021.1.4,Win32,59.65163445,,,,,,,,,,,,,,,,,
,,,,,,,,,,,,0,4,4,4,1,fifth,3,21,female,right,donders,2021-07-09_16h02.31.236,ImageRatingTask_S5,2021.1.4,Win32,59.65163445,,,,,,,,,,,,,,,,,
,,,,,,,,,,,,0,5,5,5,1,sixth,3,21,female,right,donders,2021-07-09_16h02.31.236,ImageRatingTask_S5,2021.1.4,Win32,59.65163445,,,,,,,,,,,,,,,,,
,,,,,,,,,,,,0,6,6,6,1,seventh,3,21,female,right,donders,2021-07-09_16h02.31.236,ImageRatingTask_S5,2021.1.4,Win32,59.65163445,,,,,,,,,,,,,,,,,
,,,,,,,,,,,,0,7,7,7,1,last,3,21,female,right,donders,2021-07-09_16h02.31.236,ImageRatingTask_S5,2021.1.4,Win32,59.65163445,,,,,,,,,,,,,,,,,
,,,,,,,,,,,,,,,,,,3,21,female,right,donders,2021-07-09_16h02.31.236,ImageRatingTask_S5,2021.1.4,Win32,59.65163445,0,34,34,152,1,DreamStudyImages_rs1000x750g/Mammals/Animals_038_h.jpg,,,,,,,,,,,
,,7,2.2937,2,1.0799,7,1.9837,1,0.5213,3,0.583,0,0,0,0,1,main,3,21,female,right,donders,2021-07-09_16h02.31.236,ImageRatingTask_S5,2021.1.4,Win32,59.65163445,,,,,,,,,,,,,,,,,
,,,,,,,,,,,,0,1,1,1,1,second,3,21,female,right,donders,2021-07-09_16h02.31.236,ImageRatingTask_S5,2021.1.4,Win32,59.65163445,,,,,,,,,,,,,,,,,
,,,,,,,,,,,,0,2,2,2,1,third,3,21,female,right,donders,2021-07-09_16h02.31.236,ImageRatingTask_S5,2021.1.4,Win32,59.65163445,,,,,,,,,,,,,,,,,
,,,,,,,,,,,,0,3,3,3,1,fourth,3,21,female,right,donders,2021-07-09_16h02.31.236,ImageRatingTask_S5,2021.1.4,Win32,59.65163445,,,,,,,,,,,,,,,,,
,,,,,,,,,,,,0,4,4,4,1,fifth,3,21,female,right,donders,2021-07-09_16h02.31.236,ImageRatingTask_S5,2021.1.4,Win32,59.65163445,,,,,,,,,,,,,,,,,
,,,,,,,,,,,,0,5,5,5,1,sixth,3,21,female,right,donders,2021-07-09_16h02.31.236,ImageRatingTask_S5,2021.1.4,Win32,59.65163445,,,,,,,,,,,,,,,,,
,,,,,,,,,,,,0,6,6,6,1,seventh,3,21,female,right,donders,2021-07-09_16h02.31.236,ImageRatingTask_S5,2021.1.4,Win32,59.65163445,,,,,,,,,,,,,,,,,
,,,,,,,,,,,,0,7,7,7,1,last,3,21,female,right,donders,2021-07-09_16h02.31.236,ImageRatingTask_S5,2021.1.4,Win32,59.65163445,,,,,,,,,,,,,,,,,
,,,,,,,,,,,,,,,,,,3,21,female,right,donders,2021-07-09_16h02.31.236,ImageRatingTask_S5,2021.1.4,Win32,59.65163445,0,35,35,7,1,DreamStudyImages_rs1000x750g/Mammals/IAPS1610_rabbit.jpg,,,,,,,,,,,
,,5,1.9591,1,0.5629,6,2.1365,1,0.6998,2,0.8531,0,0,0,0,1,main,3,21,female,right,donders,2021-07-09_16h02.31.236,ImageRatingTask_S5,2021.1.4,Win32,59.65163445,,,,,,,,,,,,,,,,,
,,,,,,,,,,,,0,1,1,1,1,second,3,21,female,right,donders,2021-07-09_16h02.31.236,ImageRatingTask_S5,2021.1.4,Win32,59.65163445,,,,,,,,,,,,,,,,,
,,,,,,,,,,,,0,2,2,2,1,third,3,21,female,right,donders,2021-07-09_16h02.31.236,ImageRatingTask_S5,2021.1.4,Win32,59.65163445,,,,,,,,,,,,,,,,,
,,,,,,,,,,,,0,3,3,3,1,fourth,3,21,female,right,donders,2021-07-09_16h02.31.236,ImageRatingTask_S5,2021.1.4,Win32,59.65163445,,,,,,,,,,,,,,,,,
,,,,,,,,,,,,0,4,4,4,1,fifth,3,21,female,right,donders,2021-07-09_16h02.31.236,ImageRatingTask_S5,2021.1.4,Win32,59.65163445,,,,,,,,,,,,,,,,,
,,,,,,,,,,,,0,5,5,5,1,sixth,3,21,female,right,donders,2021-07-09_16h02.31.236,ImageRatingTask_S5,2021.1.4,Win32,59.65163445,,,,,,,,,,,,,,,,,
,,,,,,,,,,,,0,6,6,6,1,seventh,3,21,female,right,donders,2021-07-09_16h02.31.236,ImageRatingTask_S5,2021.1.4,Win32,59.65163445,,,,,,,,,,,,,,,,,
,,,,,,,,,,,,0,7,7,7,1,last,3,21,female,right,donders,2021-07-09_16h02.31.236,ImageRatingTask_S5,2021.1.4,Win32,59.65163445,,,,,,,,,,,,,,,,,
,,,,,,,,,,,,,,,,,,3,21,female,right,donders,2021-07-09_16h02.31.236,ImageRatingTask_S5,2021.1.4,Win32,59.65163445,0,36,36,126,1,DreamStudyImages_rs1000x750g/Children/IAPS2900.2_girl12.jpg,,,,,,,,,,,
,,5,2.3192,1,0.1315,7,1.0004,1,0.6171,6,0.6259,0,0,0,0,1,main,3,21,female,right,donders,2021-07-09_16h02.31.236,ImageRatingTask_S5,2021.1.4,Win32,59.65163445,,,,,,,,,,,,,,,,,
,,,,,,,,,,,,0,1,1,1,1,second,3,21,female,right,donders,2021-07-09_16h02.31.236,ImageRatingTask_S5,2021.1.4,Win32,59.65163445,,,,,,,,,,,,,,,,,
,,,,,,,,,,,,0,2,2,2,1,third,3,21,female,right,donders,2021-07-09_16h02.31.236,ImageRatingTask_S5,2021.1.4,Win32,59.65163445,,,,,,,,,,,,,,,,,
,,,,,,,,,,,,0,3,3,3,1,fourth,3,21,female,right,donders,2021-07-09_16h02.31.236,ImageRatingTask_S5,2021.1.4,Win32,59.65163445,,,,,,,,,,,,,,,,,
,,,,,,,,,,,,0,4,4,4,1,fifth,3,21,female,right,donders,2021-07-09_16h02.31.236,ImageRatingTask_S5,2021.1.4,Win32,59.65163445,,,,,,,,,,,,,,,,,
,,,,,,,,,,,,0,5,5,5,1,sixth,3,21,female,right,donders,2021-07-09_16h02.31.236,ImageRatingTask_S5,2021.1.4,Win32,59.65163445,,,,,,,,,,,,,,,,,
,,,,,,,,,,,,0,6,6,6,1,seventh,3,21,female,right,donders,2021-07-09_16h02.31.236,ImageRatingTask_S5,2021.1.4,Win32,59.65163445,,,,,,,,,,,,,,,,,
,,,,,,,,,,,,0,7,7,7,1,last,3,21,female,right,donders,2021-07-09_16h02.31.236,ImageRatingTask_S5,2021.1.4,Win32,59.65163445,,,,,,,,,,,,,,,,,
,,,,,,,,,,,,,,,,,,3,21,female,right,donders,2021-07-09_16h02.31.236,ImageRatingTask_S5,2021.1.4,Win32,59.65163445,0,37,37,105,1,DreamStudyImages_rs1000x750g/Houses/IAPS7504_staircases.jpg,,,,,,,,,,,
,,5,2.473,1,0.0935,7,2.2666,1,0.6998,3,0.6534,0,0,0,0,1,main,3,21,female,right,donders,2021-07-09_16h02.31.236,ImageRatingTask_S5,2021.1.4,Win32,59.65163445,,,,,,,,,,,,,,,,,
,,,,,,,,,,,,0,1,1,1,1,second,3,21,female,right,donders,2021-07-09_16h02.31.236,ImageRatingTask_S5,2021.1.4,Win32,59.65163445,,,,,,,,,,,,,,,,,
,,,,,,,,,,,,0,2,2,2,1,third,3,21,female,right,donders,2021-07-09_16h02.31.236,ImageRatingTask_S5,2021.1.4,Win32,59.65163445,,,,,,,,,,,,,,,,,
,,,,,,,,,,,,0,3,3,3,1,fourth,3,21,female,right,donders,2021-07-09_16h02.31.236,ImageRatingTask_S5,2021.1.4,Win32,59.65163445,,,,,,,,,,,,,,,,,
,,,,,,,,,,,,0,4,4,4,1,fifth,3,21,female,right,donders,2021-07-09_16h02.31.236,ImageRatingTask_S5,2021.1.4,Win32,59.65163445,,,,,,,,,,,,,,,,,
,,,,,,,,,,,,0,5,5,5,1,sixth,3,21,female,right,donders,2021-07-09_16h02.31.236,ImageRatingTask_S5,2021.1.4,Win32,59.65163445,,,,,,,,,,,,,,,,,
,,,,,,,,,,,,0,6,6,6,1,seventh,3,21,female,right,donders,2021-07-09_16h02.31.236,ImageRatingTask_S5,2021.1.4,Win32,59.65163445,,,,,,,,,,,,,,,,,
,,,,,,,,,,,,0,7,7,7,1,last,3,21,female,right,donders,2021-07-09_16h02.31.236,ImageRatingTask_S5,2021.1.4,Win32,59.65163445,,,,,,,,,,,,,,,,,
,,,,,,,,,,,,,,,,,,3,21,female,right,donders,2021-07-09_16h02.31.236,ImageRatingTask_S5,2021.1.4,Win32,59.65163445,0,38,38,26,1,DreamStudyImages_rs1000x750g/Mammals/IAPS1505_dog7.jpg,,,,,,,,,,,
,,7,2.1605,2,0.7111,7,1.2666,1,1.0993,3,0.4167,0,0,0,0,1,main,3,21,female,right,donders,2021-07-09_16h02.31.236,ImageRatingTask_S5,2021.1.4,Win32,59.65163445,,,,,,,,,,,,,,,,,
,,,,,,,,,,,,0,1,1,1,1,second,3,21,female,right,donders,2021-07-09_16h02.31.236,ImageRatingTask_S5,2021.1.4,Win32,59.65163445,,,,,,,,,,,,,,,,,
,,,,,,,,,,,,0,2,2,2,1,third,3,21,female,right,donders,2021-07-09_16h02.31.236,ImageRatingTask_S5,2021.1.4,Win32,59.65163445,,,,,,,,,,,,,,,,,
,,,,,,,,,,,,0,3,3,3,1,fourth,3,21,female,right,donders,2021-07-09_16h02.31.236,ImageRatingTask_S5,2021.1.4,Win32,59.65163445,,,,,,,,,,,,,,,,,
,,,,,,,,,,,,0,4,4,4,1,fifth,3,21,female,right,donders,2021-07-09_16h02.31.236,ImageRatingTask_S5,2021.1.4,Win32,59.65163445,,,,,,,,,,,,,,,,,
,,,,,,,,,,,,0,5,5,5,1,sixth,3,21,female,right,donders,2021-07-09_16h02.31.236,ImageRatingTask_S5,2021.1.4,Win32,59.65163445,,,,,,,,,,,,,,,,,
,,,,,,,,,,,,0,6,6,6,1,seventh,3,21,female,right,donders,2021-07-09_16h02.31.236,ImageRatingTask_S5,2021.1.4,Win32,59.65163445,,,,,,,,,,,,,,,,,
,,,,,,,,,,,,0,7,7,7,1,last,3,21,female,right,donders,2021-07-09_16h02.31.236,ImageRatingTask_S5,2021.1.4,Win32,59.65163445,,,,,,,,,,,,,,,,,
,,,,,,,,,,,,,,,,,,3,21,female,right,donders,2021-07-09_16h02.31.236,ImageRatingTask_S5,2021.1.4,Win32,59.65163445,0,39,39,120,1,DreamStudyImages_rs1000x750g/Mammals/IAPS1721_tiger1.jpg,,,,,,,,,,,
,,5,5.3927,1,0.4615,9,1.5498,1,0.8164,3,1.0664,0,0,0,0,1,main,3,21,female,right,donders,2021-07-09_16h02.31.236,ImageRatingTask_S5,2021.1.4,Win32,59.65163445,,,,,,,,,,,,,,,,,
,,,,,,,,,,,,0,1,1,1,1,second,3,21,female,right,donders,2021-07-09_16h02.31.236,ImageRatingTask_S5,2021.1.4,Win32,59.65163445,,,,,,,,,,,,,,,,,
,,,,,,,,,,,,0,2,2,2,1,third,3,21,female,right,donders,2021-07-09_16h02.31.236,ImageRatingTask_S5,2021.1.4,Win32,59.65163445,,,,,,,,,,,,,,,,,
,,,,,,,,,,,,0,3,3,3,1,fourth,3,21,female,right,donders,2021-07-09_16h02.31.236,ImageRatingTask_S5,2021.1.4,Win32,59.65163445,,,,,,,,,,,,,,,,,
,,,,,,,,,,,,0,4,4,4,1,fifth,3,21,female,right,donders,2021-07-09_16h02.31.236,ImageRatingTask_S5,2021.1.4,Win32,59.65163445,,,,,,,,,,,,,,,,,
,,,,,,,,,,,,0,5,5,5,1,sixth,3,21,female,right,donders,2021-07-09_16h02.31.236,ImageRatingTask_S5,2021.1.4,Win32,59.65163445,,,,,,,,,,,,,,,,,
,,,,,,,,,,,,0,6,6,6,1,seventh,3,21,female,right,donders,2021-07-09_16h02.31.236,ImageRatingTask_S5,2021.1.4,Win32,59.65163445,,,,,,,,,,,,,,,,,
,,,,,,,,,,,,0,7,7,7,1,last,3,21,female,right,donders,2021-07-09_16h02.31.236,ImageRatingTask_S5,2021.1.4,Win32,59.65163445,,,,,,,,,,,,,,,,,
,,,,,,,,,,,,,,,,,,3,21,female,right,donders,2021-07-09_16h02.31.236,ImageRatingTask_S5,2021.1.4,Win32,59.65163445,0,40,40,107,1,DreamStudyImages_rs1000x750g/Mammals/Lion 1.jpg,,,,,,,,,,,
,,5,59.2926,1,0.3635,8,0.792,1,0.3101,7,0.6626,0,0,0,0,1,main,3,21,female,right,donders,2021-07-09_16h02.31.236,ImageRatingTask_S5,2021.1.4,Win32,59.65163445,,,,,,,,,,,,,,,,,
,,,,,,,,,,,,0,1,1,1,1,second,3,21,female,right,donders,2021-07-09_16h02.31.236,ImageRatingTask_S5,2021.1.4,Win32,59.65163445,,,,,,,,,,,,,,,,,
,,,,,,,,,,,,0,2,2,2,1,third,3,21,female,right,donders,2021-07-09_16h02.31.236,ImageRatingTask_S5,2021.1.4,Win32,59.65163445,,,,,,,,,,,,,,,,,
,,,,,,,,,,,,0,3,3,3,1,fourth,3,21,female,right,donders,2021-07-09_16h02.31.236,ImageRatingTask_S5,2021.1.4,Win32,59.65163445,,,,,,,,,,,,,,,,,
,,,,,,,,,,,,0,4,4,4,1,fifth,3,21,female,right,donders,2021-07-09_16h02.31.236,ImageRatingTask_S5,2021.1.4,Win32,59.65163445,,,,,,,,,,,,,,,,,
,,,,,,,,,,,,0,5,5,5,1,sixth,3,21,female,right,donders,2021-07-09_16h02.31.236,ImageRatingTask_S5,2021.1.4,Win32,59.65163445,,,,,,,,,,,,,,,,,
,,,,,,,,,,,,0,6,6,6,1,seventh,3,21,female,right,donders,2021-07-09_16h02.31.236,ImageRatingTask_S5,2021.1.4,Win32,59.65163445,,,,,,,,,,,,,,,,,
,,,,,,,,,,,,0,7,7,7,1,last,3,21,female,right,donders,2021-07-09_16h02.31.236,ImageRatingTask_S5,2021.1.4,Win32,59.65163445,,,,,,,,,,,,,,,,,
,,,,,,,,,,,,,,,,,,3,21,female,right,donders,2021-07-09_16h02.31.236,ImageRatingTask_S5,2021.1.4,Win32,59.65163445,0,41,41,8,1,DreamStudyImages_rs1000x750g/Vehicles/Car accident 2.jpg,,,,,,,,,,,
,,6,8.462,2,0.2586,9,0.7341,1,0.2503,8,0.7739,0,0,0,0,1,main,3,21,female,right,donders,2021-07-09_16h02.31.236,ImageRatingTask_S5,2021.1.4,Win32,59.65163445,,,,,,,,,,,,,,,,,
,,,,,,,,,,,,0,1,1,1,1,second,3,21,female,right,donders,2021-07-09_16h02.31.236,ImageRatingTask_S5,2021.1.4,Win32,59.65163445,,,,,,,,,,,,,,,,,
,,,,,,,,,,,,0,2,2,2,1,third,3,21,female,right,donders,2021-07-09_16h02.31.236,ImageRatingTask_S5,2021.1.4,Win32,59.65163445,,,,,,,,,,,,,,,,,
,,,,,,,,,,,,0,3,3,3,1,fourth,3,21,female,right,donders,2021-07-09_16h02.31.236,ImageRatingTask_S5,2021.1.4,Win32,59.65163445,,,,,,,,,,,,,,,,,
,,,,,,,,,,,,0,4,4,4,1,fifth,3,21,female,right,donders,2021-07-09_16h02.31.236,ImageRatingTask_S5,2021.1.4,Win32,59.65163445,,,,,,,,,,,,,,,,,
,,,,,,,,,,,,0,5,5,5,1,sixth,3,21,female,right,donders,2021-07-09_16h02.31.236,ImageRatingTask_S5,2021.1.4,Win32,59.65163445,,,,,,,,,,,,,,,,,
,,,,,,,,,,,,0,6,6,6,1,seventh,3,21,female,right,donders,2021-07-09_16h02.31.236,ImageRatingTask_S5,2021.1.4,Win32,59.65163445,,,,,,,,,,,,,,,,,
,,,,,,,,,,,,0,7,7,7,1,last,3,21,female,right,donders,2021-07-09_16h02.31.236,ImageRatingTask_S5,2021.1.4,Win32,59.65163445,,,,,,,,,,,,,,,,,
,,,,,,,,,,,,,,,,,,3,21,female,right,donders,2021-07-09_16h02.31.236,ImageRatingTask_S5,2021.1.4,Win32,59.65163445,0,42,42,96,1,DreamStudyImages_rs1000x750g/Water/Landscapes_114_v.jpg,,,,,,,,,,,
,,5,1.5537,1,0.1293,9,0.9484,1,0.2537,6,0.8401,0,0,0,0,1,main,3,21,female,right,donders,2021-07-09_16h02.31.236,ImageRatingTask_S5,2021.1.4,Win32,59.65163445,,,,,,,,,,,,,,,,,
,,,,,,,,,,,,0,1,1,1,1,second,3,21,female,right,donders,2021-07-09_16h02.31.236,ImageRatingTask_S5,2021.1.4,Win32,59.65163445,,,,,,,,,,,,,,,,,
,,,,,,,,,,,,0,2,2,2,1,third,3,21,female,right,donders,2021-07-09_16h02.31.236,ImageRatingTask_S5,2021.1.4,Win32,59.65163445,,,,,,,,,,,,,,,,,
,,,,,,,,,,,,0,3,3,3,1,fourth,3,21,female,right,donders,2021-07-09_16h02.31.236,ImageRatingTask_S5,2021.1.4,Win32,59.65163445,,,,,,,,,,,,,,,,,
,,,,,,,,,,,,0,4,4,4,1,fifth,3,21,female,right,donders,2021-07-09_16h02.31.236,ImageRatingTask_S5,2021.1.4,Win32,59.65163445,,,,,,,,,,,,,,,,,
,,,,,,,,,,,,0,5,5,5,1,sixth,3,21,female,right,donders,2021-07-09_16h02.31.236,ImageRatingTask_S5,2021.1.4,Win32,59.65163445,,,,,,,,,,,,,,,,,
,,,,,,,,,,,,0,6,6,6,1,seventh,3,21,female,right,donders,2021-07-09_16h02.31.236,ImageRatingTask_S5,2021.1.4,Win32,59.65163445,,,,,,,,,,,,,,,,,
,,,,,,,,,,,,0,7,7,7,1,last,3,21,female,right,donders,2021-07-09_16h02.31.236,ImageRatingTask_S5,2021.1.4,Win32,59.65163445,,,,,,,,,,,,,,,,,
,,,,,,,,,,,,,,,,,,3,21,female,right,donders,2021-07-09_16h02.31.236,ImageRatingTask_S5,2021.1.4,Win32,59.65163445,0,43,43,95,1,DreamStudyImages_rs1000x750g/Houses/Landscapes_049_h.jpg,,,,,,,,,,,
,,4,2.8913,2,0.5732,8,1.0131,1,0.6583,2,0.6169,0,0,0,0,1,main,3,21,female,right,donders,2021-07-09_16h02.31.236,ImageRatingTask_S5,2021.1.4,Win32,59.65163445,,,,,,,,,,,,,,,,,
,,,,,,,,,,,,0,1,1,1,1,second,3,21,female,right,donders,2021-07-09_16h02.31.236,ImageRatingTask_S5,2021.1.4,Win32,59.65163445,,,,,,,,,,,,,,,,,
,,,,,,,,,,,,0,2,2,2,1,third,3,21,female,right,donders,2021-07-09_16h02.31.236,ImageRatingTask_S5,2021.1.4,Win32,59.65163445,,,,,,,,,,,,,,,,,
,,,,,,,,,,,,0,3,3,3,1,fourth,3,21,female,right,donders,2021-07-09_16h02.31.236,ImageRatingTask_S5,2021.1.4,Win32,59.65163445,,,,,,,,,,,,,,,,,
,,,,,,,,,,,,0,4,4,4,1,fifth,3,21,female,right,donders,2021-07-09_16h02.31.236,ImageRatingTask_S5,2021.1.4,Win32,59.65163445,,,,,,,,,,,,,,,,,
,,,,,,,,,,,,0,5,5,5,1,sixth,3,21,female,right,donders,2021-07-09_16h02.31.236,ImageRatingTask_S5,2021.1.4,Win32,59.65163445,,,,,,,,,,,,,,,,,
,,,,,,,,,,,,0,6,6,6,1,seventh,3,21,female,right,donders,2021-07-09_16h02.31.236,ImageRatingTask_S5,2021.1.4,Win32,59.65163445,,,,,,,,,,,,,,,,,
,,,,,,,,,,,,0,7,7,7,1,last,3,21,female,right,donders,2021-07-09_16h02.31.236,ImageRatingTask_S5,2021.1.4,Win32,59.65163445,,,,,,,,,,,,,,,,,
,,,,,,,,,,,,,,,,,,3,21,female,right,donders,2021-07-09_16h02.31.236,ImageRatingTask_S5,2021.1.4,Win32,59.65163445,0,44,44,94,1,DreamStudyImages_rs1000x750g/Children/Faces_008_h.jpg,,,,,,,,,,,
,,5,2.0541,1,0.0827,7,0.9297,1,0.4689,3,0.6726,0,0,0,0,1,main,3,21,female,right,donders,2021-07-09_16h02.31.236,ImageRatingTask_S5,2021.1.4,Win32,59.65163445,,,,,,,,,,,,,,,,,
,,,,,,,,,,,,0,1,1,1,1,second,3,21,female,right,donders,2021-07-09_16h02.31.236,ImageRatingTask_S5,2021.1.4,Win32,59.65163445,,,,,,,,,,,,,,,,,
,,,,,,,,,,,,0,2,2,2,1,third,3,21,female,right,donders,2021-07-09_16h02.31.236,ImageRatingTask_S5,2021.1.4,Win32,59.65163445,,,,,,,,,,,,,,,,,
,,,,,,,,,,,,0,3,3,3,1,fourth,3,21,female,right,donders,2021-07-09_16h02.31.236,ImageRatingTask_S5,2021.1.4,Win32,59.65163445,,,,,,,,,,,,,,,,,
,,,,,,,,,,,,0,4,4,4,1,fifth,3,21,female,right,donders,2021-07-09_16h02.31.236,ImageRatingTask_S5,2021.1.4,Win32,59.65163445,,,,,,,,,,,,,,,,,
,,,,,,,,,,,,0,5,5,5,1,sixth,3,21,female,right,donders,2021-07-09_16h02.31.236,ImageRatingTask_S5,2021.1.4,Win32,59.65163445,,,,,,,,,,,,,,,,,
,,,,,,,,,,,,0,6,6,6,1,seventh,3,21,female,right,donders,2021-07-09_16h02.31.236,ImageRatingTask_S5,2021.1.4,Win32,59.65163445,,,,,,,,,,,,,,,,,
,,,,,,,,,,,,0,7,7,7,1,last,3,21,female,right,donders,2021-07-09_16h02.31.236,ImageRatingTask_S5,2021.1.4,Win32,59.65163445,,,,,,,,,,,,,,,,,
,,,,,,,,,,,,,,,,,,3,21,female,right,donders,2021-07-09_16h02.31.236,ImageRatingTask_S5,2021.1.4,Win32,59.65163445,0,45,45,47,1,DreamStudyImages_rs1000x750g/Mammals/Chipmunk 1.jpg,,,,,,,,,,,
,,5,1.1583,1,0.1528,7,1.0872,1,0.4437,7,0.7057,0,0,0,0,1,main,3,21,female,right,donders,2021-07-09_16h02.31.236,ImageRatingTask_S5,2021.1.4,Win32,59.65163445,,,,,,,,,,,,,,,,,
,,,,,,,,,,,,0,1,1,1,1,second,3,21,female,right,donders,2021-07-09_16h02.31.236,ImageRatingTask_S5,2021.1.4,Win32,59.65163445,,,,,,,,,,,,,,,,,
,,,,,,,,,,,,0,2,2,2,1,third,3,21,female,right,donders,2021-07-09_16h02.31.236,ImageRatingTask_S5,2021.1.4,Win32,59.65163445,,,,,,,,,,,,,,,,,
,,,,,,,,,,,,0,3,3,3,1,fourth,3,21,female,right,donders,2021-07-09_16h02.31.236,ImageRatingTask_S5,2021.1.4,Win32,59.65163445,,,,,,,,,,,,,,,,,
,,,,,,,,,,,,0,4,4,4,1,fifth,3,21,female,right,donders,2021-07-09_16h02.31.236,ImageRatingTask_S5,2021.1.4,Win32,59.65163445,,,,,,,,,,,,,,,,,
,,,,,,,,,,,,0,5,5,5,1,sixth,3,21,female,right,donders,2021-07-09_16h02.31.236,ImageRatingTask_S5,2021.1.4,Win32,59.65163445,,,,,,,,,,,,,,,,,
,,,,,,,,,,,,0,6,6,6,1,seventh,3,21,female,right,donders,2021-07-09_16h02.31.236,ImageRatingTask_S5,2021.1.4,Win32,59.65163445,,,,,,,,,,,,,,,,,
,,,,,,,,,,,,0,7,7,7,1,last,3,21,female,right,donders,2021-07-09_16h02.31.236,ImageRatingTask_S5,2021.1.4,Win32,59.65163445,,,,,,,,,,,,,,,,,
,,,,,,,,,,,,,,,,,,3,21,female,right,donders,2021-07-09_16h02.31.236,ImageRatingTask_S5,2021.1.4,Win32,59.65163445,0,46,46,22,1,DreamStudyImages_rs1000x750g/Vehicles/Car race 2.jpg,,,,,,,,,,,
,,4,5.9844,2,0.5302,8,1.3242,1,0.2679,2,0.682,0,0,0,0,1,main,3,21,female,right,donders,2021-07-09_16h02.31.236,ImageRatingTask_S5,2021.1.4,Win32,59.65163445,,,,,,,,,,,,,,,,,
,,,,,,,,,,,,0,1,1,1,1,second,3,21,female,right,donders,2021-07-09_16h02.31.236,ImageRatingTask_S5,2021.1.4,Win32,59.65163445,,,,,,,,,,,,,,,,,
,,,,,,,,,,,,0,2,2,2,1,third,3,21,female,right,donders,2021-07-09_16h02.31.236,ImageRatingTask_S5,2021.1.4,Win32,59.65163445,,,,,,,,,,,,,,,,,
,,,,,,,,,,,,0,3,3,3,1,fourth,3,21,female,right,donders,2021-07-09_16h02.31.236,ImageRatingTask_S5,2021.1.4,Win32,59.65163445,,,,,,,,,,,,,,,,,
,,,,,,,,,,,,0,4,4,4,1,fifth,3,21,female,right,donders,2021-07-09_16h02.31.236,ImageRatingTask_S5,2021.1.4,Win32,59.65163445,,,,,,,,,,,,,,,,,
,,,,,,,,,,,,0,5,5,5,1,sixth,3,21,female,right,donders,2021-07-09_16h02.31.236,ImageRatingTask_S5,2021.1.4,Win32,59.65163445,,,,,,,,,,,,,,,,,
,,,,,,,,,,,,0,6,6,6,1,seventh,3,21,female,right,donders,2021-07-09_16h02.31.236,ImageRatingTask_S5,2021.1.4,Win32,59.65163445,,,,,,,,,,,,,,,,,
,,,,,,,,,,,,0,7,7,7,1,last,3,21,female,right,donders,2021-07-09_16h02.31.236,ImageRatingTask_S5,2021.1.4,Win32,59.65163445,,,,,,,,,,,,,,,,,
,,,,,,,,,,,,,,,,,,3,21,female,right,donders,2021-07-09_16h02.31.236,ImageRatingTask_S5,2021.1.4,Win32,59.65163445,0,47,47,132,1,DreamStudyImages_rs1000x750g/Children/Faces_155_h.jpg,,,,,,,,,,,
,,5,1.9823,1,0.882,8,3.6847,1,0.5134,7,0.64,0,0,0,0,1,main,3,21,female,right,donders,2021-07-09_16h02.31.236,ImageRatingTask_S5,2021.1.4,Win32,59.65163445,,,,,,,,,,,,,,,,,
,,,,,,,,,,,,0,1,1,1,1,second,3,21,female,right,donders,2021-07-09_16h02.31.236,ImageRatingTask_S5,2021.1.4,Win32,59.65163445,,,,,,,,,,,,,,,,,
,,,,,,,,,,,,0,2,2,2,1,third,3,21,female,right,donders,2021-07-09_16h02.31.236,ImageRatingTask_S5,2021.1.4,Win32,59.65163445,,,,,,,,,,,,,,,,,
,,,,,,,,,,,,0,3,3,3,1,fourth,3,21,female,right,donders,2021-07-09_16h02.31.236,ImageRatingTask_S5,2021.1.4,Win32,59.65163445,,,,,,,,,,,,,,,,,
,,,,,,,,,,,,0,4,4,4,1,fifth,3,21,female,right,donders,2021-07-09_16h02.31.236,ImageRatingTask_S5,2021.1.4,Win32,59.65163445,,,,,,,,,,,,,,,,,
,,,,,,,,,,,,0,5,5,5,1,sixth,3,21,female,right,donders,2021-07-09_16h02.31.236,ImageRatingTask_S5,2021.1.4,Win32,59.65163445,,,,,,,,,,,,,,,,,
,,,,,,,,,,,,0,6,6,6,1,seventh,3,21,female,right,donders,2021-07-09_16h02.31.236,ImageRatingTask_S5,2021.1.4,Win32,59.65163445,,,,,,,,,,,,,,,,,
,,,,,,,,,,,,0,7,7,7,1,last,3,21,female,right,donders,2021-07-09_16h02.31.236,ImageRatingTask_S5,2021.1.4,Win32,59.65163445,,,,,,,,,,,,,,,,,
,,,,,,,,,,,,,,,,,,3,21,female,right,donders,2021-07-09_16h02.31.236,ImageRatingTask_S5,2021.1.4,Win32,59.65163445,0,48,48,27,1,DreamStudyImages_rs1000x750g/Vehicles/Objects_290_h.jpg,,,,,,,,,,,
,,7,2.2121,2,0.6317,9,1.1101,1,0.3502,2,0.7163,0,0,0,0,1,main,3,21,female,right,donders,2021-07-09_16h02.31.236,ImageRatingTask_S5,2021.1.4,Win32,59.65163445,,,,,,,,,,,,,,,,,
,,,,,,,,,,,,0,1,1,1,1,second,3,21,female,right,donders,2021-07-09_16h02.31.236,ImageRatingTask_S5,2021.1.4,Win32,59.65163445,,,,,,,,,,,,,,,,,
,,,,,,,,,,,,0,2,2,2,1,third,3,21,female,right,donders,2021-07-09_16h02.31.236,ImageRatingTask_S5,2021.1.4,Win32,59.65163445,,,,,,,,,,,,,,,,,
,,,,,,,,,,,,0,3,3,3,1,fourth,3,21,female,right,donders,2021-07-09_16h02.31.236,ImageRatingTask_S5,2021.1.4,Win32,59.65163445,,,,,,,,,,,,,,,,,
,,,,,,,,,,,,0,4,4,4,1,fifth,3,21,female,right,donders,2021-07-09_16h02.31.236,ImageRatingTask_S5,2021.1.4,Win32,59.65163445,,,,,,,,,,,,,,,,,
,,,,,,,,,,,,0,5,5,5,1,sixth,3,21,female,right,donders,2021-07-09_16h02.31.236,ImageRatingTask_S5,2021.1.4,Win32,59.65163445,,,,,,,,,,,,,,,,,
,,,,,,,,,,,,0,6,6,6,1,seventh,3,21,female,right,donders,2021-07-09_16h02.31.236,ImageRatingTask_S5,2021.1.4,Win32,59.65163445,,,,,,,,,,,,,,,,,
,,,,,,,,,,,,0,7,7,7,1,last,3,21,female,right,donders,2021-07-09_16h02.31.236,ImageRatingTask_S5,2021.1.4,Win32,59.65163445,,,,,,,,,,,,,,,,,
,,,,,,,,,,,,,,,,,,3,21,female,right,donders,2021-07-09_16h02.31.236,ImageRatingTask_S5,2021.1.4,Win32,59.65163445,0,49,49,139,1,DreamStudyImages_rs1000x750g/Children/Siblings 1.jpg,,,,,,,,,,,
,,5,1.4752,1,0.1357,9,1.4916,1,0.2682,6,0.8127,0,0,0,0,1,main,3,21,female,right,donders,2021-07-09_16h02.31.236,ImageRatingTask_S5,2021.1.4,Win32,59.65163445,,,,,,,,,,,,,,,,,
,,,,,,,,,,,,0,1,1,1,1,second,3,21,female,right,donders,2021-07-09_16h02.31.236,ImageRatingTask_S5,2021.1.4,Win32,59.65163445,,,,,,,,,,,,,,,,,
,,,,,,,,,,,,0,2,2,2,1,third,3,21,female,right,donders,2021-07-09_16h02.31.236,ImageRatingTask_S5,2021.1.4,Win32,59.65163445,,,,,,,,,,,,,,,,,
,,,,,,,,,,,,0,3,3,3,1,fourth,3,21,female,right,donders,2021-07-09_16h02.31.236,ImageRatingTask_S5,2021.1.4,Win32,59.65163445,,,,,,,,,,,,,,,,,
,,,,,,,,,,,,0,4,4,4,1,fifth,3,21,female,right,donders,2021-07-09_16h02.31.236,ImageRatingTask_S5,2021.1.4,Win32,59.65163445,,,,,,,,,,,,,,,,,
,,,,,,,,,,,,0,5,5,5,1,sixth,3,21,female,right,donders,2021-07-09_16h02.31.236,ImageRatingTask_S5,2021.1.4,Win32,59.65163445,,,,,,,,,,,,,,,,,
,,,,,,,,,,,,0,6,6,6,1,seventh,3,21,female,right,donders,2021-07-09_16h02.31.236,ImageRatingTask_S5,2021.1.4,Win32,59.65163445,,,,,,,,,,,,,,,,,
,,,,,,,,,,,,0,7,7,7,1,last,3,21,female,right,donders,2021-07-09_16h02.31.236,ImageRatingTask_S5,2021.1.4,Win32,59.65163445,,,,,,,,,,,,,,,,,
,,,,,,,,,,,,,,,,,,3,21,female,right,donders,2021-07-09_16h02.31.236,ImageRatingTask_S5,2021.1.4,Win32,59.65163445,0,50,50,108,1,DreamStudyImages_rs1000x750g/Houses/Landscapes_027_v.jpg,,,,,,,,,,,
,,5,1.1051,1,0.1649,9,0.9105,1,0.3124,5,0.7488,0,0,0,0,1,main,3,21,female,right,donders,2021-07-09_16h02.31.236,ImageRatingTask_S5,2021.1.4,Win32,59.65163445,,,,,,,,,,,,,,,,,
,,,,,,,,,,,,0,1,1,1,1,second,3,21,female,right,donders,2021-07-09_16h02.31.236,ImageRatingTask_S5,2021.1.4,Win32,59.65163445,,,,,,,,,,,,,,,,,
,,,,,,,,,,,,0,2,2,2,1,third,3,21,female,right,donders,2021-07-09_16h02.31.236,ImageRatingTask_S5,2021.1.4,Win32,59.65163445,,,,,,,,,,,,,,,,,
,,,,,,,,,,,,0,3,3,3,1,fourth,3,21,female,right,donders,2021-07-09_16h02.31.236,ImageRatingTask_S5,2021.1.4,Win32,59.65163445,,,,,,,,,,,,,,,,,
,,,,,,,,,,,,0,4,4,4,1,fifth,3,21,female,right,donders,2021-07-09_16h02.31.236,ImageRatingTask_S5,2021.1.4,Win32,59.65163445,,,,,,,,,,,,,,,,,
,,,,,,,,,,,,0,5,5,5,1,sixth,3,21,female,right,donders,2021-07-09_16h02.31.236,ImageRatingTask_S5,2021.1.4,Win32,59.65163445,,,,,,,,,,,,,,,,,
,,,,,,,,,,,,0,6,6,6,1,seventh,3,21,female,right,donders,2021-07-09_16h02.31.236,ImageRatingTask_S5,2021.1.4,Win32,59.65163445,,,,,,,,,,,,,,,,,
,,,,,,,,,,,,0,7,7,7,1,last,3,21,female,right,donders,2021-07-09_16h02.31.236,ImageRatingTask_S5,2021.1.4,Win32,59.65163445,,,,,,,,,,,,,,,,,
,,,,,,,,,,,,,,,,,,3,21,female,right,donders,2021-07-09_16h02.31.236,ImageRatingTask_S5,2021.1.4,Win32,59.65163445,0,51,51,65,1,DreamStudyImages_rs1000x750g/Houses/Landscapes_072_h.jpg,,,,,,,,,,,
,,5,3.285,1,0.3435,7,1.2491,1,1.5094,5,1.1574,0,0,0,0,1,main,3,21,female,right,donders,2021-07-09_16h02.31.236,ImageRatingTask_S5,2021.1.4,Win32,59.65163445,,,,,,,,,,,,,,,,,
,,,,,,,,,,,,0,1,1,1,1,second,3,21,female,right,donders,2021-07-09_16h02.31.236,ImageRatingTask_S5,2021.1.4,Win32,59.65163445,,,,,,,,,,,,,,,,,
,,,,,,,,,,,,0,2,2,2,1,third,3,21,female,right,donders,2021-07-09_16h02.31.236,ImageRatingTask_S5,2021.1.4,Win32,59.65163445,,,,,,,,,,,,,,,,,
,,,,,,,,,,,,0,3,3,3,1,fourth,3,21,female,right,donders,2021-07-09_16h02.31.236,ImageRatingTask_S5,2021.1.4,Win32,59.65163445,,,,,,,,,,,,,,,,,
,,,,,,,,,,,,0,4,4,4,1,fifth,3,21,female,right,donders,2021-07-09_16h02.31.236,ImageRatingTask_S5,2021.1.4,Win32,59.65163445,,,,,,,,,,,,,,,,,
,,,,,,,,,,,,0,5,5,5,1,sixth,3,21,female,right,donders,2021-07-09_16h02.31.236,ImageRatingTask_S5,2021.1.4,Win32,59.65163445,,,,,,,,,,,,,,,,,
,,,,,,,,,,,,0,6,6,6,1,seventh,3,21,female,right,donders,2021-07-09_16h02.31.236,ImageRatingTask_S5,2021.1.4,Win32,59.65163445,,,,,,,,,,,,,,,,,
,,,,,,,,,,,,0,7,7,7,1,last,3,21,female,right,donders,2021-07-09_16h02.31.236,ImageRatingTask_S5,2021.1.4,Win32,59.65163445,,,,,,,,,,,,,,,,,
,,,,,,,,,,,,,,,,,,3,21,female,right,donders,2021-07-09_16h02.31.236,ImageRatingTask_S5,2021.1.4,Win32,59.65163445,0,52,52,49,1,DreamStudyImages_rs1000x750g/Food/IAPS7402_pastries2.jpg,,,,,,,,,,,
,,5,2.2493,1,0.5815,6,1.7921,1,0.7257,6,0.6501,0,0,0,0,1,main,3,21,female,right,donders,2021-07-09_16h02.31.236,ImageRatingTask_S5,2021.1.4,Win32,59.65163445,,,,,,,,,,,,,,,,,
,,,,,,,,,,,,0,1,1,1,1,second,3,21,female,right,donders,2021-07-09_16h02.31.236,ImageRatingTask_S5,2021.1.4,Win32,59.65163445,,,,,,,,,,,,,,,,,
,,,,,,,,,,,,0,2,2,2,1,third,3,21,female,right,donders,2021-07-09_16h02.31.236,ImageRatingTask_S5,2021.1.4,Win32,59.65163445,,,,,,,,,,,,,,,,,
,,,,,,,,,,,,0,3,3,3,1,fourth,3,21,female,right,donders,2021-07-09_16h02.31.236,ImageRatingTask_S5,2021.1.4,Win32,59.65163445,,,,,,,,,,,,,,,,,
,,,,,,,,,,,,0,4,4,4,1,fifth,3,21,female,right,donders,2021-07-09_16h02.31.236,ImageRatingTask_S5,2021.1.4,Win32,59.65163445,,,,,,,,,,,,,,,,,
,,,,,,,,,,,,0,5,5,5,1,sixth,3,21,female,right,donders,2021-07-09_16h02.31.236,ImageRatingTask_S5,2021.1.4,Win32,59.65163445,,,,,,,,,,,,,,,,,
,,,,,,,,,,,,0,6,6,6,1,seventh,3,21,female,right,donders,2021-07-09_16h02.31.236,ImageRatingTask_S5,2021.1.4,Win32,59.65163445,,,,,,,,,,,,,,,,,
,,,,,,,,,,,,0,7,7,7,1,last,3,21,female,right,donders,2021-07-09_16h02.31.236,ImageRatingTask_S5,2021.1.4,Win32,59.65163445,,,,,,,,,,,,,,,,,
,,,,,,,,,,,,,,,,,,3,21,female,right,donders,2021-07-09_16h02.31.236,ImageRatingTask_S5,2021.1.4,Win32,59.65163445,0,53,53,5,1,DreamStudyImages_rs1000x750g/Houses/9941.jpg,,,,,,,,,,,
,,4,3.2901,3,0.4624,9,8.3073,1,0.6078,7,0.8388,0,0,0,0,1,main,3,21,female,right,donders,2021-07-09_16h02.31.236,ImageRatingTask_S5,2021.1.4,Win32,59.65163445,,,,,,,,,,,,,,,,,
,,,,,,,,,,,,0,1,1,1,1,second,3,21,female,right,donders,2021-07-09_16h02.31.236,ImageRatingTask_S5,2021.1.4,Win32,59.65163445,,,,,,,,,,,,,,,,,
,,,,,,,,,,,,0,2,2,2,1,third,3,21,female,right,donders,2021-07-09_16h02.31.236,ImageRatingTask_S5,2021.1.4,Win32,59.65163445,,,,,,,,,,,,,,,,,
,,,,,,,,,,,,0,3,3,3,1,fourth,3,21,female,right,donders,2021-07-09_16h02.31.236,ImageRatingTask_S5,2021.1.4,Win32,59.65163445,,,,,,,,,,,,,,,,,
,,,,,,,,,,,,0,4,4,4,1,fifth,3,21,female,right,donders,2021-07-09_16h02.31.236,ImageRatingTask_S5,2021.1.4,Win32,59.65163445,,,,,,,,,,,,,,,,,
,,,,,,,,,,,,0,5,5,5,1,sixth,3,21,female,right,donders,2021-07-09_16h02.31.236,ImageRatingTask_S5,2021.1.4,Win32,59.65163445,,,,,,,,,,,,,,,,,
,,,,,,,,,,,,0,6,6,6,1,seventh,3,21,female,right,donders,2021-07-09_16h02.31.236,ImageRatingTask_S5,2021.1.4,Win32,59.65163445,,,,,,,,,,,,,,,,,
,,,,,,,,,,,,0,7,7,7,1,last,3,21,female,right,donders,2021-07-09_16h02.31.236,ImageRatingTask_S5,2021.1.4,Win32,59.65163445,,,,,,,,,,,,,,,,,
,,,,,,,,,,,,,,,,,,3,21,female,right,donders,2021-07-09_16h02.31.236,ImageRatingTask_S5,2021.1.4,Win32,59.65163445,0,54,54,51,1,DreamStudyImages_rs1000x750g/Vehicles/NDPS93_destroyedroad.jpg,,,,,,,,,,,
,,5,3.3635,1,0.0803,9,0.7974,1,0.1813,7,0.6064,0,0,0,0,1,main,3,21,female,right,donders,2021-07-09_16h02.31.236,ImageRatingTask_S5,2021.1.4,Win32,59.65163445,,,,,,,,,,,,,,,,,
,,,,,,,,,,,,0,1,1,1,1,second,3,21,female,right,donders,2021-07-09_16h02.31.236,ImageRatingTask_S5,2021.1.4,Win32,59.65163445,,,,,,,,,,,,,,,,,
,,,,,,,,,,,,0,2,2,2,1,third,3,21,female,right,donders,2021-07-09_16h02.31.236,ImageRatingTask_S5,2021.1.4,Win32,59.65163445,,,,,,,,,,,,,,,,,
,,,,,,,,,,,,0,3,3,3,1,fourth,3,21,female,right,donders,2021-07-09_16h02.31.236,ImageRatingTask_S5,2021.1.4,Win32,59.65163445,,,,,,,,,,,,,,,,,
,,,,,,,,,,,,0,4,4,4,1,fifth,3,21,female,right,donders,2021-07-09_16h02.31.236,ImageRatingTask_S5,2021.1.4,Win32,59.65163445,,,,,,,,,,,,,,,,,
,,,,,,,,,,,,0,5,5,5,1,sixth,3,21,female,right,donders,2021-07-09_16h02.31.236,ImageRatingTask_S5,2021.1.4,Win32,59.65163445,,,,,,,,,,,,,,,,,
,,,,,,,,,,,,0,6,6,6,1,seventh,3,21,female,right,donders,2021-07-09_16h02.31.236,ImageRatingTask_S5,2021.1.4,Win32,59.65163445,,,,,,,,,,,,,,,,,
,,,,,,,,,,,,0,7,7,7,1,last,3,21,female,right,donders,2021-07-09_16h02.31.236,ImageRatingTask_S5,2021.1.4,Win32,59.65163445,,,,,,,,,,,,,,,,,
,,,,,,,,,,,,,,,,,,3,21,female,right,donders,2021-07-09_16h02.31.236,ImageRatingTask_S5,2021.1.4,Win32,59.65163445,0,55,55,122,1,DreamStudyImages_rs1000x750g/Vehicles/vanfleet.jpg,,,,,,,,,,,
,,6,4.3055,2,0.1475,7,1.2129,1,0.4261,3,1.022,0,0,0,0,1,main,3,21,female,right,donders,2021-07-09_16h02.31.236,ImageRatingTask_S5,2021.1.4,Win32,59.65163445,,,,,,,,,,,,,,,,,
,,,,,,,,,,,,0,1,1,1,1,second,3,21,female,right,donders,2021-07-09_16h02.31.236,ImageRatingTask_S5,2021.1.4,Win32,59.65163445,,,,,,,,,,,,,,,,,
,,,,,,,,,,,,0,2,2,2,1,third,3,21,female,right,donders,2021-07-09_16h02.31.236,ImageRatingTask_S5,2021.1.4,Win32,59.65163445,,,,,,,,,,,,,,,,,
,,,,,,,,,,,,0,3,3,3,1,fourth,3,21,female,right,donders,2021-07-09_16h02.31.236,ImageRatingTask_S5,2021.1.4,Win32,59.65163445,,,,,,,,,,,,,,,,,
,,,,,,,,,,,,0,4,4,4,1,fifth,3,21,female,right,donders,2021-07-09_16h02.31.236,ImageRatingTask_S5,2021.1.4,Win32,59.65163445,,,,,,,,,,,,,,,,,
,,,,,,,,,,,,0,5,5,5,1,sixth,3,21,female,right,donders,2021-07-09_16h02.31.236,ImageRatingTask_S5,2021.1.4,Win32,59.65163445,,,,,,,,,,,,,,,,,
,,,,,,,,,,,,0,6,6,6,1,seventh,3,21,female,right,donders,2021-07-09_16h02.31.236,ImageRatingTask_S5,2021.1.4,Win32,59.65163445,,,,,,,,,,,,,,,,,
,,,,,,,,,,,,0,7,7,7,1,last,3,21,female,right,donders,2021-07-09_16h02.31.236,ImageRatingTask_S5,2021.1.4,Win32,59.65163445,,,,,,,,,,,,,,,,,
,,,,,,,,,,,,,,,,,,3,21,female,right,donders,2021-07-09_16h02.31.236,ImageRatingTask_S5,2021.1.4,Win32,59.65163445,0,56,56,9,1,DreamStudyImages_rs1000x750g/Mammals/Orangutan 1.jpg,,,,,,,,,,,
,,8,2.1539,3,0.8453,7,1.8236,1,1.1147,3,0.5403,0,0,0,0,1,main,3,21,female,right,donders,2021-07-09_16h02.31.236,ImageRatingTask_S5,2021.1.4,Win32,59.65163445,,,,,,,,,,,,,,,,,
,,,,,,,,,,,,0,1,1,1,1,second,3,21,female,right,donders,2021-07-09_16h02.31.236,ImageRatingTask_S5,2021.1.4,Win32,59.65163445,,,,,,,,,,,,,,,,,
,,,,,,,,,,,,0,2,2,2,1,third,3,21,female,right,donders,2021-07-09_16h02.31.236,ImageRatingTask_S5,2021.1.4,Win32,59.65163445,,,,,,,,,,,,,,,,,
,,,,,,,,,,,,0,3,3,3,1,fourth,3,21,female,right,donders,2021-07-09_16h02.31.236,ImageRatingTask_S5,2021.1.4,Win32,59.65163445,,,,,,,,,,,,,,,,,
,,,,,,,,,,,,0,4,4,4,1,fifth,3,21,female,right,donders,2021-07-09_16h02.31.236,ImageRatingTask_S5,2021.1.4,Win32,59.65163445,,,,,,,,,,,,,,,,,
,,,,,,,,,,,,0,5,5,5,1,sixth,3,21,female,right,donders,2021-07-09_16h02.31.236,ImageRatingTask_S5,2021.1.4,Win32,59.65163445,,,,,,,,,,,,,,,,,
,,,,,,,,,,,,0,6,6,6,1,seventh,3,21,female,right,donders,2021-07-09_16h02.31.236,ImageRatingTask_S5,2021.1.4,Win32,59.65163445,,,,,,,,,,,,,,,,,
,,,,,,,,,,,,0,7,7,7,1,last,3,21,female,right,donders,2021-07-09_16h02.31.236,ImageRatingTask_S5,2021.1.4,Win32,59.65163445,,,,,,,,,,,,,,,,,
,,,,,,,,,,,,,,,,,,3,21,female,right,donders,2021-07-09_16h02.31.236,ImageRatingTask_S5,2021.1.4,Win32,59.65163445,0,57,57,35,1,DreamStudyImages_rs1000x750g/Mammals/Animals_208_h.jpg,,,,,,,,,,,
,,7,10.135,3,0.2995,9,1.4843,1,0.5142,3,0.4245,0,0,0,0,1,main,3,21,female,right,donders,2021-07-09_16h02.31.236,ImageRatingTask_S5,2021.1.4,Win32,59.65163445,,,,,,,,,,,,,,,,,
,,,,,,,,,,,,0,1,1,1,1,second,3,21,female,right,donders,2021-07-09_16h02.31.236,ImageRatingTask_S5,2021.1.4,Win32,59.65163445,,,,,,,,,,,,,,,,,
,,,,,,,,,,,,0,2,2,2,1,third,3,21,female,right,donders,2021-07-09_16h02.31.236,ImageRatingTask_S5,2021.1.4,Win32,59.65163445,,,,,,,,,,,,,,,,,
,,,,,,,,,,,,0,3,3,3,1,fourth,3,21,female,right,donders,2021-07-09_16h02.31.236,ImageRatingTask_S5,2021.1.4,Win32,59.65163445,,,,,,,,,,,,,,,,,
,,,,,,,,,,,,0,4,4,4,1,fifth,3,21,female,right,donders,2021-07-09_16h02.31.236,ImageRatingTask_S5,2021.1.4,Win32,59.65163445,,,,,,,,,,,,,,,,,
,,,,,,,,,,,,0,5,5,5,1,sixth,3,21,female,right,donders,2021-07-09_16h02.31.236,ImageRatingTask_S5,2021.1.4,Win32,59.65163445,,,,,,,,,,,,,,,,,
,,,,,,,,,,,,0,6,6,6,1,seventh,3,21,female,right,donders,2021-07-09_16h02.31.236,ImageRatingTask_S5,2021.1.4,Win32,59.65163445,,,,,,,,,,,,,,,,,
,,,,,,,,,,,,0,7,7,7,1,last,3,21,female,right,donders,2021-07-09_16h02.31.236,ImageRatingTask_S5,2021.1.4,Win32,59.65163445,,,,,,,,,,,,,,,,,
,,,,,,,,,,,,,,,,,,3,21,female,right,donders,2021-07-09_16h02.31.236,ImageRatingTask_S5,2021.1.4,Win32,59.65163445,0,58,58,97,1,DreamStudyImages_rs1000x750g/Mammals/Monkey 1.jpg,,,,,,,,,,,
,,4,4.4303,2,0.4386,6,1.3113,1,0.6588,3,1.6402,0,0,0,0,1,main,3,21,female,right,donders,2021-07-09_16h02.31.236,ImageRatingTask_S5,2021.1.4,Win32,59.65163445,,,,,,,,,,,,,,,,,
,,,,,,,,,,,,0,1,1,1,1,second,3,21,female,right,donders,2021-07-09_16h02.31.236,ImageRatingTask_S5,2021.1.4,Win32,59.65163445,,,,,,,,,,,,,,,,,
,,,,,,,,,,,,0,2,2,2,1,third,3,21,female,right,donders,2021-07-09_16h02.31.236,ImageRatingTask_S5,2021.1.4,Win32,59.65163445,,,,,,,,,,,,,,,,,
,,,,,,,,,,,,0,3,3,3,1,fourth,3,21,female,right,donders,2021-07-09_16h02.31.236,ImageRatingTask_S5,2021.1.4,Win32,59.65163445,,,,,,,,,,,,,,,,,
,,,,,,,,,,,,0,4,4,4,1,fifth,3,21,female,right,donders,2021-07-09_16h02.31.236,ImageRatingTask_S5,2021.1.4,Win32,59.65163445,,,,,,,,,,,,,,,,,
,,,,,,,,,,,,0,5,5,5,1,sixth,3,21,female,right,donders,2021-07-09_16h02.31.236,ImageRatingTask_S5,2021.1.4,Win32,59.65163445,,,,,,,,,,,,,,,,,
,,,,,,,,,,,,0,6,6,6,1,seventh,3,21,female,right,donders,2021-07-09_16h02.31.236,ImageRatingTask_S5,2021.1.4,Win32,59.65163445,,,,,,,,,,,,,,,,,
,,,,,,,,,,,,0,7,7,7,1,last,3,21,female,right,donders,2021-07-09_16h02.31.236,ImageRatingTask_S5,2021.1.4,Win32,59.65163445,,,,,,,,,,,,,,,,,
,,,,,,,,,,,,,,,,,,3,21,female,right,donders,2021-07-09_16h02.31.236,ImageRatingTask_S5,2021.1.4,Win32,59.65163445,0,59,59,29,1,DreamStudyImages_rs1000x750g/Mammals/IAPS1304_dog5.jpg,,,,,,,,,,,
,,6,11.8136,3,0.3882,6,1.2263,1,0.4253,2,0.2589,0,0,0,0,1,main,3,21,female,right,donders,2021-07-09_16h02.31.236,ImageRatingTask_S5,2021.1.4,Win32,59.65163445,,,,,,,,,,,,,,,,,
,,,,,,,,,,,,0,1,1,1,1,second,3,21,female,right,donders,2021-07-09_16h02.31.236,ImageRatingTask_S5,2021.1.4,Win32,59.65163445,,,,,,,,,,,,,,,,,
,,,,,,,,,,,,0,2,2,2,1,third,3,21,female,right,donders,2021-07-09_16h02.31.236,ImageRatingTask_S5,2021.1.4,Win32,59.65163445,,,,,,,,,,,,,,,,,
,,,,,,,,,,,,0,3,3,3,1,fourth,3,21,female,right,donders,2021-07-09_16h02.31.236,ImageRatingTask_S5,2021.1.4,Win32,59.65163445,,,,,,,,,,,,,,,,,
,,,,,,,,,,,,0,4,4,4,1,fifth,3,21,female,right,donders,2021-07-09_16h02.31.236,ImageRatingTask_S5,2021.1.4,Win32,59.65163445,,,,,,,,,,,,,,,,,
,,,,,,,,,,,,0,5,5,5,1,sixth,3,21,female,right,donders,2021-07-09_16h02.31.236,ImageRatingTask_S5,2021.1.4,Win32,59.65163445,,,,,,,,,,,,,,,,,
,,,,,,,,,,,,0,6,6,6,1,seventh,3,21,female,right,donders,2021-07-09_16h02.31.236,ImageRatingTask_S5,2021.1.4,Win32,59.65163445,,,,,,,,,,,,,,,,,
,,,,,,,,,,,,0,7,7,7,1,last,3,21,female,right,donders,2021-07-09_16h02.31.236,ImageRatingTask_S5,2021.1.4,Win32,59.65163445,,,,,,,,,,,,,,,,,
,,,,,,,,,,,,,,,,,,3,21,female,right,donders,2021-07-09_16h02.31.236,ImageRatingTask_S5,2021.1.4,Win32,59.65163445,0,60,60,86,1,DreamStudyImages_rs1000x750g/Children/IAPS2080_baby11.jpg,,,,,,,,,,,
,,4,2.082,3,0.9912,8,1.696,1,0.3758,3,0.5824,0,0,0,0,1,main,3,21,female,right,donders,2021-07-09_16h02.31.236,ImageRatingTask_S5,2021.1.4,Win32,59.65163445,,,,,,,,,,,,,,,,,
,,,,,,,,,,,,0,1,1,1,1,second,3,21,female,right,donders,2021-07-09_16h02.31.236,ImageRatingTask_S5,2021.1.4,Win32,59.65163445,,,,,,,,,,,,,,,,,
,,,,,,,,,,,,0,2,2,2,1,third,3,21,female,right,donders,2021-07-09_16h02.31.236,ImageRatingTask_S5,2021.1.4,Win32,59.65163445,,,,,,,,,,,,,,,,,
,,,,,,,,,,,,0,3,3,3,1,fourth,3,21,female,right,donders,2021-07-09_16h02.31.236,ImageRatingTask_S5,2021.1.4,Win32,59.65163445,,,,,,,,,,,,,,,,,
,,,,,,,,,,,,0,4,4,4,1,fifth,3,21,female,right,donders,2021-07-09_16h02.31.236,ImageRatingTask_S5,2021.1.4,Win32,59.65163445,,,,,,,,,,,,,,,,,
,,,,,,,,,,,,0,5,5,5,1,sixth,3,21,female,right,donders,2021-07-09_16h02.31.236,ImageRatingTask_S5,2021.1.4,Win32,59.65163445,,,,,,,,,,,,,,,,,
,,,,,,,,,,,,0,6,6,6,1,seventh,3,21,female,right,donders,2021-07-09_16h02.31.236,ImageRatingTask_S5,2021.1.4,Win32,59.65163445,,,,,,,,,,,,,,,,,
,,,,,,,,,,,,0,7,7,7,1,last,3,21,female,right,donders,2021-07-09_16h02.31.236,ImageRatingTask_S5,2021.1.4,Win32,59.65163445,,,,,,,,,,,,,,,,,
,,,,,,,,,,,,,,,,,,3,21,female,right,donders,2021-07-09_16h02.31.236,ImageRatingTask_S5,2021.1.4,Win32,59.65163445,0,61,61,70,1,DreamStudyImages_rs1000x750g/Mammals/Bear 2.jpg,,,,,,,,,,,
,,5,1.23,1,0.1075,9,0.8425,0,1.5684,,,0,0,0,0,1,main,3,21,female,right,donders,2021-07-09_16h02.31.236,ImageRatingTask_S5,2021.1.4,Win32,59.65163445,,,,,,,,,,,,,,,,,
,,,,,,,,,,,,0,1,1,1,1,second,3,21,female,right,donders,2021-07-09_16h02.31.236,ImageRatingTask_S5,2021.1.4,Win32,59.65163445,,,,,,,,,,,,,,,,,
,,,,,,,,,,,,0,2,2,2,1,third,3,21,female,right,donders,2021-07-09_16h02.31.236,ImageRatingTask_S5,2021.1.4,Win32,59.65163445,,,,,,,,,,,,,,,,,
,,,,,,,,,,,,0,3,3,3,1,fourth,3,21,female,right,donders,2021-07-09_16h02.31.236,ImageRatingTask_S5,2021.1.4,Win32,59.65163445,,,,,,,,,,,,,,,,,
,,,,,,,,,,,,0,4,4,4,1,fifth,3,21,female,right,donders,2021-07-09_16h02.31.236,ImageRatingTask_S5,2021.1.4,Win32,59.65163445,,,,,,,,,,,,,,,,,
,,,,,,,,,,,,0,5,5,5,1,sixth,3,21,female,right,donders,2021-07-09_16h02.31.236,ImageRatingTask_S5,2021.1.4,Win32,59.65163445,,,,,,,,,,,,,,,,,
,,,,,,,,,,,,0,6,6,6,1,seventh,3,21,female,right,donders,2021-07-09_16h02.31.236,ImageRatingTask_S5,2021.1.4,Win32,59.65163445,,,,,,,,,,,,,,,,,
,,,,,,,,,,,,0,7,7,7,1,last,3,21,female,right,donders,2021-07-09_16h02.31.236,ImageRatingTask_S5,2021.1.4,Win32,59.65163445,,,,,,,,,,,,,,,,,
,,,,,,,,,,,,,,,,,,3,21,female,right,donders,2021-07-09_16h02.31.236,ImageRatingTask_S5,2021.1.4,Win32,59.65163445,0,62,62,135,1,DreamStudyImages_rs1000x750g/Houses/Objects_180_v.jpg,,,,,,,,,,,
,,3,2.3554,3,0.5658,9,2.7346,1,0.5921,5,1.2129,0,0,0,0,1,main,3,21,female,right,donders,2021-07-09_16h02.31.236,ImageRatingTask_S5,2021.1.4,Win32,59.65163445,,,,,,,,,,,,,,,,,
,,,,,,,,,,,,0,1,1,1,1,second,3,21,female,right,donders,2021-07-09_16h02.31.236,ImageRatingTask_S5,2021.1.4,Win32,59.65163445,,,,,,,,,,,,,,,,,
,,,,,,,,,,,,0,2,2,2,1,third,3,21,female,right,donders,2021-07-09_16h02.31.236,ImageRatingTask_S5,2021.1.4,Win32,59.65163445,,,,,,,,,,,,,,,,,
,,,,,,,,,,,,0,3,3,3,1,fourth,3,21,female,right,donders,2021-07-09_16h02.31.236,ImageRatingTask_S5,2021.1.4,Win32,59.65163445,,,,,,,,,,,,,,,,,
,,,,,,,,,,,,0,4,4,4,1,fifth,3,21,female,right,donders,2021-07-09_16h02.31.236,ImageRatingTask_S5,2021.1.4,Win32,59.65163445,,,,,,,,,,,,,,,,,
,,,,,,,,,,,,0,5,5,5,1,sixth,3,21,female,right,donders,2021-07-09_16h02.31.236,ImageRatingTask_S5,2021.1.4,Win32,59.65163445,,,,,,,,,,,,,,,,,
,,,,,,,,,,,,0,6,6,6,1,seventh,3,21,female,right,donders,2021-07-09_16h02.31.236,ImageRatingTask_S5,2021.1.4,Win32,59.65163445,,,,,,,,,,,,,,,,,
,,,,,,,,,,,,0,7,7,7,1,last,3,21,female,right,donders,2021-07-09_16h02.31.236,ImageRatingTask_S5,2021.1.4,Win32,59.65163445,,,,,,,,,,,,,,,,,
,,,,,,,,,,,,,,,,,,3,21,female,right,donders,2021-07-09_16h02.31.236,ImageRatingTask_S5,2021.1.4,Win32,59.65163445,0,63,63,114,1,DreamStudyImages_rs1000x750g/Food/food_neg_4bis.jpg,,,,,,,,,,,
,,5,1.2606,1,0.1388,9,1.0422,1,0.3149,7,0.6951,0,0,0,0,1,main,3,21,female,right,donders,2021-07-09_16h02.31.236,ImageRatingTask_S5,2021.1.4,Win32,59.65163445,,,,,,,,,,,,,,,,,
,,,,,,,,,,,,0,1,1,1,1,second,3,21,female,right,donders,2021-07-09_16h02.31.236,ImageRatingTask_S5,2021.1.4,Win32,59.65163445,,,,,,,,,,,,,,,,,
,,,,,,,,,,,,0,2,2,2,1,third,3,21,female,right,donders,2021-07-09_16h02.31.236,ImageRatingTask_S5,2021.1.4,Win32,59.65163445,,,,,,,,,,,,,,,,,
,,,,,,,,,,,,0,3,3,3,1,fourth,3,21,female,right,donders,2021-07-09_16h02.31.236,ImageRatingTask_S5,2021.1.4,Win32,59.65163445,,,,,,,,,,,,,,,,,
,,,,,,,,,,,,0,4,4,4,1,fifth,3,21,female,right,donders,2021-07-09_16h02.31.236,ImageRatingTask_S5,2021.1.4,Win32,59.65163445,,,,,,,,,,,,,,,,,
,,,,,,,,,,,,0,5,5,5,1,sixth,3,21,female,right,donders,2021-07-09_16h02.31.236,ImageRatingTask_S5,2021.1.4,Win32,59.65163445,,,,,,,,,,,,,,,,,
,,,,,,,,,,,,0,6,6,6,1,seventh,3,21,female,right,donders,2021-07-09_16h02.31.236,ImageRatingTask_S5,2021.1.4,Win32,59.65163445,,,,,,,,,,,,,,,,,
,,,,,,,,,,,,0,7,7,7,1,last,3,21,female,right,donders,2021-07-09_16h02.31.236,ImageRatingTask_S5,2021.1.4,Win32,59.65163445,,,,,,,,,,,,,,,,,
,,,,,,,,,,,,,,,,,,3,21,female,right,donders,2021-07-09_16h02.31.236,ImageRatingTask_S5,2021.1.4,Win32,59.65163445,0,64,64,127,1,DreamStudyImages_rs1000x750g/Vehicles/redtricycle.jpg,,,,,,,,,,,
,,5,1.1437,1,0.5369,9,0.5316,1,0.3919,7,0.5581,0,0,0,0,1,main,3,21,female,right,donders,2021-07-09_16h02.31.236,ImageRatingTask_S5,2021.1.4,Win32,59.65163445,,,,,,,,,,,,,,,,,
,,,,,,,,,,,,0,1,1,1,1,second,3,21,female,right,donders,2021-07-09_16h02.31.236,ImageRatingTask_S5,2021.1.4,Win32,59.65163445,,,,,,,,,,,,,,,,,
,,,,,,,,,,,,0,2,2,2,1,third,3,21,female,right,donders,2021-07-09_16h02.31.236,ImageRatingTask_S5,2021.1.4,Win32,59.65163445,,,,,,,,,,,,,,,,,
,,,,,,,,,,,,0,3,3,3,1,fourth,3,21,female,right,donders,2021-07-09_16h02.31.236,ImageRatingTask_S5,2021.1.4,Win32,59.65163445,,,,,,,,,,,,,,,,,
,,,,,,,,,,,,0,4,4,4,1,fifth,3,21,female,right,donders,2021-07-09_16h02.31.236,ImageRatingTask_S5,2021.1.4,Win32,59.65163445,,,,,,,,,,,,,,,,,
,,,,,,,,,,,,0,5,5,5,1,sixth,3,21,female,right,donders,2021-07-09_16h02.31.236,ImageRatingTask_S5,2021.1.4,Win32,59.65163445,,,,,,,,,,,,,,,,,
,,,,,,,,,,,,0,6,6,6,1,seventh,3,21,female,right,donders,2021-07-09_16h02.31.236,ImageRatingTask_S5,2021.1.4,Win32,59.65163445,,,,,,,,,,,,,,,,,
,,,,,,,,,,,,0,7,7,7,1,last,3,21,female,right,donders,2021-07-09_16h02.31.236,ImageRatingTask_S5,2021.1.4,Win32,59.65163445,,,,,,,,,,,,,,,,,
,,,,,,,,,,,,,,,,,,3,21,female,right,donders,2021-07-09_16h02.31.236,ImageRatingTask_S5,2021.1.4,Win32,59.65163445,0,65,65,10,1,DreamStudyImages_rs1000x750g/Vehicles/Objects_304_h.jpg,,,,,,,,,,,
,,4,3.4861,2,0.2088,9,1.2997,1,0.5176,6,0.6671,0,0,0,0,1,main,3,21,female,right,donders,2021-07-09_16h02.31.236,ImageRatingTask_S5,2021.1.4,Win32,59.65163445,,,,,,,,,,,,,,,,,
,,,,,,,,,,,,0,1,1,1,1,second,3,21,female,right,donders,2021-07-09_16h02.31.236,ImageRatingTask_S5,2021.1.4,Win32,59.65163445,,,,,,,,,,,,,,,,,
,,,,,,,,,,,,0,2,2,2,1,third,3,21,female,right,donders,2021-07-09_16h02.31.236,ImageRatingTask_S5,2021.1.4,Win32,59.65163445,,,,,,,,,,,,,,,,,
,,,,,,,,,,,,0,3,3,3,1,fourth,3,21,female,right,donders,2021-07-09_16h02.31.236,ImageRatingTask_S5,2021.1.4,Win32,59.65163445,,,,,,,,,,,,,,,,,
,,,,,,,,,,,,0,4,4,4,1,fifth,3,21,female,right,donders,2021-07-09_16h02.31.236,ImageRatingTask_S5,2021.1.4,Win32,59.65163445,,,,,,,,,,,,,,,,,
,,,,,,,,,,,,0,5,5,5,1,sixth,3,21,female,right,donders,2021-07-09_16h02.31.236,ImageRatingTask_S5,2021.1.4,Win32,59.65163445,,,,,,,,,,,,,,,,,
,,,,,,,,,,,,0,6,6,6,1,seventh,3,21,female,right,donders,2021-07-09_16h02.31.236,ImageRatingTask_S5,2021.1.4,Win32,59.65163445,,,,,,,,,,,,,,,,,
,,,,,,,,,,,,0,7,7,7,1,last,3,21,female,right,donders,2021-07-09_16h02.31.236,ImageRatingTask_S5,2021.1.4,Win32,59.65163445,,,,,,,,,,,,,,,,,
,,,,,,,,,,,,,,,,,,3,21,female,right,donders,2021-07-09_16h02.31.236,ImageRatingTask_S5,2021.1.4,Win32,59.65163445,0,66,66,154,1,DreamStudyImages_rs1000x750g/Houses/NDPS6_buildings3.jpg,,,,,,,,,,,
,,7,3.1933,2,0.4437,7,2.9823,1,0.7831,5,0.7486,0,0,0,0,1,main,3,21,female,right,donders,2021-07-09_16h02.31.236,ImageRatingTask_S5,2021.1.4,Win32,59.65163445,,,,,,,,,,,,,,,,,
,,,,,,,,,,,,0,1,1,1,1,second,3,21,female,right,donders,2021-07-09_16h02.31.236,ImageRatingTask_S5,2021.1.4,Win32,59.65163445,,,,,,,,,,,,,,,,,
,,,,,,,,,,,,0,2,2,2,1,third,3,21,female,right,donders,2021-07-09_16h02.31.236,ImageRatingTask_S5,2021.1.4,Win32,59.65163445,,,,,,,,,,,,,,,,,
,,,,,,,,,,,,0,3,3,3,1,fourth,3,21,female,right,donders,2021-07-09_16h02.31.236,ImageRatingTask_S5,2021.1.4,Win32,59.65163445,,,,,,,,,,,,,,,,,
,,,,,,,,,,,,0,4,4,4,1,fifth,3,21,female,right,donders,2021-07-09_16h02.31.236,ImageRatingTask_S5,2021.1.4,Win32,59.65163445,,,,,,,,,,,,,,,,,
,,,,,,,,,,,,0,5,5,5,1,sixth,3,21,female,right,donders,2021-07-09_16h02.31.236,ImageRatingTask_S5,2021.1.4,Win32,59.65163445,,,,,,,,,,,,,,,,,
,,,,,,,,,,,,0,6,6,6,1,seventh,3,21,female,right,donders,2021-07-09_16h02.31.236,ImageRatingTask_S5,2021.1.4,Win32,59.65163445,,,,,,,,,,,,,,,,,
,,,,,,,,,,,,0,7,7,7,1,last,3,21,female,right,donders,2021-07-09_16h02.31.236,ImageRatingTask_S5,2021.1.4,Win32,59.65163445,,,,,,,,,,,,,,,,,
,,,,,,,,,,,,,,,,,,3,21,female,right,donders,2021-07-09_16h02.31.236,ImageRatingTask_S5,2021.1.4,Win32,59.65163445,0,67,67,79,1,DreamStudyImages_rs1000x750g/Food/IAPS7400_chocolate.jpg,,,,,,,,,,,
,,5,2.4557,1,0.6739,7,2.333,0,1.36,,,0,0,0,0,1,main,3,21,female,right,donders,2021-07-09_16h02.31.236,ImageRatingTask_S5,2021.1.4,Win32,59.65163445,,,,,,,,,,,,,,,,,
,,,,,,,,,,,,0,1,1,1,1,second,3,21,female,right,donders,2021-07-09_16h02.31.236,ImageRatingTask_S5,2021.1.4,Win32,59.65163445,,,,,,,,,,,,,,,,,
,,,,,,,,,,,,0,2,2,2,1,third,3,21,female,right,donders,2021-07-09_16h02.31.236,ImageRatingTask_S5,2021.1.4,Win32,59.65163445,,,,,,,,,,,,,,,,,
,,,,,,,,,,,,0,3,3,3,1,fourth,3,21,female,right,donders,2021-07-09_16h02.31.236,ImageRatingTask_S5,2021.1.4,Win32,59.65163445,,,,,,,,,,,,,,,,,
,,,,,,,,,,,,0,4,4,4,1,fifth,3,21,female,right,donders,2021-07-09_16h02.31.236,ImageRatingTask_S5,2021.1.4,Win32,59.65163445,,,,,,,,,,,,,,,,,
,,,,,,,,,,,,0,5,5,5,1,sixth,3,21,female,right,donders,2021-07-09_16h02.31.236,ImageRatingTask_S5,2021.1.4,Win32,59.65163445,,,,,,,,,,,,,,,,,
,,,,,,,,,,,,0,6,6,6,1,seventh,3,21,female,right,donders,2021-07-09_16h02.31.236,ImageRatingTask_S5,2021.1.4,Win32,59.65163445,,,,,,,,,,,,,,,,,
,,,,,,,,,,,,0,7,7,7,1,last,3,21,female,right,donders,2021-07-09_16h02.31.236,ImageRatingTask_S5,2021.1.4,Win32,59.65163445,,,,,,,,,,,,,,,,,
,,,,,,,,,,,,,,,,,,3,21,female,right,donders,2021-07-09_16h02.31.236,ImageRatingTask_S5,2021.1.4,Win32,59.65163445,0,68,68,121,1,DreamStudyImages_rs1000x750g/Houses/IAPS9623_housefire.jpg,,,,,,,,,,,
,,4,2.5216,3,0.5072,8,2.9834,1,0.6839,3,0.8673,0,0,0,0,1,main,3,21,female,right,donders,2021-07-09_16h02.31.236,ImageRatingTask_S5,2021.1.4,Win32,59.65163445,,,,,,,,,,,,,,,,,
,,,,,,,,,,,,0,1,1,1,1,second,3,21,female,right,donders,2021-07-09_16h02.31.236,ImageRatingTask_S5,2021.1.4,Win32,59.65163445,,,,,,,,,,,,,,,,,
,,,,,,,,,,,,0,2,2,2,1,third,3,21,female,right,donders,2021-07-09_16h02.31.236,ImageRatingTask_S5,2021.1.4,Win32,59.65163445,,,,,,,,,,,,,,,,,
,,,,,,,,,,,,0,3,3,3,1,fourth,3,21,female,right,donders,2021-07-09_16h02.31.236,ImageRatingTask_S5,2021.1.4,Win32,59.65163445,,,,,,,,,,,,,,,,,
,,,,,,,,,,,,0,4,4,4,1,fifth,3,21,female,right,donders,2021-07-09_16h02.31.236,ImageRatingTask_S5,2021.1.4,Win32,59.65163445,,,,,,,,,,,,,,,,,
,,,,,,,,,,,,0,5,5,5,1,sixth,3,21,female,right,donders,2021-07-09_16h02.31.236,ImageRatingTask_S5,2021.1.4,Win32,59.65163445,,,,,,,,,,,,,,,,,
,,,,,,,,,,,,0,6,6,6,1,seventh,3,21,female,right,donders,2021-07-09_16h02.31.236,ImageRatingTask_S5,2021.1.4,Win32,59.65163445,,,,,,,,,,,,,,,,,
,,,,,,,,,,,,0,7,7,7,1,last,3,21,female,right,donders,2021-07-09_16h02.31.236,ImageRatingTask_S5,2021.1.4,Win32,59.65163445,,,,,,,,,,,,,,,,,
,,,,,,,,,,,,,,,,,,3,21,female,right,donders,2021-07-09_16h02.31.236,ImageRatingTask_S5,2021.1.4,Win32,59.65163445,0,69,69,58,1,DreamStudyImages_rs1000x750g/Mammals/IAPS1726_tiger2.jpg,,,,,,,,,,,
,,5,1.3578,1,0.1248,9,1.591,1,0.5171,6,0.6657,0,0,0,0,1,main,3,21,female,right,donders,2021-07-09_16h02.31.236,ImageRatingTask_S5,2021.1.4,Win32,59.65163445,,,,,,,,,,,,,,,,,
,,,,,,,,,,,,0,1,1,1,1,second,3,21,female,right,donders,2021-07-09_16h02.31.236,ImageRatingTask_S5,2021.1.4,Win32,59.65163445,,,,,,,,,,,,,,,,,
,,,,,,,,,,,,0,2,2,2,1,third,3,21,female,right,donders,2021-07-09_16h02.31.236,ImageRatingTask_S5,2021.1.4,Win32,59.65163445,,,,,,,,,,,,,,,,,
,,,,,,,,,,,,0,3,3,3,1,fourth,3,21,female,right,donders,2021-07-09_16h02.31.236,ImageRatingTask_S5,2021.1.4,Win32,59.65163445,,,,,,,,,,,,,,,,,
,,,,,,,,,,,,0,4,4,4,1,fifth,3,21,female,right,donders,2021-07-09_16h02.31.236,ImageRatingTask_S5,2021.1.4,Win32,59.65163445,,,,,,,,,,,,,,,,,
,,,,,,,,,,,,0,5,5,5,1,sixth,3,21,female,right,donders,2021-07-09_16h02.31.236,ImageRatingTask_S5,2021.1.4,Win32,59.65163445,,,,,,,,,,,,,,,,,
,,,,,,,,,,,,0,6,6,6,1,seventh,3,21,female,right,donders,2021-07-09_16h02.31.236,ImageRatingTask_S5,2021.1.4,Win32,59.65163445,,,,,,,,,,,,,,,,,
,,,,,,,,,,,,0,7,7,7,1,last,3,21,female,right,donders,2021-07-09_16h02.31.236,ImageRatingTask_S5,2021.1.4,Win32,59.65163445,,,,,,,,,,,,,,,,,
,,,,,,,,,,,,,,,,,,3,21,female,right,donders,2021-07-09_16h02.31.236,ImageRatingTask_S5,2021.1.4,Win32,59.65163445,0,70,70,31,1,DreamStudyImages_rs1000x750g/Houses/Landscapes_014_h.jpg,,,,,,,,,,,
,,8,2.9106,4,1.5776,7,2.3333,1,0.5795,3,0.5663,0,0,0,0,1,main,3,21,female,right,donders,2021-07-09_16h02.31.236,ImageRatingTask_S5,2021.1.4,Win32,59.65163445,,,,,,,,,,,,,,,,,
,,,,,,,,,,,,0,1,1,1,1,second,3,21,female,right,donders,2021-07-09_16h02.31.236,ImageRatingTask_S5,2021.1.4,Win32,59.65163445,,,,,,,,,,,,,,,,,
,,,,,,,,,,,,0,2,2,2,1,third,3,21,female,right,donders,2021-07-09_16h02.31.236,ImageRatingTask_S5,2021.1.4,Win32,59.65163445,,,,,,,,,,,,,,,,,
,,,,,,,,,,,,0,3,3,3,1,fourth,3,21,female,right,donders,2021-07-09_16h02.31.236,ImageRatingTask_S5,2021.1.4,Win32,59.65163445,,,,,,,,,,,,,,,,,
,,,,,,,,,,,,0,4,4,4,1,fifth,3,21,female,right,donders,2021-07-09_16h02.31.236,ImageRatingTask_S5,2021.1.4,Win32,59.65163445,,,,,,,,,,,,,,,,,
,,,,,,,,,,,,0,5,5,5,1,sixth,3,21,female,right,donders,2021-07-09_16h02.31.236,ImageRatingTask_S5,2021.1.4,Win32,59.65163445,,,,,,,,,,,,,,,,,
,,,,,,,,,,,,0,6,6,6,1,seventh,3,21,female,right,donders,2021-07-09_16h02.31.236,ImageRatingTask_S5,2021.1.4,Win32,59.65163445,,,,,,,,,,,,,,,,,
,,,,,,,,,,,,0,7,7,7,1,last,3,21,female,right,donders,2021-07-09_16h02.31.236,ImageRatingTask_S5,2021.1.4,Win32,59.65163445,,,,,,,,,,,,,,,,,
,,,,,,,,,,,,,,,,,,3,21,female,right,donders,2021-07-09_16h02.31.236,ImageRatingTask_S5,2021.1.4,Win32,59.65163445,0,71,71,40,1,DreamStudyImages_rs1000x750g/Mammals/1440.jpg,,,,,,,,,,,
,,5,2.8893,1,0.1125,9,0.6495,1,0.5332,8,0.6165,0,0,0,0,1,main,3,21,female,right,donders,2021-07-09_16h02.31.236,ImageRatingTask_S5,2021.1.4,Win32,59.65163445,,,,,,,,,,,,,,,,,
,,,,,,,,,,,,0,1,1,1,1,second,3,21,female,right,donders,2021-07-09_16h02.31.236,ImageRatingTask_S5,2021.1.4,Win32,59.65163445,,,,,,,,,,,,,,,,,
,,,,,,,,,,,,0,2,2,2,1,third,3,21,female,right,donders,2021-07-09_16h02.31.236,ImageRatingTask_S5,2021.1.4,Win32,59.65163445,,,,,,,,,,,,,,,,,
,,,,,,,,,,,,0,3,3,3,1,fourth,3,21,female,right,donders,2021-07-09_16h02.31.236,ImageRatingTask_S5,2021.1.4,Win32,59.65163445,,,,,,,,,,,,,,,,,
,,,,,,,,,,,,0,4,4,4,1,fifth,3,21,female,right,donders,2021-07-09_16h02.31.236,ImageRatingTask_S5,2021.1.4,Win32,59.65163445,,,,,,,,,,,,,,,,,
,,,,,,,,,,,,0,5,5,5,1,sixth,3,21,female,right,donders,2021-07-09_16h02.31.236,ImageRatingTask_S5,2021.1.4,Win32,59.65163445,,,,,,,,,,,,,,,,,
,,,,,,,,,,,,0,6,6,6,1,seventh,3,21,female,right,donders,2021-07-09_16h02.31.236,ImageRatingTask_S5,2021.1.4,Win32,59.65163445,,,,,,,,,,,,,,,,,
,,,,,,,,,,,,0,7,7,7,1,last,3,21,female,right,donders,2021-07-09_16h02.31.236,ImageRatingTask_S5,2021.1.4,Win32,59.65163445,,,,,,,,,,,,,,,,,
,,,,,,,,,,,,,,,,,,3,21,female,right,donders,2021-07-09_16h02.31.236,ImageRatingTask_S5,2021.1.4,Win32,59.65163445,0,72,72,1,1,DreamStudyImages_rs1000x750g/Water/Landscapes_145_h.jpg,,,,,,,,,,,
,,5,2.2285,1,0.2907,7,1.2672,1,0.8334,5,0.7615,0,0,0,0,1,main,3,21,female,right,donders,2021-07-09_16h02.31.236,ImageRatingTask_S5,2021.1.4,Win32,59.65163445,,,,,,,,,,,,,,,,,
,,,,,,,,,,,,0,1,1,1,1,second,3,21,female,right,donders,2021-07-09_16h02.31.236,ImageRatingTask_S5,2021.1.4,Win32,59.65163445,,,,,,,,,,,,,,,,,
