slider_pre.response,slider_pre.rt,key_val.keys,key_val.rt,key_aro.keys,key_aro.rt,key_qual.keys,key_qual.rt,key_ncat.keys,key_ncat.rt,key_cats.keys,key_cats.rt,ncat_order.thisRepN,ncat_order.thisTrialN,ncat_order.thisN,ncat_order.thisIndex,ncat_order.ran,cond_cat,participant,age,gender,handedness (L/R),site (IMT/Donders),date,expName,psychopyVersion,OS,frameRate,img_trials.thisRepN,img_trials.thisTrialN,img_trials.thisN,img_trials.thisIndex,img_trials.ran,filename,slider_post.response,slider_post.rt,textbox_openfb.text
5,2.7162,5,2.2715,1,0.3714,8,1.6332,1,1.3199,5,0.9069,0,0,0,0,1,main,3,21,female,right,donders,2021-07-09_09h38.22.716,ImageRatingTask_S3,2021.1.4,Win32,60.02040694,,,,,,,,,
,,,,,,,,,,,,0,1,1,1,1,second,3,21,female,right,donders,2021-07-09_09h38.22.716,ImageRatingTask_S3,2021.1.4,Win32,60.02040694,,,,,,,,,
,,,,,,,,,,,,0,2,2,2,1,third,3,21,female,right,donders,2021-07-09_09h38.22.716,ImageRatingTask_S3,2021.1.4,Win32,60.02040694,,,,,,,,,
,,,,,,,,,,,,0,3,3,3,1,fourth,3,21,female,right,donders,2021-07-09_09h38.22.716,ImageRatingTask_S3,2021.1.4,Win32,60.02040694,,,,,,,,,
,,,,,,,,,,,,0,4,4,4,1,fifth,3,21,female,right,donders,2021-07-09_09h38.22.716,ImageRatingTask_S3,2021.1.4,Win32,60.02040694,,,,,,,,,
,,,,,,,,,,,,0,5,5,5,1,sixth,3,21,female,right,donders,2021-07-09_09h38.22.716,ImageRatingTask_S3,2021.1.4,Win32,60.02040694,,,,,,,,,
,,,,,,,,,,,,0,6,6,6,1,seventh,3,21,female,right,donders,2021-07-09_09h38.22.716,ImageRatingTask_S3,2021.1.4,Win32,60.02040694,,,,,,,,,
,,,,,,,,,,,,0,7,7,7,1,last,3,21,female,right,donders,2021-07-09_09h38.22.716,ImageRatingTask_S3,2021.1.4,Win32,60.02040694,,,,,,,,,
,,,,,,,,,,,,,,,,,,3,21,female,right,donders,2021-07-09_09h38.22.716,ImageRatingTask_S3,2021.1.4,Win32,60.02040694,0,0,0,15,1,DreamStudyImages_rs1000x750g/Food/Objects_094_v.jpg,,,
,,5,2.2191,1,0.4988,6,2.0839,1,0.8921,2,0.6517,0,0,0,0,1,main,3,21,female,right,donders,2021-07-09_09h38.22.716,ImageRatingTask_S3,2021.1.4,Win32,60.02040694,,,,,,,,,
,,,,,,,,,,,,0,1,1,1,1,second,3,21,female,right,donders,2021-07-09_09h38.22.716,ImageRatingTask_S3,2021.1.4,Win32,60.02040694,,,,,,,,,
,,,,,,,,,,,,0,2,2,2,1,third,3,21,female,right,donders,2021-07-09_09h38.22.716,ImageRatingTask_S3,2021.1.4,Win32,60.02040694,,,,,,,,,
,,,,,,,,,,,,0,3,3,3,1,fourth,3,21,female,right,donders,2021-07-09_09h38.22.716,ImageRatingTask_S3,2021.1.4,Win32,60.02040694,,,,,,,,,
,,,,,,,,,,,,0,4,4,4,1,fifth,3,21,female,right,donders,2021-07-09_09h38.22.716,ImageRatingTask_S3,2021.1.4,Win32,60.02040694,,,,,,,,,
,,,,,,,,,,,,0,5,5,5,1,sixth,3,21,female,right,donders,2021-07-09_09h38.22.716,ImageRatingTask_S3,2021.1.4,Win32,60.02040694,,,,,,,,,
,,,,,,,,,,,,0,6,6,6,1,seventh,3,21,female,right,donders,2021-07-09_09h38.22.716,ImageRatingTask_S3,2021.1.4,Win32,60.02040694,,,,,,,,,
,,,,,,,,,,,,0,7,7,7,1,last,3,21,female,right,donders,2021-07-09_09h38.22.716,ImageRatingTask_S3,2021.1.4,Win32,60.02040694,,,,,,,,,
,,,,,,,,,,,,,,,,,,3,21,female,right,donders,2021-07-09_09h38.22.716,ImageRatingTask_S3,2021.1.4,Win32,60.02040694,0,1,1,38,1,DreamStudyImages_rs1000x750g/Children/IAPS2260_baby20.jpg,,,
,,4,1.5862,2,0.737,8,4.1923,1,1.0184,2,0.9065,0,0,0,0,1,main,3,21,female,right,donders,2021-07-09_09h38.22.716,ImageRatingTask_S3,2021.1.4,Win32,60.02040694,,,,,,,,,
,,,,,,,,,,,,0,1,1,1,1,second,3,21,female,right,donders,2021-07-09_09h38.22.716,ImageRatingTask_S3,2021.1.4,Win32,60.02040694,,,,,,,,,
,,,,,,,,,,,,0,2,2,2,1,third,3,21,female,right,donders,2021-07-09_09h38.22.716,ImageRatingTask_S3,2021.1.4,Win32,60.02040694,,,,,,,,,
,,,,,,,,,,,,0,3,3,3,1,fourth,3,21,female,right,donders,2021-07-09_09h38.22.716,ImageRatingTask_S3,2021.1.4,Win32,60.02040694,,,,,,,,,
,,,,,,,,,,,,0,4,4,4,1,fifth,3,21,female,right,donders,2021-07-09_09h38.22.716,ImageRatingTask_S3,2021.1.4,Win32,60.02040694,,,,,,,,,
,,,,,,,,,,,,0,5,5,5,1,sixth,3,21,female,right,donders,2021-07-09_09h38.22.716,ImageRatingTask_S3,2021.1.4,Win32,60.02040694,,,,,,,,,
,,,,,,,,,,,,0,6,6,6,1,seventh,3,21,female,right,donders,2021-07-09_09h38.22.716,ImageRatingTask_S3,2021.1.4,Win32,60.02040694,,,,,,,,,
,,,,,,,,,,,,0,7,7,7,1,last,3,21,female,right,donders,2021-07-09_09h38.22.716,ImageRatingTask_S3,2021.1.4,Win32,60.02040694,,,,,,,,,
,,,,,,,,,,,,,,,,,,3,21,female,right,donders,2021-07-09_09h38.22.716,ImageRatingTask_S3,2021.1.4,Win32,60.02040694,0,2,2,118,1,DreamStudyImages_rs1000x750g/Children/War 1.jpg,,,
,,5,2.8224,1,0.6511,9,1.2247,1,2.3002,5,0.7442,0,0,0,0,1,main,3,21,female,right,donders,2021-07-09_09h38.22.716,ImageRatingTask_S3,2021.1.4,Win32,60.02040694,,,,,,,,,
,,,,,,,,,,,,0,1,1,1,1,second,3,21,female,right,donders,2021-07-09_09h38.22.716,ImageRatingTask_S3,2021.1.4,Win32,60.02040694,,,,,,,,,
,,,,,,,,,,,,0,2,2,2,1,third,3,21,female,right,donders,2021-07-09_09h38.22.716,ImageRatingTask_S3,2021.1.4,Win32,60.02040694,,,,,,,,,
,,,,,,,,,,,,0,3,3,3,1,fourth,3,21,female,right,donders,2021-07-09_09h38.22.716,ImageRatingTask_S3,2021.1.4,Win32,60.02040694,,,,,,,,,
,,,,,,,,,,,,0,4,4,4,1,fifth,3,21,female,right,donders,2021-07-09_09h38.22.716,ImageRatingTask_S3,2021.1.4,Win32,60.02040694,,,,,,,,,
,,,,,,,,,,,,0,5,5,5,1,sixth,3,21,female,right,donders,2021-07-09_09h38.22.716,ImageRatingTask_S3,2021.1.4,Win32,60.02040694,,,,,,,,,
,,,,,,,,,,,,0,6,6,6,1,seventh,3,21,female,right,donders,2021-07-09_09h38.22.716,ImageRatingTask_S3,2021.1.4,Win32,60.02040694,,,,,,,,,
,,,,,,,,,,,,0,7,7,7,1,last,3,21,female,right,donders,2021-07-09_09h38.22.716,ImageRatingTask_S3,2021.1.4,Win32,60.02040694,,,,,,,,,
,,,,,,,,,,,,,,,,,,3,21,female,right,donders,2021-07-09_09h38.22.716,ImageRatingTask_S3,2021.1.4,Win32,60.02040694,0,3,3,84,1,DreamStudyImages_rs1000x750g/Food/Objects_089_h.jpg,,,
,,7,1.8334,2,0.7796,9,1.1243,1,0.6454,2,0.5398,0,0,0,0,1,main,3,21,female,right,donders,2021-07-09_09h38.22.716,ImageRatingTask_S3,2021.1.4,Win32,60.02040694,,,,,,,,,
,,,,,,,,,,,,0,1,1,1,1,second,3,21,female,right,donders,2021-07-09_09h38.22.716,ImageRatingTask_S3,2021.1.4,Win32,60.02040694,,,,,,,,,
,,,,,,,,,,,,0,2,2,2,1,third,3,21,female,right,donders,2021-07-09_09h38.22.716,ImageRatingTask_S3,2021.1.4,Win32,60.02040694,,,,,,,,,
,,,,,,,,,,,,0,3,3,3,1,fourth,3,21,female,right,donders,2021-07-09_09h38.22.716,ImageRatingTask_S3,2021.1.4,Win32,60.02040694,,,,,,,,,
,,,,,,,,,,,,0,4,4,4,1,fifth,3,21,female,right,donders,2021-07-09_09h38.22.716,ImageRatingTask_S3,2021.1.4,Win32,60.02040694,,,,,,,,,
,,,,,,,,,,,,0,5,5,5,1,sixth,3,21,female,right,donders,2021-07-09_09h38.22.716,ImageRatingTask_S3,2021.1.4,Win32,60.02040694,,,,,,,,,
,,,,,,,,,,,,0,6,6,6,1,seventh,3,21,female,right,donders,2021-07-09_09h38.22.716,ImageRatingTask_S3,2021.1.4,Win32,60.02040694,,,,,,,,,
,,,,,,,,,,,,0,7,7,7,1,last,3,21,female,right,donders,2021-07-09_09h38.22.716,ImageRatingTask_S3,2021.1.4,Win32,60.02040694,,,,,,,,,
,,,,,,,,,,,,,,,,,,3,21,female,right,donders,2021-07-09_09h38.22.716,ImageRatingTask_S3,2021.1.4,Win32,60.02040694,0,4,4,95,1,DreamStudyImages_rs1000x750g/Children/Faces_131_v.jpg,,,
,,5,1.6533,1,0.378,7,1.0124,1,0.963,8,0.6896,0,0,0,0,1,main,3,21,female,right,donders,2021-07-09_09h38.22.716,ImageRatingTask_S3,2021.1.4,Win32,60.02040694,,,,,,,,,
,,,,,,,,,,,,0,1,1,1,1,second,3,21,female,right,donders,2021-07-09_09h38.22.716,ImageRatingTask_S3,2021.1.4,Win32,60.02040694,,,,,,,,,
,,,,,,,,,,,,0,2,2,2,1,third,3,21,female,right,donders,2021-07-09_09h38.22.716,ImageRatingTask_S3,2021.1.4,Win32,60.02040694,,,,,,,,,
,,,,,,,,,,,,0,3,3,3,1,fourth,3,21,female,right,donders,2021-07-09_09h38.22.716,ImageRatingTask_S3,2021.1.4,Win32,60.02040694,,,,,,,,,
,,,,,,,,,,,,0,4,4,4,1,fifth,3,21,female,right,donders,2021-07-09_09h38.22.716,ImageRatingTask_S3,2021.1.4,Win32,60.02040694,,,,,,,,,
,,,,,,,,,,,,0,5,5,5,1,sixth,3,21,female,right,donders,2021-07-09_09h38.22.716,ImageRatingTask_S3,2021.1.4,Win32,60.02040694,,,,,,,,,
,,,,,,,,,,,,0,6,6,6,1,seventh,3,21,female,right,donders,2021-07-09_09h38.22.716,ImageRatingTask_S3,2021.1.4,Win32,60.02040694,,,,,,,,,
,,,,,,,,,,,,0,7,7,7,1,last,3,21,female,right,donders,2021-07-09_09h38.22.716,ImageRatingTask_S3,2021.1.4,Win32,60.02040694,,,,,,,,,
,,,,,,,,,,,,,,,,,,3,21,female,right,donders,2021-07-09_09h38.22.716,ImageRatingTask_S3,2021.1.4,Win32,60.02040694,0,5,5,90,1,DreamStudyImages_rs1000x750g/Water/IAPS5781_mistylake.jpg,,,
,,5,1.4911,1,0.3161,9,0.8999,1,0.8034,7,0.6894,0,0,0,0,1,main,3,21,female,right,donders,2021-07-09_09h38.22.716,ImageRatingTask_S3,2021.1.4,Win32,60.02040694,,,,,,,,,
,,,,,,,,,,,,0,1,1,1,1,second,3,21,female,right,donders,2021-07-09_09h38.22.716,ImageRatingTask_S3,2021.1.4,Win32,60.02040694,,,,,,,,,
,,,,,,,,,,,,0,2,2,2,1,third,3,21,female,right,donders,2021-07-09_09h38.22.716,ImageRatingTask_S3,2021.1.4,Win32,60.02040694,,,,,,,,,
,,,,,,,,,,,,0,3,3,3,1,fourth,3,21,female,right,donders,2021-07-09_09h38.22.716,ImageRatingTask_S3,2021.1.4,Win32,60.02040694,,,,,,,,,
,,,,,,,,,,,,0,4,4,4,1,fifth,3,21,female,right,donders,2021-07-09_09h38.22.716,ImageRatingTask_S3,2021.1.4,Win32,60.02040694,,,,,,,,,
,,,,,,,,,,,,0,5,5,5,1,sixth,3,21,female,right,donders,2021-07-09_09h38.22.716,ImageRatingTask_S3,2021.1.4,Win32,60.02040694,,,,,,,,,
,,,,,,,,,,,,0,6,6,6,1,seventh,3,21,female,right,donders,2021-07-09_09h38.22.716,ImageRatingTask_S3,2021.1.4,Win32,60.02040694,,,,,,,,,
,,,,,,,,,,,,0,7,7,7,1,last,3,21,female,right,donders,2021-07-09_09h38.22.716,ImageRatingTask_S3,2021.1.4,Win32,60.02040694,,,,,,,,,
,,,,,,,,,,,,,,,,,,3,21,female,right,donders,2021-07-09_09h38.22.716,ImageRatingTask_S3,2021.1.4,Win32,60.02040694,0,6,6,51,1,DreamStudyImages_rs1000x750g/Vehicles/quad.jpg,,,
,,7,2.1219,3,0.3524,9,1.1431,1,0.6884,2,0.7467,0,0,0,0,1,main,3,21,female,right,donders,2021-07-09_09h38.22.716,ImageRatingTask_S3,2021.1.4,Win32,60.02040694,,,,,,,,,
,,,,,,,,,,,,0,1,1,1,1,second,3,21,female,right,donders,2021-07-09_09h38.22.716,ImageRatingTask_S3,2021.1.4,Win32,60.02040694,,,,,,,,,
,,,,,,,,,,,,0,2,2,2,1,third,3,21,female,right,donders,2021-07-09_09h38.22.716,ImageRatingTask_S3,2021.1.4,Win32,60.02040694,,,,,,,,,
,,,,,,,,,,,,0,3,3,3,1,fourth,3,21,female,right,donders,2021-07-09_09h38.22.716,ImageRatingTask_S3,2021.1.4,Win32,60.02040694,,,,,,,,,
,,,,,,,,,,,,0,4,4,4,1,fifth,3,21,female,right,donders,2021-07-09_09h38.22.716,ImageRatingTask_S3,2021.1.4,Win32,60.02040694,,,,,,,,,
,,,,,,,,,,,,0,5,5,5,1,sixth,3,21,female,right,donders,2021-07-09_09h38.22.716,ImageRatingTask_S3,2021.1.4,Win32,60.02040694,,,,,,,,,
,,,,,,,,,,,,0,6,6,6,1,seventh,3,21,female,right,donders,2021-07-09_09h38.22.716,ImageRatingTask_S3,2021.1.4,Win32,60.02040694,,,,,,,,,
,,,,,,,,,,,,0,7,7,7,1,last,3,21,female,right,donders,2021-07-09_09h38.22.716,ImageRatingTask_S3,2021.1.4,Win32,60.02040694,,,,,,,,,
,,,,,,,,,,,,,,,,,,3,21,female,right,donders,2021-07-09_09h38.22.716,ImageRatingTask_S3,2021.1.4,Win32,60.02040694,0,7,7,156,1,DreamStudyImages_rs1000x750g/Children/Faces_120_h.jpg,,,
,,5,1.884,1,0.2507,8,1.3922,1,0.7646,7,1.674,0,0,0,0,1,main,3,21,female,right,donders,2021-07-09_09h38.22.716,ImageRatingTask_S3,2021.1.4,Win32,60.02040694,,,,,,,,,
,,,,,,,,,,,,0,1,1,1,1,second,3,21,female,right,donders,2021-07-09_09h38.22.716,ImageRatingTask_S3,2021.1.4,Win32,60.02040694,,,,,,,,,
,,,,,,,,,,,,0,2,2,2,1,third,3,21,female,right,donders,2021-07-09_09h38.22.716,ImageRatingTask_S3,2021.1.4,Win32,60.02040694,,,,,,,,,
,,,,,,,,,,,,0,3,3,3,1,fourth,3,21,female,right,donders,2021-07-09_09h38.22.716,ImageRatingTask_S3,2021.1.4,Win32,60.02040694,,,,,,,,,
,,,,,,,,,,,,0,4,4,4,1,fifth,3,21,female,right,donders,2021-07-09_09h38.22.716,ImageRatingTask_S3,2021.1.4,Win32,60.02040694,,,,,,,,,
,,,,,,,,,,,,0,5,5,5,1,sixth,3,21,female,right,donders,2021-07-09_09h38.22.716,ImageRatingTask_S3,2021.1.4,Win32,60.02040694,,,,,,,,,
,,,,,,,,,,,,0,6,6,6,1,seventh,3,21,female,right,donders,2021-07-09_09h38.22.716,ImageRatingTask_S3,2021.1.4,Win32,60.02040694,,,,,,,,,
,,,,,,,,,,,,0,7,7,7,1,last,3,21,female,right,donders,2021-07-09_09h38.22.716,ImageRatingTask_S3,2021.1.4,Win32,60.02040694,,,,,,,,,
,,,,,,,,,,,,,,,,,,3,21,female,right,donders,2021-07-09_09h38.22.716,ImageRatingTask_S3,2021.1.4,Win32,60.02040694,0,8,8,53,1,DreamStudyImages_rs1000x750g/Vehicles/People_012_h.jpg,,,
,,4,3.1634,2,0.2326,8,1.3097,1,0.6766,4,1.1744,0,0,0,0,1,main,3,21,female,right,donders,2021-07-09_09h38.22.716,ImageRatingTask_S3,2021.1.4,Win32,60.02040694,,,,,,,,,
,,,,,,,,,,,,0,1,1,1,1,second,3,21,female,right,donders,2021-07-09_09h38.22.716,ImageRatingTask_S3,2021.1.4,Win32,60.02040694,,,,,,,,,
,,,,,,,,,,,,0,2,2,2,1,third,3,21,female,right,donders,2021-07-09_09h38.22.716,ImageRatingTask_S3,2021.1.4,Win32,60.02040694,,,,,,,,,
,,,,,,,,,,,,0,3,3,3,1,fourth,3,21,female,right,donders,2021-07-09_09h38.22.716,ImageRatingTask_S3,2021.1.4,Win32,60.02040694,,,,,,,,,
,,,,,,,,,,,,0,4,4,4,1,fifth,3,21,female,right,donders,2021-07-09_09h38.22.716,ImageRatingTask_S3,2021.1.4,Win32,60.02040694,,,,,,,,,
,,,,,,,,,,,,0,5,5,5,1,sixth,3,21,female,right,donders,2021-07-09_09h38.22.716,ImageRatingTask_S3,2021.1.4,Win32,60.02040694,,,,,,,,,
,,,,,,,,,,,,0,6,6,6,1,seventh,3,21,female,right,donders,2021-07-09_09h38.22.716,ImageRatingTask_S3,2021.1.4,Win32,60.02040694,,,,,,,,,
,,,,,,,,,,,,0,7,7,7,1,last,3,21,female,right,donders,2021-07-09_09h38.22.716,ImageRatingTask_S3,2021.1.4,Win32,60.02040694,,,,,,,,,
,,,,,,,,,,,,,,,,,,3,21,female,right,donders,2021-07-09_09h38.22.716,ImageRatingTask_S3,2021.1.4,Win32,60.02040694,0,9,9,139,1,DreamStudyImages_rs1000x750g/Mammals/Lion 5.jpg,,,
,,5,3.8318,1,0.4545,8,1.5321,1,0.5798,2,0.6499,0,0,0,0,1,main,3,21,female,right,donders,2021-07-09_09h38.22.716,ImageRatingTask_S3,2021.1.4,Win32,60.02040694,,,,,,,,,
,,,,,,,,,,,,0,1,1,1,1,second,3,21,female,right,donders,2021-07-09_09h38.22.716,ImageRatingTask_S3,2021.1.4,Win32,60.02040694,,,,,,,,,
,,,,,,,,,,,,0,2,2,2,1,third,3,21,female,right,donders,2021-07-09_09h38.22.716,ImageRatingTask_S3,2021.1.4,Win32,60.02040694,,,,,,,,,
,,,,,,,,,,,,0,3,3,3,1,fourth,3,21,female,right,donders,2021-07-09_09h38.22.716,ImageRatingTask_S3,2021.1.4,Win32,60.02040694,,,,,,,,,
,,,,,,,,,,,,0,4,4,4,1,fifth,3,21,female,right,donders,2021-07-09_09h38.22.716,ImageRatingTask_S3,2021.1.4,Win32,60.02040694,,,,,,,,,
,,,,,,,,,,,,0,5,5,5,1,sixth,3,21,female,right,donders,2021-07-09_09h38.22.716,ImageRatingTask_S3,2021.1.4,Win32,60.02040694,,,,,,,,,
,,,,,,,,,,,,0,6,6,6,1,seventh,3,21,female,right,donders,2021-07-09_09h38.22.716,ImageRatingTask_S3,2021.1.4,Win32,60.02040694,,,,,,,,,
,,,,,,,,,,,,0,7,7,7,1,last,3,21,female,right,donders,2021-07-09_09h38.22.716,ImageRatingTask_S3,2021.1.4,Win32,60.02040694,,,,,,,,,
,,,,,,,,,,,,,,,,,,3,21,female,right,donders,2021-07-09_09h38.22.716,ImageRatingTask_S3,2021.1.4,Win32,60.02040694,0,10,10,52,1,DreamStudyImages_rs1000x750g/Children/Faces_045_h.jpg,,,
,,6,2.0708,2,0.4621,8,1.286,1,0.3817,8,0.6824,0,0,0,0,1,main,3,21,female,right,donders,2021-07-09_09h38.22.716,ImageRatingTask_S3,2021.1.4,Win32,60.02040694,,,,,,,,,
,,,,,,,,,,,,0,1,1,1,1,second,3,21,female,right,donders,2021-07-09_09h38.22.716,ImageRatingTask_S3,2021.1.4,Win32,60.02040694,,,,,,,,,
,,,,,,,,,,,,0,2,2,2,1,third,3,21,female,right,donders,2021-07-09_09h38.22.716,ImageRatingTask_S3,2021.1.4,Win32,60.02040694,,,,,,,,,
,,,,,,,,,,,,0,3,3,3,1,fourth,3,21,female,right,donders,2021-07-09_09h38.22.716,ImageRatingTask_S3,2021.1.4,Win32,60.02040694,,,,,,,,,
,,,,,,,,,,,,0,4,4,4,1,fifth,3,21,female,right,donders,2021-07-09_09h38.22.716,ImageRatingTask_S3,2021.1.4,Win32,60.02040694,,,,,,,,,
,,,,,,,,,,,,0,5,5,5,1,sixth,3,21,female,right,donders,2021-07-09_09h38.22.716,ImageRatingTask_S3,2021.1.4,Win32,60.02040694,,,,,,,,,
,,,,,,,,,,,,0,6,6,6,1,seventh,3,21,female,right,donders,2021-07-09_09h38.22.716,ImageRatingTask_S3,2021.1.4,Win32,60.02040694,,,,,,,,,
,,,,,,,,,,,,0,7,7,7,1,last,3,21,female,right,donders,2021-07-09_09h38.22.716,ImageRatingTask_S3,2021.1.4,Win32,60.02040694,,,,,,,,,
,,,,,,,,,,,,,,,,,,3,21,female,right,donders,2021-07-09_09h38.22.716,ImageRatingTask_S3,2021.1.4,Win32,60.02040694,0,11,11,105,1,DreamStudyImages_rs1000x750g/Water/Beach 2.jpg,,,
,,3,3.94,2,0.4406,8,1.217,1,0.6898,3,1.0531,0,0,0,0,1,main,3,21,female,right,donders,2021-07-09_09h38.22.716,ImageRatingTask_S3,2021.1.4,Win32,60.02040694,,,,,,,,,
,,,,,,,,,,,,0,1,1,1,1,second,3,21,female,right,donders,2021-07-09_09h38.22.716,ImageRatingTask_S3,2021.1.4,Win32,60.02040694,,,,,,,,,
,,,,,,,,,,,,0,2,2,2,1,third,3,21,female,right,donders,2021-07-09_09h38.22.716,ImageRatingTask_S3,2021.1.4,Win32,60.02040694,,,,,,,,,
,,,,,,,,,,,,0,3,3,3,1,fourth,3,21,female,right,donders,2021-07-09_09h38.22.716,ImageRatingTask_S3,2021.1.4,Win32,60.02040694,,,,,,,,,
,,,,,,,,,,,,0,4,4,4,1,fifth,3,21,female,right,donders,2021-07-09_09h38.22.716,ImageRatingTask_S3,2021.1.4,Win32,60.02040694,,,,,,,,,
,,,,,,,,,,,,0,5,5,5,1,sixth,3,21,female,right,donders,2021-07-09_09h38.22.716,ImageRatingTask_S3,2021.1.4,Win32,60.02040694,,,,,,,,,
,,,,,,,,,,,,0,6,6,6,1,seventh,3,21,female,right,donders,2021-07-09_09h38.22.716,ImageRatingTask_S3,2021.1.4,Win32,60.02040694,,,,,,,,,
,,,,,,,,,,,,0,7,7,7,1,last,3,21,female,right,donders,2021-07-09_09h38.22.716,ImageRatingTask_S3,2021.1.4,Win32,60.02040694,,,,,,,,,
,,,,,,,,,,,,,,,,,,3,21,female,right,donders,2021-07-09_09h38.22.716,ImageRatingTask_S3,2021.1.4,Win32,60.02040694,0,12,12,11,1,DreamStudyImages_rs1000x750g/Mammals/Animals_025_h.jpg,,,
,,5,22.8092,1,1.0529,9,2.4504,1,0.517,5,1.1834,0,0,0,0,1,main,3,21,female,right,donders,2021-07-09_09h38.22.716,ImageRatingTask_S3,2021.1.4,Win32,60.02040694,,,,,,,,,
,,,,,,,,,,,,0,1,1,1,1,second,3,21,female,right,donders,2021-07-09_09h38.22.716,ImageRatingTask_S3,2021.1.4,Win32,60.02040694,,,,,,,,,
,,,,,,,,,,,,0,2,2,2,1,third,3,21,female,right,donders,2021-07-09_09h38.22.716,ImageRatingTask_S3,2021.1.4,Win32,60.02040694,,,,,,,,,
,,,,,,,,,,,,0,3,3,3,1,fourth,3,21,female,right,donders,2021-07-09_09h38.22.716,ImageRatingTask_S3,2021.1.4,Win32,60.02040694,,,,,,,,,
,,,,,,,,,,,,0,4,4,4,1,fifth,3,21,female,right,donders,2021-07-09_09h38.22.716,ImageRatingTask_S3,2021.1.4,Win32,60.02040694,,,,,,,,,
,,,,,,,,,,,,0,5,5,5,1,sixth,3,21,female,right,donders,2021-07-09_09h38.22.716,ImageRatingTask_S3,2021.1.4,Win32,60.02040694,,,,,,,,,
,,,,,,,,,,,,0,6,6,6,1,seventh,3,21,female,right,donders,2021-07-09_09h38.22.716,ImageRatingTask_S3,2021.1.4,Win32,60.02040694,,,,,,,,,
,,,,,,,,,,,,0,7,7,7,1,last,3,21,female,right,donders,2021-07-09_09h38.22.716,ImageRatingTask_S3,2021.1.4,Win32,60.02040694,,,,,,,,,
,,,,,,,,,,,,,,,,,,3,21,female,right,donders,2021-07-09_09h38.22.716,ImageRatingTask_S3,2021.1.4,Win32,60.02040694,0,13,13,87,1,DreamStudyImages_rs1000x750g/Food/Objects_064_v.jpg,,,
,,6,1.521,3,0.6861,9,1.0215,1,1.0087,8,0.7663,0,0,0,0,1,main,3,21,female,right,donders,2021-07-09_09h38.22.716,ImageRatingTask_S3,2021.1.4,Win32,60.02040694,,,,,,,,,
,,,,,,,,,,,,0,1,1,1,1,second,3,21,female,right,donders,2021-07-09_09h38.22.716,ImageRatingTask_S3,2021.1.4,Win32,60.02040694,,,,,,,,,
,,,,,,,,,,,,0,2,2,2,1,third,3,21,female,right,donders,2021-07-09_09h38.22.716,ImageRatingTask_S3,2021.1.4,Win32,60.02040694,,,,,,,,,
,,,,,,,,,,,,0,3,3,3,1,fourth,3,21,female,right,donders,2021-07-09_09h38.22.716,ImageRatingTask_S3,2021.1.4,Win32,60.02040694,,,,,,,,,
,,,,,,,,,,,,0,4,4,4,1,fifth,3,21,female,right,donders,2021-07-09_09h38.22.716,ImageRatingTask_S3,2021.1.4,Win32,60.02040694,,,,,,,,,
,,,,,,,,,,,,0,5,5,5,1,sixth,3,21,female,right,donders,2021-07-09_09h38.22.716,ImageRatingTask_S3,2021.1.4,Win32,60.02040694,,,,,,,,,
,,,,,,,,,,,,0,6,6,6,1,seventh,3,21,female,right,donders,2021-07-09_09h38.22.716,ImageRatingTask_S3,2021.1.4,Win32,60.02040694,,,,,,,,,
,,,,,,,,,,,,0,7,7,7,1,last,3,21,female,right,donders,2021-07-09_09h38.22.716,ImageRatingTask_S3,2021.1.4,Win32,60.02040694,,,,,,,,,
,,,,,,,,,,,,,,,,,,3,21,female,right,donders,2021-07-09_09h38.22.716,ImageRatingTask_S3,2021.1.4,Win32,60.02040694,0,14,14,37,1,DreamStudyImages_rs1000x750g/Water/lake_CROPPED.jpg,,,
,,4,1.6148,2,0.4583,7,1.6837,1,0.6165,7,0.8274,0,0,0,0,1,main,3,21,female,right,donders,2021-07-09_09h38.22.716,ImageRatingTask_S3,2021.1.4,Win32,60.02040694,,,,,,,,,
,,,,,,,,,,,,0,1,1,1,1,second,3,21,female,right,donders,2021-07-09_09h38.22.716,ImageRatingTask_S3,2021.1.4,Win32,60.02040694,,,,,,,,,
,,,,,,,,,,,,0,2,2,2,1,third,3,21,female,right,donders,2021-07-09_09h38.22.716,ImageRatingTask_S3,2021.1.4,Win32,60.02040694,,,,,,,,,
,,,,,,,,,,,,0,3,3,3,1,fourth,3,21,female,right,donders,2021-07-09_09h38.22.716,ImageRatingTask_S3,2021.1.4,Win32,60.02040694,,,,,,,,,
,,,,,,,,,,,,0,4,4,4,1,fifth,3,21,female,right,donders,2021-07-09_09h38.22.716,ImageRatingTask_S3,2021.1.4,Win32,60.02040694,,,,,,,,,
,,,,,,,,,,,,0,5,5,5,1,sixth,3,21,female,right,donders,2021-07-09_09h38.22.716,ImageRatingTask_S3,2021.1.4,Win32,60.02040694,,,,,,,,,
,,,,,,,,,,,,0,6,6,6,1,seventh,3,21,female,right,donders,2021-07-09_09h38.22.716,ImageRatingTask_S3,2021.1.4,Win32,60.02040694,,,,,,,,,
,,,,,,,,,,,,0,7,7,7,1,last,3,21,female,right,donders,2021-07-09_09h38.22.716,ImageRatingTask_S3,2021.1.4,Win32,60.02040694,,,,,,,,,
,,,,,,,,,,,,,,,,,,3,21,female,right,donders,2021-07-09_09h38.22.716,ImageRatingTask_S3,2021.1.4,Win32,60.02040694,0,15,15,30,1,DreamStudyImages_rs1000x750g/Vehicles/IAPS9909_carcrash6.jpg,,,
,,3,2.0534,2,0.4003,8,1.4431,1,0.9136,3,0.8998,0,0,0,0,1,main,3,21,female,right,donders,2021-07-09_09h38.22.716,ImageRatingTask_S3,2021.1.4,Win32,60.02040694,,,,,,,,,
,,,,,,,,,,,,0,1,1,1,1,second,3,21,female,right,donders,2021-07-09_09h38.22.716,ImageRatingTask_S3,2021.1.4,Win32,60.02040694,,,,,,,,,
,,,,,,,,,,,,0,2,2,2,1,third,3,21,female,right,donders,2021-07-09_09h38.22.716,ImageRatingTask_S3,2021.1.4,Win32,60.02040694,,,,,,,,,
,,,,,,,,,,,,0,3,3,3,1,fourth,3,21,female,right,donders,2021-07-09_09h38.22.716,ImageRatingTask_S3,2021.1.4,Win32,60.02040694,,,,,,,,,
,,,,,,,,,,,,0,4,4,4,1,fifth,3,21,female,right,donders,2021-07-09_09h38.22.716,ImageRatingTask_S3,2021.1.4,Win32,60.02040694,,,,,,,,,
,,,,,,,,,,,,0,5,5,5,1,sixth,3,21,female,right,donders,2021-07-09_09h38.22.716,ImageRatingTask_S3,2021.1.4,Win32,60.02040694,,,,,,,,,
,,,,,,,,,,,,0,6,6,6,1,seventh,3,21,female,right,donders,2021-07-09_09h38.22.716,ImageRatingTask_S3,2021.1.4,Win32,60.02040694,,,,,,,,,
,,,,,,,,,,,,0,7,7,7,1,last,3,21,female,right,donders,2021-07-09_09h38.22.716,ImageRatingTask_S3,2021.1.4,Win32,60.02040694,,,,,,,,,
,,,,,,,,,,,,,,,,,,3,21,female,right,donders,2021-07-09_09h38.22.716,ImageRatingTask_S3,2021.1.4,Win32,60.02040694,0,16,16,129,1,DreamStudyImages_rs1000x750g/Mammals/Animals_061_h.jpg,,,
,,6,3.8047,3,0.3121,9,1.4165,1,0.4999,5,0.7098,0,0,0,0,1,main,3,21,female,right,donders,2021-07-09_09h38.22.716,ImageRatingTask_S3,2021.1.4,Win32,60.02040694,,,,,,,,,
,,,,,,,,,,,,0,1,1,1,1,second,3,21,female,right,donders,2021-07-09_09h38.22.716,ImageRatingTask_S3,2021.1.4,Win32,60.02040694,,,,,,,,,
,,,,,,,,,,,,0,2,2,2,1,third,3,21,female,right,donders,2021-07-09_09h38.22.716,ImageRatingTask_S3,2021.1.4,Win32,60.02040694,,,,,,,,,
,,,,,,,,,,,,0,3,3,3,1,fourth,3,21,female,right,donders,2021-07-09_09h38.22.716,ImageRatingTask_S3,2021.1.4,Win32,60.02040694,,,,,,,,,
,,,,,,,,,,,,0,4,4,4,1,fifth,3,21,female,right,donders,2021-07-09_09h38.22.716,ImageRatingTask_S3,2021.1.4,Win32,60.02040694,,,,,,,,,
,,,,,,,,,,,,0,5,5,5,1,sixth,3,21,female,right,donders,2021-07-09_09h38.22.716,ImageRatingTask_S3,2021.1.4,Win32,60.02040694,,,,,,,,,
,,,,,,,,,,,,0,6,6,6,1,seventh,3,21,female,right,donders,2021-07-09_09h38.22.716,ImageRatingTask_S3,2021.1.4,Win32,60.02040694,,,,,,,,,
,,,,,,,,,,,,0,7,7,7,1,last,3,21,female,right,donders,2021-07-09_09h38.22.716,ImageRatingTask_S3,2021.1.4,Win32,60.02040694,,,,,,,,,
,,,,,,,,,,,,,,,,,,3,21,female,right,donders,2021-07-09_09h38.22.716,ImageRatingTask_S3,2021.1.4,Win32,60.02040694,0,17,17,159,1,DreamStudyImages_rs1000x750g/Food/Objects_063_v.jpg,,,
,,5,3.2825,1,0.346,8,2.2506,1,0.3507,5,23.3642,0,0,0,0,1,main,3,21,female,right,donders,2021-07-09_09h38.22.716,ImageRatingTask_S3,2021.1.4,Win32,60.02040694,,,,,,,,,
,,,,,,,,,,,,0,1,1,1,1,second,3,21,female,right,donders,2021-07-09_09h38.22.716,ImageRatingTask_S3,2021.1.4,Win32,60.02040694,,,,,,,,,
,,,,,,,,,,,,0,2,2,2,1,third,3,21,female,right,donders,2021-07-09_09h38.22.716,ImageRatingTask_S3,2021.1.4,Win32,60.02040694,,,,,,,,,
,,,,,,,,,,,,0,3,3,3,1,fourth,3,21,female,right,donders,2021-07-09_09h38.22.716,ImageRatingTask_S3,2021.1.4,Win32,60.02040694,,,,,,,,,
,,,,,,,,,,,,0,4,4,4,1,fifth,3,21,female,right,donders,2021-07-09_09h38.22.716,ImageRatingTask_S3,2021.1.4,Win32,60.02040694,,,,,,,,,
,,,,,,,,,,,,0,5,5,5,1,sixth,3,21,female,right,donders,2021-07-09_09h38.22.716,ImageRatingTask_S3,2021.1.4,Win32,60.02040694,,,,,,,,,
,,,,,,,,,,,,0,6,6,6,1,seventh,3,21,female,right,donders,2021-07-09_09h38.22.716,ImageRatingTask_S3,2021.1.4,Win32,60.02040694,,,,,,,,,
,,,,,,,,,,,,0,7,7,7,1,last,3,21,female,right,donders,2021-07-09_09h38.22.716,ImageRatingTask_S3,2021.1.4,Win32,60.02040694,,,,,,,,,
,,,,,,,,,,,,,,,,,,3,21,female,right,donders,2021-07-09_09h38.22.716,ImageRatingTask_S3,2021.1.4,Win32,60.02040694,0,18,18,106,1,DreamStudyImages_rs1000x750g/Food/Objects_068_v.jpg,,,
,,4,3.3549,2,0.755,6,2.7655,1,1.0667,3,0.6574,0,0,0,0,1,main,3,21,female,right,donders,2021-07-09_09h38.22.716,ImageRatingTask_S3,2021.1.4,Win32,60.02040694,,,,,,,,,
,,,,,,,,,,,,0,1,1,1,1,second,3,21,female,right,donders,2021-07-09_09h38.22.716,ImageRatingTask_S3,2021.1.4,Win32,60.02040694,,,,,,,,,
,,,,,,,,,,,,0,2,2,2,1,third,3,21,female,right,donders,2021-07-09_09h38.22.716,ImageRatingTask_S3,2021.1.4,Win32,60.02040694,,,,,,,,,
,,,,,,,,,,,,0,3,3,3,1,fourth,3,21,female,right,donders,2021-07-09_09h38.22.716,ImageRatingTask_S3,2021.1.4,Win32,60.02040694,,,,,,,,,
,,,,,,,,,,,,0,4,4,4,1,fifth,3,21,female,right,donders,2021-07-09_09h38.22.716,ImageRatingTask_S3,2021.1.4,Win32,60.02040694,,,,,,,,,
,,,,,,,,,,,,0,5,5,5,1,sixth,3,21,female,right,donders,2021-07-09_09h38.22.716,ImageRatingTask_S3,2021.1.4,Win32,60.02040694,,,,,,,,,
,,,,,,,,,,,,0,6,6,6,1,seventh,3,21,female,right,donders,2021-07-09_09h38.22.716,ImageRatingTask_S3,2021.1.4,Win32,60.02040694,,,,,,,,,
,,,,,,,,,,,,0,7,7,7,1,last,3,21,female,right,donders,2021-07-09_09h38.22.716,ImageRatingTask_S3,2021.1.4,Win32,60.02040694,,,,,,,,,
,,,,,,,,,,,,,,,,,,3,21,female,right,donders,2021-07-09_09h38.22.716,ImageRatingTask_S3,2021.1.4,Win32,60.02040694,0,19,19,154,1,DreamStudyImages_rs1000x750g/Mammals/IAPS1301_dog2.jpg,,,
,,5,4.9147,1,0.3661,3,1.2942,1,2.5494,7,0.8071,0,0,0,0,1,main,3,21,female,right,donders,2021-07-09_09h38.22.716,ImageRatingTask_S3,2021.1.4,Win32,60.02040694,,,,,,,,,
,,,,,,,,,,,,0,1,1,1,1,second,3,21,female,right,donders,2021-07-09_09h38.22.716,ImageRatingTask_S3,2021.1.4,Win32,60.02040694,,,,,,,,,
,,,,,,,,,,,,0,2,2,2,1,third,3,21,female,right,donders,2021-07-09_09h38.22.716,ImageRatingTask_S3,2021.1.4,Win32,60.02040694,,,,,,,,,
,,,,,,,,,,,,0,3,3,3,1,fourth,3,21,female,right,donders,2021-07-09_09h38.22.716,ImageRatingTask_S3,2021.1.4,Win32,60.02040694,,,,,,,,,
,,,,,,,,,,,,0,4,4,4,1,fifth,3,21,female,right,donders,2021-07-09_09h38.22.716,ImageRatingTask_S3,2021.1.4,Win32,60.02040694,,,,,,,,,
,,,,,,,,,,,,0,5,5,5,1,sixth,3,21,female,right,donders,2021-07-09_09h38.22.716,ImageRatingTask_S3,2021.1.4,Win32,60.02040694,,,,,,,,,
,,,,,,,,,,,,0,6,6,6,1,seventh,3,21,female,right,donders,2021-07-09_09h38.22.716,ImageRatingTask_S3,2021.1.4,Win32,60.02040694,,,,,,,,,
,,,,,,,,,,,,0,7,7,7,1,last,3,21,female,right,donders,2021-07-09_09h38.22.716,ImageRatingTask_S3,2021.1.4,Win32,60.02040694,,,,,,,,,
,,,,,,,,,,,,,,,,,,3,21,female,right,donders,2021-07-09_09h38.22.716,ImageRatingTask_S3,2021.1.4,Win32,60.02040694,0,20,20,14,1,DreamStudyImages_rs1000x750g/Vehicles/Tornado 1.jpg,,,
,,6,15.2772,3,0.5296,7,1.6332,1,0.6832,2,0.7833,0,0,0,0,1,main,3,21,female,right,donders,2021-07-09_09h38.22.716,ImageRatingTask_S3,2021.1.4,Win32,60.02040694,,,,,,,,,
,,,,,,,,,,,,0,1,1,1,1,second,3,21,female,right,donders,2021-07-09_09h38.22.716,ImageRatingTask_S3,2021.1.4,Win32,60.02040694,,,,,,,,,
,,,,,,,,,,,,0,2,2,2,1,third,3,21,female,right,donders,2021-07-09_09h38.22.716,ImageRatingTask_S3,2021.1.4,Win32,60.02040694,,,,,,,,,
,,,,,,,,,,,,0,3,3,3,1,fourth,3,21,female,right,donders,2021-07-09_09h38.22.716,ImageRatingTask_S3,2021.1.4,Win32,60.02040694,,,,,,,,,
,,,,,,,,,,,,0,4,4,4,1,fifth,3,21,female,right,donders,2021-07-09_09h38.22.716,ImageRatingTask_S3,2021.1.4,Win32,60.02040694,,,,,,,,,
,,,,,,,,,,,,0,5,5,5,1,sixth,3,21,female,right,donders,2021-07-09_09h38.22.716,ImageRatingTask_S3,2021.1.4,Win32,60.02040694,,,,,,,,,
,,,,,,,,,,,,0,6,6,6,1,seventh,3,21,female,right,donders,2021-07-09_09h38.22.716,ImageRatingTask_S3,2021.1.4,Win32,60.02040694,,,,,,,,,
,,,,,,,,,,,,0,7,7,7,1,last,3,21,female,right,donders,2021-07-09_09h38.22.716,ImageRatingTask_S3,2021.1.4,Win32,60.02040694,,,,,,,,,
,,,,,,,,,,,,,,,,,,3,21,female,right,donders,2021-07-09_09h38.22.716,ImageRatingTask_S3,2021.1.4,Win32,60.02040694,0,21,21,29,1,DreamStudyImages_rs1000x750g/Children/2071.jpg,,,
,,4,4.7904,3,0.4943,8,2.516,1,0.6002,3,0.8043,0,0,0,0,1,main,3,21,female,right,donders,2021-07-09_09h38.22.716,ImageRatingTask_S3,2021.1.4,Win32,60.02040694,,,,,,,,,
,,,,,,,,,,,,0,1,1,1,1,second,3,21,female,right,donders,2021-07-09_09h38.22.716,ImageRatingTask_S3,2021.1.4,Win32,60.02040694,,,,,,,,,
,,,,,,,,,,,,0,2,2,2,1,third,3,21,female,right,donders,2021-07-09_09h38.22.716,ImageRatingTask_S3,2021.1.4,Win32,60.02040694,,,,,,,,,
,,,,,,,,,,,,0,3,3,3,1,fourth,3,21,female,right,donders,2021-07-09_09h38.22.716,ImageRatingTask_S3,2021.1.4,Win32,60.02040694,,,,,,,,,
,,,,,,,,,,,,0,4,4,4,1,fifth,3,21,female,right,donders,2021-07-09_09h38.22.716,ImageRatingTask_S3,2021.1.4,Win32,60.02040694,,,,,,,,,
,,,,,,,,,,,,0,5,5,5,1,sixth,3,21,female,right,donders,2021-07-09_09h38.22.716,ImageRatingTask_S3,2021.1.4,Win32,60.02040694,,,,,,,,,
,,,,,,,,,,,,0,6,6,6,1,seventh,3,21,female,right,donders,2021-07-09_09h38.22.716,ImageRatingTask_S3,2021.1.4,Win32,60.02040694,,,,,,,,,
,,,,,,,,,,,,0,7,7,7,1,last,3,21,female,right,donders,2021-07-09_09h38.22.716,ImageRatingTask_S3,2021.1.4,Win32,60.02040694,,,,,,,,,
,,,,,,,,,,,,,,,,,,3,21,female,right,donders,2021-07-09_09h38.22.716,ImageRatingTask_S3,2021.1.4,Win32,60.02040694,0,22,22,130,1,DreamStudyImages_rs1000x750g/Mammals/Ferret 1.jpg,,,
,,4,3.225,2,0.3555,9,1.0832,1,0.5663,3,0.7499,0,0,0,0,1,main,3,21,female,right,donders,2021-07-09_09h38.22.716,ImageRatingTask_S3,2021.1.4,Win32,60.02040694,,,,,,,,,
,,,,,,,,,,,,0,1,1,1,1,second,3,21,female,right,donders,2021-07-09_09h38.22.716,ImageRatingTask_S3,2021.1.4,Win32,60.02040694,,,,,,,,,
,,,,,,,,,,,,0,2,2,2,1,third,3,21,female,right,donders,2021-07-09_09h38.22.716,ImageRatingTask_S3,2021.1.4,Win32,60.02040694,,,,,,,,,
,,,,,,,,,,,,0,3,3,3,1,fourth,3,21,female,right,donders,2021-07-09_09h38.22.716,ImageRatingTask_S3,2021.1.4,Win32,60.02040694,,,,,,,,,
,,,,,,,,,,,,0,4,4,4,1,fifth,3,21,female,right,donders,2021-07-09_09h38.22.716,ImageRatingTask_S3,2021.1.4,Win32,60.02040694,,,,,,,,,
,,,,,,,,,,,,0,5,5,5,1,sixth,3,21,female,right,donders,2021-07-09_09h38.22.716,ImageRatingTask_S3,2021.1.4,Win32,60.02040694,,,,,,,,,
,,,,,,,,,,,,0,6,6,6,1,seventh,3,21,female,right,donders,2021-07-09_09h38.22.716,ImageRatingTask_S3,2021.1.4,Win32,60.02040694,,,,,,,,,
,,,,,,,,,,,,0,7,7,7,1,last,3,21,female,right,donders,2021-07-09_09h38.22.716,ImageRatingTask_S3,2021.1.4,Win32,60.02040694,,,,,,,,,
,,,,,,,,,,,,,,,,,,3,21,female,right,donders,2021-07-09_09h38.22.716,ImageRatingTask_S3,2021.1.4,Win32,60.02040694,0,23,23,104,1,DreamStudyImages_rs1000x750g/Mammals/Animals_083_h.jpg,,,
,,7,2.083,3,0.5053,8,2.0327,1,0.6864,3,0.8335,0,0,0,0,1,main,3,21,female,right,donders,2021-07-09_09h38.22.716,ImageRatingTask_S3,2021.1.4,Win32,60.02040694,,,,,,,,,
,,,,,,,,,,,,0,1,1,1,1,second,3,21,female,right,donders,2021-07-09_09h38.22.716,ImageRatingTask_S3,2021.1.4,Win32,60.02040694,,,,,,,,,
,,,,,,,,,,,,0,2,2,2,1,third,3,21,female,right,donders,2021-07-09_09h38.22.716,ImageRatingTask_S3,2021.1.4,Win32,60.02040694,,,,,,,,,
,,,,,,,,,,,,0,3,3,3,1,fourth,3,21,female,right,donders,2021-07-09_09h38.22.716,ImageRatingTask_S3,2021.1.4,Win32,60.02040694,,,,,,,,,
,,,,,,,,,,,,0,4,4,4,1,fifth,3,21,female,right,donders,2021-07-09_09h38.22.716,ImageRatingTask_S3,2021.1.4,Win32,60.02040694,,,,,,,,,
,,,,,,,,,,,,0,5,5,5,1,sixth,3,21,female,right,donders,2021-07-09_09h38.22.716,ImageRatingTask_S3,2021.1.4,Win32,60.02040694,,,,,,,,,
,,,,,,,,,,,,0,6,6,6,1,seventh,3,21,female,right,donders,2021-07-09_09h38.22.716,ImageRatingTask_S3,2021.1.4,Win32,60.02040694,,,,,,,,,
,,,,,,,,,,,,0,7,7,7,1,last,3,21,female,right,donders,2021-07-09_09h38.22.716,ImageRatingTask_S3,2021.1.4,Win32,60.02040694,,,,,,,,,
,,,,,,,,,,,,,,,,,,3,21,female,right,donders,2021-07-09_09h38.22.716,ImageRatingTask_S3,2021.1.4,Win32,60.02040694,0,24,24,57,1,DreamStudyImages_rs1000x750g/Mammals/Animals_165_h.jpg,,,
,,6,2.4602,2,0.412,9,0.8722,1,0.5198,2,1.0328,0,0,0,0,1,main,3,21,female,right,donders,2021-07-09_09h38.22.716,ImageRatingTask_S3,2021.1.4,Win32,60.02040694,,,,,,,,,
,,,,,,,,,,,,0,1,1,1,1,second,3,21,female,right,donders,2021-07-09_09h38.22.716,ImageRatingTask_S3,2021.1.4,Win32,60.02040694,,,,,,,,,
,,,,,,,,,,,,0,2,2,2,1,third,3,21,female,right,donders,2021-07-09_09h38.22.716,ImageRatingTask_S3,2021.1.4,Win32,60.02040694,,,,,,,,,
,,,,,,,,,,,,0,3,3,3,1,fourth,3,21,female,right,donders,2021-07-09_09h38.22.716,ImageRatingTask_S3,2021.1.4,Win32,60.02040694,,,,,,,,,
,,,,,,,,,,,,0,4,4,4,1,fifth,3,21,female,right,donders,2021-07-09_09h38.22.716,ImageRatingTask_S3,2021.1.4,Win32,60.02040694,,,,,,,,,
,,,,,,,,,,,,0,5,5,5,1,sixth,3,21,female,right,donders,2021-07-09_09h38.22.716,ImageRatingTask_S3,2021.1.4,Win32,60.02040694,,,,,,,,,
,,,,,,,,,,,,0,6,6,6,1,seventh,3,21,female,right,donders,2021-07-09_09h38.22.716,ImageRatingTask_S3,2021.1.4,Win32,60.02040694,,,,,,,,,
,,,,,,,,,,,,0,7,7,7,1,last,3,21,female,right,donders,2021-07-09_09h38.22.716,ImageRatingTask_S3,2021.1.4,Win32,60.02040694,,,,,,,,,
,,,,,,,,,,,,,,,,,,3,21,female,right,donders,2021-07-09_09h38.22.716,ImageRatingTask_S3,2021.1.4,Win32,60.02040694,0,25,25,138,1,DreamStudyImages_rs1000x750g/Children/Faces_085_h.jpg,,,
,,6,3.3659,2,0.7967,8,1.2324,1,0.7953,3,1.4654,0,0,0,0,1,main,3,21,female,right,donders,2021-07-09_09h38.22.716,ImageRatingTask_S3,2021.1.4,Win32,60.02040694,,,,,,,,,
,,,,,,,,,,,,0,1,1,1,1,second,3,21,female,right,donders,2021-07-09_09h38.22.716,ImageRatingTask_S3,2021.1.4,Win32,60.02040694,,,,,,,,,
,,,,,,,,,,,,0,2,2,2,1,third,3,21,female,right,donders,2021-07-09_09h38.22.716,ImageRatingTask_S3,2021.1.4,Win32,60.02040694,,,,,,,,,
,,,,,,,,,,,,0,3,3,3,1,fourth,3,21,female,right,donders,2021-07-09_09h38.22.716,ImageRatingTask_S3,2021.1.4,Win32,60.02040694,,,,,,,,,
,,,,,,,,,,,,0,4,4,4,1,fifth,3,21,female,right,donders,2021-07-09_09h38.22.716,ImageRatingTask_S3,2021.1.4,Win32,60.02040694,,,,,,,,,
,,,,,,,,,,,,0,5,5,5,1,sixth,3,21,female,right,donders,2021-07-09_09h38.22.716,ImageRatingTask_S3,2021.1.4,Win32,60.02040694,,,,,,,,,
,,,,,,,,,,,,0,6,6,6,1,seventh,3,21,female,right,donders,2021-07-09_09h38.22.716,ImageRatingTask_S3,2021.1.4,Win32,60.02040694,,,,,,,,,
,,,,,,,,,,,,0,7,7,7,1,last,3,21,female,right,donders,2021-07-09_09h38.22.716,ImageRatingTask_S3,2021.1.4,Win32,60.02040694,,,,,,,,,
,,,,,,,,,,,,,,,,,,3,21,female,right,donders,2021-07-09_09h38.22.716,ImageRatingTask_S3,2021.1.4,Win32,60.02040694,0,26,26,35,1,DreamStudyImages_rs1000x750g/Mammals/Zebra 1.jpg,,,
,,5,4.1706,1,0.2757,8,1.0771,1,0.7663,8,0.7498,0,0,0,0,1,main,3,21,female,right,donders,2021-07-09_09h38.22.716,ImageRatingTask_S3,2021.1.4,Win32,60.02040694,,,,,,,,,
,,,,,,,,,,,,0,1,1,1,1,second,3,21,female,right,donders,2021-07-09_09h38.22.716,ImageRatingTask_S3,2021.1.4,Win32,60.02040694,,,,,,,,,
,,,,,,,,,,,,0,2,2,2,1,third,3,21,female,right,donders,2021-07-09_09h38.22.716,ImageRatingTask_S3,2021.1.4,Win32,60.02040694,,,,,,,,,
,,,,,,,,,,,,0,3,3,3,1,fourth,3,21,female,right,donders,2021-07-09_09h38.22.716,ImageRatingTask_S3,2021.1.4,Win32,60.02040694,,,,,,,,,
,,,,,,,,,,,,0,4,4,4,1,fifth,3,21,female,right,donders,2021-07-09_09h38.22.716,ImageRatingTask_S3,2021.1.4,Win32,60.02040694,,,,,,,,,
,,,,,,,,,,,,0,5,5,5,1,sixth,3,21,female,right,donders,2021-07-09_09h38.22.716,ImageRatingTask_S3,2021.1.4,Win32,60.02040694,,,,,,,,,
,,,,,,,,,,,,0,6,6,6,1,seventh,3,21,female,right,donders,2021-07-09_09h38.22.716,ImageRatingTask_S3,2021.1.4,Win32,60.02040694,,,,,,,,,
,,,,,,,,,,,,0,7,7,7,1,last,3,21,female,right,donders,2021-07-09_09h38.22.716,ImageRatingTask_S3,2021.1.4,Win32,60.02040694,,,,,,,,,
,,,,,,,,,,,,,,,,,,3,21,female,right,donders,2021-07-09_09h38.22.716,ImageRatingTask_S3,2021.1.4,Win32,60.02040694,0,27,27,25,1,DreamStudyImages_rs1000x750g/Water/water_neut_5.jpg,,,
,,7,3.5763,4,0.9945,9,1.0086,1,0.6236,3,0.6498,0,0,0,0,1,main,3,21,female,right,donders,2021-07-09_09h38.22.716,ImageRatingTask_S3,2021.1.4,Win32,60.02040694,,,,,,,,,
,,,,,,,,,,,,0,1,1,1,1,second,3,21,female,right,donders,2021-07-09_09h38.22.716,ImageRatingTask_S3,2021.1.4,Win32,60.02040694,,,,,,,,,
,,,,,,,,,,,,0,2,2,2,1,third,3,21,female,right,donders,2021-07-09_09h38.22.716,ImageRatingTask_S3,2021.1.4,Win32,60.02040694,,,,,,,,,
,,,,,,,,,,,,0,3,3,3,1,fourth,3,21,female,right,donders,2021-07-09_09h38.22.716,ImageRatingTask_S3,2021.1.4,Win32,60.02040694,,,,,,,,,
,,,,,,,,,,,,0,4,4,4,1,fifth,3,21,female,right,donders,2021-07-09_09h38.22.716,ImageRatingTask_S3,2021.1.4,Win32,60.02040694,,,,,,,,,
,,,,,,,,,,,,0,5,5,5,1,sixth,3,21,female,right,donders,2021-07-09_09h38.22.716,ImageRatingTask_S3,2021.1.4,Win32,60.02040694,,,,,,,,,
,,,,,,,,,,,,0,6,6,6,1,seventh,3,21,female,right,donders,2021-07-09_09h38.22.716,ImageRatingTask_S3,2021.1.4,Win32,60.02040694,,,,,,,,,
,,,,,,,,,,,,0,7,7,7,1,last,3,21,female,right,donders,2021-07-09_09h38.22.716,ImageRatingTask_S3,2021.1.4,Win32,60.02040694,,,,,,,,,
,,,,,,,,,,,,,,,,,,3,21,female,right,donders,2021-07-09_09h38.22.716,ImageRatingTask_S3,2021.1.4,Win32,60.02040694,0,28,28,63,1,DreamStudyImages_rs1000x750g/Mammals/Animals_163_h.jpg,,,
,,5,1.8293,1,0.3735,5,1.7444,1,1.1163,7,0.6566,0,0,0,0,1,main,3,21,female,right,donders,2021-07-09_09h38.22.716,ImageRatingTask_S3,2021.1.4,Win32,60.02040694,,,,,,,,,
,,,,,,,,,,,,0,1,1,1,1,second,3,21,female,right,donders,2021-07-09_09h38.22.716,ImageRatingTask_S3,2021.1.4,Win32,60.02040694,,,,,,,,,
,,,,,,,,,,,,0,2,2,2,1,third,3,21,female,right,donders,2021-07-09_09h38.22.716,ImageRatingTask_S3,2021.1.4,Win32,60.02040694,,,,,,,,,
,,,,,,,,,,,,0,3,3,3,1,fourth,3,21,female,right,donders,2021-07-09_09h38.22.716,ImageRatingTask_S3,2021.1.4,Win32,60.02040694,,,,,,,,,
,,,,,,,,,,,,0,4,4,4,1,fifth,3,21,female,right,donders,2021-07-09_09h38.22.716,ImageRatingTask_S3,2021.1.4,Win32,60.02040694,,,,,,,,,
,,,,,,,,,,,,0,5,5,5,1,sixth,3,21,female,right,donders,2021-07-09_09h38.22.716,ImageRatingTask_S3,2021.1.4,Win32,60.02040694,,,,,,,,,
,,,,,,,,,,,,0,6,6,6,1,seventh,3,21,female,right,donders,2021-07-09_09h38.22.716,ImageRatingTask_S3,2021.1.4,Win32,60.02040694,,,,,,,,,
,,,,,,,,,,,,0,7,7,7,1,last,3,21,female,right,donders,2021-07-09_09h38.22.716,ImageRatingTask_S3,2021.1.4,Win32,60.02040694,,,,,,,,,
,,,,,,,,,,,,,,,,,,3,21,female,right,donders,2021-07-09_09h38.22.716,ImageRatingTask_S3,2021.1.4,Win32,60.02040694,0,29,29,82,1,DreamStudyImages_rs1000x750g/Vehicles/IAPS7095_carlight.jpg,,,
,,5,3.8817,1,0.5314,9,5.666,1,0.6032,2,0.7165,0,0,0,0,1,main,3,21,female,right,donders,2021-07-09_09h38.22.716,ImageRatingTask_S3,2021.1.4,Win32,60.02040694,,,,,,,,,
,,,,,,,,,,,,0,1,1,1,1,second,3,21,female,right,donders,2021-07-09_09h38.22.716,ImageRatingTask_S3,2021.1.4,Win32,60.02040694,,,,,,,,,
,,,,,,,,,,,,0,2,2,2,1,third,3,21,female,right,donders,2021-07-09_09h38.22.716,ImageRatingTask_S3,2021.1.4,Win32,60.02040694,,,,,,,,,
,,,,,,,,,,,,0,3,3,3,1,fourth,3,21,female,right,donders,2021-07-09_09h38.22.716,ImageRatingTask_S3,2021.1.4,Win32,60.02040694,,,,,,,,,
,,,,,,,,,,,,0,4,4,4,1,fifth,3,21,female,right,donders,2021-07-09_09h38.22.716,ImageRatingTask_S3,2021.1.4,Win32,60.02040694,,,,,,,,,
,,,,,,,,,,,,0,5,5,5,1,sixth,3,21,female,right,donders,2021-07-09_09h38.22.716,ImageRatingTask_S3,2021.1.4,Win32,60.02040694,,,,,,,,,
,,,,,,,,,,,,0,6,6,6,1,seventh,3,21,female,right,donders,2021-07-09_09h38.22.716,ImageRatingTask_S3,2021.1.4,Win32,60.02040694,,,,,,,,,
,,,,,,,,,,,,0,7,7,7,1,last,3,21,female,right,donders,2021-07-09_09h38.22.716,ImageRatingTask_S3,2021.1.4,Win32,60.02040694,,,,,,,,,
,,,,,,,,,,,,,,,,,,3,21,female,right,donders,2021-07-09_09h38.22.716,ImageRatingTask_S3,2021.1.4,Win32,60.02040694,0,30,30,47,1,DreamStudyImages_rs1000x750g/Children/Faces_369_v.jpg,,,
,,4,5.0596,2,0.8671,8,1.5339,1,2.9876,5,0.7489,0,0,0,0,1,main,3,21,female,right,donders,2021-07-09_09h38.22.716,ImageRatingTask_S3,2021.1.4,Win32,60.02040694,,,,,,,,,
,,,,,,,,,,,,0,1,1,1,1,second,3,21,female,right,donders,2021-07-09_09h38.22.716,ImageRatingTask_S3,2021.1.4,Win32,60.02040694,,,,,,,,,
,,,,,,,,,,,,0,2,2,2,1,third,3,21,female,right,donders,2021-07-09_09h38.22.716,ImageRatingTask_S3,2021.1.4,Win32,60.02040694,,,,,,,,,
,,,,,,,,,,,,0,3,3,3,1,fourth,3,21,female,right,donders,2021-07-09_09h38.22.716,ImageRatingTask_S3,2021.1.4,Win32,60.02040694,,,,,,,,,
,,,,,,,,,,,,0,4,4,4,1,fifth,3,21,female,right,donders,2021-07-09_09h38.22.716,ImageRatingTask_S3,2021.1.4,Win32,60.02040694,,,,,,,,,
,,,,,,,,,,,,0,5,5,5,1,sixth,3,21,female,right,donders,2021-07-09_09h38.22.716,ImageRatingTask_S3,2021.1.4,Win32,60.02040694,,,,,,,,,
,,,,,,,,,,,,0,6,6,6,1,seventh,3,21,female,right,donders,2021-07-09_09h38.22.716,ImageRatingTask_S3,2021.1.4,Win32,60.02040694,,,,,,,,,
,,,,,,,,,,,,0,7,7,7,1,last,3,21,female,right,donders,2021-07-09_09h38.22.716,ImageRatingTask_S3,2021.1.4,Win32,60.02040694,,,,,,,,,
,,,,,,,,,,,,,,,,,,3,21,female,right,donders,2021-07-09_09h38.22.716,ImageRatingTask_S3,2021.1.4,Win32,60.02040694,0,31,31,50,1,DreamStudyImages_rs1000x750g/Food/Objects_018_h.jpg,,,
,,5,5.6023,1,0.1565,8,1.0997,1,0.5501,6,1.033,0,0,0,0,1,main,3,21,female,right,donders,2021-07-09_09h38.22.716,ImageRatingTask_S3,2021.1.4,Win32,60.02040694,,,,,,,,,
,,,,,,,,,,,,0,1,1,1,1,second,3,21,female,right,donders,2021-07-09_09h38.22.716,ImageRatingTask_S3,2021.1.4,Win32,60.02040694,,,,,,,,,
,,,,,,,,,,,,0,2,2,2,1,third,3,21,female,right,donders,2021-07-09_09h38.22.716,ImageRatingTask_S3,2021.1.4,Win32,60.02040694,,,,,,,,,
,,,,,,,,,,,,0,3,3,3,1,fourth,3,21,female,right,donders,2021-07-09_09h38.22.716,ImageRatingTask_S3,2021.1.4,Win32,60.02040694,,,,,,,,,
,,,,,,,,,,,,0,4,4,4,1,fifth,3,21,female,right,donders,2021-07-09_09h38.22.716,ImageRatingTask_S3,2021.1.4,Win32,60.02040694,,,,,,,,,
,,,,,,,,,,,,0,5,5,5,1,sixth,3,21,female,right,donders,2021-07-09_09h38.22.716,ImageRatingTask_S3,2021.1.4,Win32,60.02040694,,,,,,,,,
,,,,,,,,,,,,0,6,6,6,1,seventh,3,21,female,right,donders,2021-07-09_09h38.22.716,ImageRatingTask_S3,2021.1.4,Win32,60.02040694,,,,,,,,,
,,,,,,,,,,,,0,7,7,7,1,last,3,21,female,right,donders,2021-07-09_09h38.22.716,ImageRatingTask_S3,2021.1.4,Win32,60.02040694,,,,,,,,,
,,,,,,,,,,,,,,,,,,3,21,female,right,donders,2021-07-09_09h38.22.716,ImageRatingTask_S3,2021.1.4,Win32,60.02040694,0,32,32,27,1,DreamStudyImages_rs1000x750g/Houses/Landscapes_016_h.jpg,,,
,,4,2.6429,4,1.1232,8,1.2496,1,0.4833,7,1.5528,0,0,0,0,1,main,3,21,female,right,donders,2021-07-09_09h38.22.716,ImageRatingTask_S3,2021.1.4,Win32,60.02040694,,,,,,,,,
,,,,,,,,,,,,0,1,1,1,1,second,3,21,female,right,donders,2021-07-09_09h38.22.716,ImageRatingTask_S3,2021.1.4,Win32,60.02040694,,,,,,,,,
,,,,,,,,,,,,0,2,2,2,1,third,3,21,female,right,donders,2021-07-09_09h38.22.716,ImageRatingTask_S3,2021.1.4,Win32,60.02040694,,,,,,,,,
,,,,,,,,,,,,0,3,3,3,1,fourth,3,21,female,right,donders,2021-07-09_09h38.22.716,ImageRatingTask_S3,2021.1.4,Win32,60.02040694,,,,,,,,,
,,,,,,,,,,,,0,4,4,4,1,fifth,3,21,female,right,donders,2021-07-09_09h38.22.716,ImageRatingTask_S3,2021.1.4,Win32,60.02040694,,,,,,,,,
,,,,,,,,,,,,0,5,5,5,1,sixth,3,21,female,right,donders,2021-07-09_09h38.22.716,ImageRatingTask_S3,2021.1.4,Win32,60.02040694,,,,,,,,,
,,,,,,,,,,,,0,6,6,6,1,seventh,3,21,female,right,donders,2021-07-09_09h38.22.716,ImageRatingTask_S3,2021.1.4,Win32,60.02040694,,,,,,,,,
,,,,,,,,,,,,0,7,7,7,1,last,3,21,female,right,donders,2021-07-09_09h38.22.716,ImageRatingTask_S3,2021.1.4,Win32,60.02040694,,,,,,,,,
,,,,,,,,,,,,,,,,,,3,21,female,right,donders,2021-07-09_09h38.22.716,ImageRatingTask_S3,2021.1.4,Win32,60.02040694,0,33,33,75,1,DreamStudyImages_rs1000x750g/Vehicles/Landscapes_005_h.jpg,,,
,,2,2.5904,5,0.9671,8,1.8526,1,0.9607,3,1.0225,0,0,0,0,1,main,3,21,female,right,donders,2021-07-09_09h38.22.716,ImageRatingTask_S3,2021.1.4,Win32,60.02040694,,,,,,,,,
,,,,,,,,,,,,0,1,1,1,1,second,3,21,female,right,donders,2021-07-09_09h38.22.716,ImageRatingTask_S3,2021.1.4,Win32,60.02040694,,,,,,,,,
,,,,,,,,,,,,0,2,2,2,1,third,3,21,female,right,donders,2021-07-09_09h38.22.716,ImageRatingTask_S3,2021.1.4,Win32,60.02040694,,,,,,,,,
,,,,,,,,,,,,0,3,3,3,1,fourth,3,21,female,right,donders,2021-07-09_09h38.22.716,ImageRatingTask_S3,2021.1.4,Win32,60.02040694,,,,,,,,,
,,,,,,,,,,,,0,4,4,4,1,fifth,3,21,female,right,donders,2021-07-09_09h38.22.716,ImageRatingTask_S3,2021.1.4,Win32,60.02040694,,,,,,,,,
,,,,,,,,,,,,0,5,5,5,1,sixth,3,21,female,right,donders,2021-07-09_09h38.22.716,ImageRatingTask_S3,2021.1.4,Win32,60.02040694,,,,,,,,,
,,,,,,,,,,,,0,6,6,6,1,seventh,3,21,female,right,donders,2021-07-09_09h38.22.716,ImageRatingTask_S3,2021.1.4,Win32,60.02040694,,,,,,,,,
,,,,,,,,,,,,0,7,7,7,1,last,3,21,female,right,donders,2021-07-09_09h38.22.716,ImageRatingTask_S3,2021.1.4,Win32,60.02040694,,,,,,,,,
,,,,,,,,,,,,,,,,,,3,21,female,right,donders,2021-07-09_09h38.22.716,ImageRatingTask_S3,2021.1.4,Win32,60.02040694,0,34,34,113,1,DreamStudyImages_rs1000x750g/Mammals/Animals_078_h.jpg,,,
,,6,1.7287,2,0.4344,8,1.7756,1,0.9974,3,0.7069,0,0,0,0,1,main,3,21,female,right,donders,2021-07-09_09h38.22.716,ImageRatingTask_S3,2021.1.4,Win32,60.02040694,,,,,,,,,
,,,,,,,,,,,,0,1,1,1,1,second,3,21,female,right,donders,2021-07-09_09h38.22.716,ImageRatingTask_S3,2021.1.4,Win32,60.02040694,,,,,,,,,
,,,,,,,,,,,,0,2,2,2,1,third,3,21,female,right,donders,2021-07-09_09h38.22.716,ImageRatingTask_S3,2021.1.4,Win32,60.02040694,,,,,,,,,
,,,,,,,,,,,,0,3,3,3,1,fourth,3,21,female,right,donders,2021-07-09_09h38.22.716,ImageRatingTask_S3,2021.1.4,Win32,60.02040694,,,,,,,,,
,,,,,,,,,,,,0,4,4,4,1,fifth,3,21,female,right,donders,2021-07-09_09h38.22.716,ImageRatingTask_S3,2021.1.4,Win32,60.02040694,,,,,,,,,
,,,,,,,,,,,,0,5,5,5,1,sixth,3,21,female,right,donders,2021-07-09_09h38.22.716,ImageRatingTask_S3,2021.1.4,Win32,60.02040694,,,,,,,,,
,,,,,,,,,,,,0,6,6,6,1,seventh,3,21,female,right,donders,2021-07-09_09h38.22.716,ImageRatingTask_S3,2021.1.4,Win32,60.02040694,,,,,,,,,
,,,,,,,,,,,,0,7,7,7,1,last,3,21,female,right,donders,2021-07-09_09h38.22.716,ImageRatingTask_S3,2021.1.4,Win32,60.02040694,,,,,,,,,
,,,,,,,,,,,,,,,,,,3,21,female,right,donders,2021-07-09_09h38.22.716,ImageRatingTask_S3,2021.1.4,Win32,60.02040694,0,35,35,23,1,DreamStudyImages_rs1000x750g/Mammals/Animals_180_h.jpg,,,
,,5,4.3321,1,0.2656,6,1.1664,0,1.6117,,,0,0,0,0,1,main,3,21,female,right,donders,2021-07-09_09h38.22.716,ImageRatingTask_S3,2021.1.4,Win32,60.02040694,,,,,,,,,
,,,,,,,,,,,,0,1,1,1,1,second,3,21,female,right,donders,2021-07-09_09h38.22.716,ImageRatingTask_S3,2021.1.4,Win32,60.02040694,,,,,,,,,
,,,,,,,,,,,,0,2,2,2,1,third,3,21,female,right,donders,2021-07-09_09h38.22.716,ImageRatingTask_S3,2021.1.4,Win32,60.02040694,,,,,,,,,
,,,,,,,,,,,,0,3,3,3,1,fourth,3,21,female,right,donders,2021-07-09_09h38.22.716,ImageRatingTask_S3,2021.1.4,Win32,60.02040694,,,,,,,,,
,,,,,,,,,,,,0,4,4,4,1,fifth,3,21,female,right,donders,2021-07-09_09h38.22.716,ImageRatingTask_S3,2021.1.4,Win32,60.02040694,,,,,,,,,
,,,,,,,,,,,,0,5,5,5,1,sixth,3,21,female,right,donders,2021-07-09_09h38.22.716,ImageRatingTask_S3,2021.1.4,Win32,60.02040694,,,,,,,,,
,,,,,,,,,,,,0,6,6,6,1,seventh,3,21,female,right,donders,2021-07-09_09h38.22.716,ImageRatingTask_S3,2021.1.4,Win32,60.02040694,,,,,,,,,
,,,,,,,,,,,,0,7,7,7,1,last,3,21,female,right,donders,2021-07-09_09h38.22.716,ImageRatingTask_S3,2021.1.4,Win32,60.02040694,,,,,,,,,
,,,,,,,,,,,,,,,,,,3,21,female,right,donders,2021-07-09_09h38.22.716,ImageRatingTask_S3,2021.1.4,Win32,60.02040694,0,36,36,83,1,DreamStudyImages_rs1000x750g/Water/cityfountain.jpg,,,
,,5,10.7318,1,0.4281,9,4.6536,1,0.6272,8,0.6088,0,0,0,0,1,main,3,21,female,right,donders,2021-07-09_09h38.22.716,ImageRatingTask_S3,2021.1.4,Win32,60.02040694,,,,,,,,,
,,,,,,,,,,,,0,1,1,1,1,second,3,21,female,right,donders,2021-07-09_09h38.22.716,ImageRatingTask_S3,2021.1.4,Win32,60.02040694,,,,,,,,,
,,,,,,,,,,,,0,2,2,2,1,third,3,21,female,right,donders,2021-07-09_09h38.22.716,ImageRatingTask_S3,2021.1.4,Win32,60.02040694,,,,,,,,,
,,,,,,,,,,,,0,3,3,3,1,fourth,3,21,female,right,donders,2021-07-09_09h38.22.716,ImageRatingTask_S3,2021.1.4,Win32,60.02040694,,,,,,,,,
,,,,,,,,,,,,0,4,4,4,1,fifth,3,21,female,right,donders,2021-07-09_09h38.22.716,ImageRatingTask_S3,2021.1.4,Win32,60.02040694,,,,,,,,,
,,,,,,,,,,,,0,5,5,5,1,sixth,3,21,female,right,donders,2021-07-09_09h38.22.716,ImageRatingTask_S3,2021.1.4,Win32,60.02040694,,,,,,,,,
,,,,,,,,,,,,0,6,6,6,1,seventh,3,21,female,right,donders,2021-07-09_09h38.22.716,ImageRatingTask_S3,2021.1.4,Win32,60.02040694,,,,,,,,,
,,,,,,,,,,,,0,7,7,7,1,last,3,21,female,right,donders,2021-07-09_09h38.22.716,ImageRatingTask_S3,2021.1.4,Win32,60.02040694,,,,,,,,,
,,,,,,,,,,,,,,,,,,3,21,female,right,donders,2021-07-09_09h38.22.716,ImageRatingTask_S3,2021.1.4,Win32,60.02040694,0,37,37,78,1,DreamStudyImages_rs1000x750g/Water/Landscapes_104_h.jpg,,,
,,5,1.7571,1,0.7201,7,2.9584,1,0.5094,7,0.644,0,0,0,0,1,main,3,21,female,right,donders,2021-07-09_09h38.22.716,ImageRatingTask_S3,2021.1.4,Win32,60.02040694,,,,,,,,,
,,,,,,,,,,,,0,1,1,1,1,second,3,21,female,right,donders,2021-07-09_09h38.22.716,ImageRatingTask_S3,2021.1.4,Win32,60.02040694,,,,,,,,,
,,,,,,,,,,,,0,2,2,2,1,third,3,21,female,right,donders,2021-07-09_09h38.22.716,ImageRatingTask_S3,2021.1.4,Win32,60.02040694,,,,,,,,,
,,,,,,,,,,,,0,3,3,3,1,fourth,3,21,female,right,donders,2021-07-09_09h38.22.716,ImageRatingTask_S3,2021.1.4,Win32,60.02040694,,,,,,,,,
,,,,,,,,,,,,0,4,4,4,1,fifth,3,21,female,right,donders,2021-07-09_09h38.22.716,ImageRatingTask_S3,2021.1.4,Win32,60.02040694,,,,,,,,,
,,,,,,,,,,,,0,5,5,5,1,sixth,3,21,female,right,donders,2021-07-09_09h38.22.716,ImageRatingTask_S3,2021.1.4,Win32,60.02040694,,,,,,,,,
,,,,,,,,,,,,0,6,6,6,1,seventh,3,21,female,right,donders,2021-07-09_09h38.22.716,ImageRatingTask_S3,2021.1.4,Win32,60.02040694,,,,,,,,,
,,,,,,,,,,,,0,7,7,7,1,last,3,21,female,right,donders,2021-07-09_09h38.22.716,ImageRatingTask_S3,2021.1.4,Win32,60.02040694,,,,,,,,,
,,,,,,,,,,,,,,,,,,3,21,female,right,donders,2021-07-09_09h38.22.716,ImageRatingTask_S3,2021.1.4,Win32,60.02040694,0,38,38,127,1,DreamStudyImages_rs1000x750g/Vehicles/Car race 3.jpg,,,
,,4,2.0455,3,2.4864,8,1.8592,1,0.7079,2,0.7061,0,0,0,0,1,main,3,21,female,right,donders,2021-07-09_09h38.22.716,ImageRatingTask_S3,2021.1.4,Win32,60.02040694,,,,,,,,,
,,,,,,,,,,,,0,1,1,1,1,second,3,21,female,right,donders,2021-07-09_09h38.22.716,ImageRatingTask_S3,2021.1.4,Win32,60.02040694,,,,,,,,,
,,,,,,,,,,,,0,2,2,2,1,third,3,21,female,right,donders,2021-07-09_09h38.22.716,ImageRatingTask_S3,2021.1.4,Win32,60.02040694,,,,,,,,,
,,,,,,,,,,,,0,3,3,3,1,fourth,3,21,female,right,donders,2021-07-09_09h38.22.716,ImageRatingTask_S3,2021.1.4,Win32,60.02040694,,,,,,,,,
,,,,,,,,,,,,0,4,4,4,1,fifth,3,21,female,right,donders,2021-07-09_09h38.22.716,ImageRatingTask_S3,2021.1.4,Win32,60.02040694,,,,,,,,,
,,,,,,,,,,,,0,5,5,5,1,sixth,3,21,female,right,donders,2021-07-09_09h38.22.716,ImageRatingTask_S3,2021.1.4,Win32,60.02040694,,,,,,,,,
,,,,,,,,,,,,0,6,6,6,1,seventh,3,21,female,right,donders,2021-07-09_09h38.22.716,ImageRatingTask_S3,2021.1.4,Win32,60.02040694,,,,,,,,,
,,,,,,,,,,,,0,7,7,7,1,last,3,21,female,right,donders,2021-07-09_09h38.22.716,ImageRatingTask_S3,2021.1.4,Win32,60.02040694,,,,,,,,,
,,,,,,,,,,,,,,,,,,3,21,female,right,donders,2021-07-09_09h38.22.716,ImageRatingTask_S3,2021.1.4,Win32,60.02040694,0,39,39,4,1,DreamStudyImages_rs1000x750g/Children/Faces_034_h.jpg,,,
,,5,1.7889,1,0.2688,4,1.3324,1,1.1753,6,0.7439,0,0,0,0,1,main,3,21,female,right,donders,2021-07-09_09h38.22.716,ImageRatingTask_S3,2021.1.4,Win32,60.02040694,,,,,,,,,
,,,,,,,,,,,,0,1,1,1,1,second,3,21,female,right,donders,2021-07-09_09h38.22.716,ImageRatingTask_S3,2021.1.4,Win32,60.02040694,,,,,,,,,
,,,,,,,,,,,,0,2,2,2,1,third,3,21,female,right,donders,2021-07-09_09h38.22.716,ImageRatingTask_S3,2021.1.4,Win32,60.02040694,,,,,,,,,
,,,,,,,,,,,,0,3,3,3,1,fourth,3,21,female,right,donders,2021-07-09_09h38.22.716,ImageRatingTask_S3,2021.1.4,Win32,60.02040694,,,,,,,,,
,,,,,,,,,,,,0,4,4,4,1,fifth,3,21,female,right,donders,2021-07-09_09h38.22.716,ImageRatingTask_S3,2021.1.4,Win32,60.02040694,,,,,,,,,
,,,,,,,,,,,,0,5,5,5,1,sixth,3,21,female,right,donders,2021-07-09_09h38.22.716,ImageRatingTask_S3,2021.1.4,Win32,60.02040694,,,,,,,,,
,,,,,,,,,,,,0,6,6,6,1,seventh,3,21,female,right,donders,2021-07-09_09h38.22.716,ImageRatingTask_S3,2021.1.4,Win32,60.02040694,,,,,,,,,
,,,,,,,,,,,,0,7,7,7,1,last,3,21,female,right,donders,2021-07-09_09h38.22.716,ImageRatingTask_S3,2021.1.4,Win32,60.02040694,,,,,,,,,
,,,,,,,,,,,,,,,,,,3,21,female,right,donders,2021-07-09_09h38.22.716,ImageRatingTask_S3,2021.1.4,Win32,60.02040694,0,40,40,21,1,DreamStudyImages_rs1000x750g/Houses/IAPS5994_hotels_CROPPED.jpg,,,
,,5,6.6199,1,0.3393,9,1.2165,1,0.6529,7,0.6085,0,0,0,0,1,main,3,21,female,right,donders,2021-07-09_09h38.22.716,ImageRatingTask_S3,2021.1.4,Win32,60.02040694,,,,,,,,,
,,,,,,,,,,,,0,1,1,1,1,second,3,21,female,right,donders,2021-07-09_09h38.22.716,ImageRatingTask_S3,2021.1.4,Win32,60.02040694,,,,,,,,,
,,,,,,,,,,,,0,2,2,2,1,third,3,21,female,right,donders,2021-07-09_09h38.22.716,ImageRatingTask_S3,2021.1.4,Win32,60.02040694,,,,,,,,,
,,,,,,,,,,,,0,3,3,3,1,fourth,3,21,female,right,donders,2021-07-09_09h38.22.716,ImageRatingTask_S3,2021.1.4,Win32,60.02040694,,,,,,,,,
,,,,,,,,,,,,0,4,4,4,1,fifth,3,21,female,right,donders,2021-07-09_09h38.22.716,ImageRatingTask_S3,2021.1.4,Win32,60.02040694,,,,,,,,,
,,,,,,,,,,,,0,5,5,5,1,sixth,3,21,female,right,donders,2021-07-09_09h38.22.716,ImageRatingTask_S3,2021.1.4,Win32,60.02040694,,,,,,,,,
,,,,,,,,,,,,0,6,6,6,1,seventh,3,21,female,right,donders,2021-07-09_09h38.22.716,ImageRatingTask_S3,2021.1.4,Win32,60.02040694,,,,,,,,,
,,,,,,,,,,,,0,7,7,7,1,last,3,21,female,right,donders,2021-07-09_09h38.22.716,ImageRatingTask_S3,2021.1.4,Win32,60.02040694,,,,,,,,,
,,,,,,,,,,,,,,,,,,3,21,female,right,donders,2021-07-09_09h38.22.716,ImageRatingTask_S3,2021.1.4,Win32,60.02040694,0,41,41,70,1,DreamStudyImages_rs1000x750g/Vehicles/retrolocomotive.jpg,,,
,,7,1.8555,3,0.4022,8,1.637,1,1.0129,3,0.9562,0,0,0,0,1,main,3,21,female,right,donders,2021-07-09_09h38.22.716,ImageRatingTask_S3,2021.1.4,Win32,60.02040694,,,,,,,,,
,,,,,,,,,,,,0,1,1,1,1,second,3,21,female,right,donders,2021-07-09_09h38.22.716,ImageRatingTask_S3,2021.1.4,Win32,60.02040694,,,,,,,,,
,,,,,,,,,,,,0,2,2,2,1,third,3,21,female,right,donders,2021-07-09_09h38.22.716,ImageRatingTask_S3,2021.1.4,Win32,60.02040694,,,,,,,,,
,,,,,,,,,,,,0,3,3,3,1,fourth,3,21,female,right,donders,2021-07-09_09h38.22.716,ImageRatingTask_S3,2021.1.4,Win32,60.02040694,,,,,,,,,
,,,,,,,,,,,,0,4,4,4,1,fifth,3,21,female,right,donders,2021-07-09_09h38.22.716,ImageRatingTask_S3,2021.1.4,Win32,60.02040694,,,,,,,,,
,,,,,,,,,,,,0,5,5,5,1,sixth,3,21,female,right,donders,2021-07-09_09h38.22.716,ImageRatingTask_S3,2021.1.4,Win32,60.02040694,,,,,,,,,
,,,,,,,,,,,,0,6,6,6,1,seventh,3,21,female,right,donders,2021-07-09_09h38.22.716,ImageRatingTask_S3,2021.1.4,Win32,60.02040694,,,,,,,,,
,,,,,,,,,,,,0,7,7,7,1,last,3,21,female,right,donders,2021-07-09_09h38.22.716,ImageRatingTask_S3,2021.1.4,Win32,60.02040694,,,,,,,,,
,,,,,,,,,,,,,,,,,,3,21,female,right,donders,2021-07-09_09h38.22.716,ImageRatingTask_S3,2021.1.4,Win32,60.02040694,0,42,42,12,1,DreamStudyImages_rs1000x750g/Mammals/Animals_190_h.jpg,,,
,,6,3.384,2,0.1768,9,1.1082,1,0.7979,8,0.7011,0,0,0,0,1,main,3,21,female,right,donders,2021-07-09_09h38.22.716,ImageRatingTask_S3,2021.1.4,Win32,60.02040694,,,,,,,,,
,,,,,,,,,,,,0,1,1,1,1,second,3,21,female,right,donders,2021-07-09_09h38.22.716,ImageRatingTask_S3,2021.1.4,Win32,60.02040694,,,,,,,,,
,,,,,,,,,,,,0,2,2,2,1,third,3,21,female,right,donders,2021-07-09_09h38.22.716,ImageRatingTask_S3,2021.1.4,Win32,60.02040694,,,,,,,,,
,,,,,,,,,,,,0,3,3,3,1,fourth,3,21,female,right,donders,2021-07-09_09h38.22.716,ImageRatingTask_S3,2021.1.4,Win32,60.02040694,,,,,,,,,
,,,,,,,,,,,,0,4,4,4,1,fifth,3,21,female,right,donders,2021-07-09_09h38.22.716,ImageRatingTask_S3,2021.1.4,Win32,60.02040694,,,,,,,,,
,,,,,,,,,,,,0,5,5,5,1,sixth,3,21,female,right,donders,2021-07-09_09h38.22.716,ImageRatingTask_S3,2021.1.4,Win32,60.02040694,,,,,,,,,
,,,,,,,,,,,,0,6,6,6,1,seventh,3,21,female,right,donders,2021-07-09_09h38.22.716,ImageRatingTask_S3,2021.1.4,Win32,60.02040694,,,,,,,,,
,,,,,,,,,,,,0,7,7,7,1,last,3,21,female,right,donders,2021-07-09_09h38.22.716,ImageRatingTask_S3,2021.1.4,Win32,60.02040694,,,,,,,,,
,,,,,,,,,,,,,,,,,,3,21,female,right,donders,2021-07-09_09h38.22.716,ImageRatingTask_S3,2021.1.4,Win32,60.02040694,0,43,43,71,1,DreamStudyImages_rs1000x750g/Water/Waterfall 1.jpg,,,
,,4,6.5641,2,0.5579,9,3.5019,1,0.8646,5,0.8062,0,0,0,0,1,main,3,21,female,right,donders,2021-07-09_09h38.22.716,ImageRatingTask_S3,2021.1.4,Win32,60.02040694,,,,,,,,,
,,,,,,,,,,,,0,1,1,1,1,second,3,21,female,right,donders,2021-07-09_09h38.22.716,ImageRatingTask_S3,2021.1.4,Win32,60.02040694,,,,,,,,,
,,,,,,,,,,,,0,2,2,2,1,third,3,21,female,right,donders,2021-07-09_09h38.22.716,ImageRatingTask_S3,2021.1.4,Win32,60.02040694,,,,,,,,,
,,,,,,,,,,,,0,3,3,3,1,fourth,3,21,female,right,donders,2021-07-09_09h38.22.716,ImageRatingTask_S3,2021.1.4,Win32,60.02040694,,,,,,,,,
,,,,,,,,,,,,0,4,4,4,1,fifth,3,21,female,right,donders,2021-07-09_09h38.22.716,ImageRatingTask_S3,2021.1.4,Win32,60.02040694,,,,,,,,,
,,,,,,,,,,,,0,5,5,5,1,sixth,3,21,female,right,donders,2021-07-09_09h38.22.716,ImageRatingTask_S3,2021.1.4,Win32,60.02040694,,,,,,,,,
,,,,,,,,,,,,0,6,6,6,1,seventh,3,21,female,right,donders,2021-07-09_09h38.22.716,ImageRatingTask_S3,2021.1.4,Win32,60.02040694,,,,,,,,,
,,,,,,,,,,,,0,7,7,7,1,last,3,21,female,right,donders,2021-07-09_09h38.22.716,ImageRatingTask_S3,2021.1.4,Win32,60.02040694,,,,,,,,,
,,,,,,,,,,,,,,,,,,3,21,female,right,donders,2021-07-09_09h38.22.716,ImageRatingTask_S3,2021.1.4,Win32,60.02040694,0,44,44,117,1,DreamStudyImages_rs1000x750g/Food/Objects_020_h.jpg,,,
,,4,2.7694,3,0.3042,9,1.9929,1,0.7297,8,0.5784,0,0,0,0,1,main,3,21,female,right,donders,2021-07-09_09h38.22.716,ImageRatingTask_S3,2021.1.4,Win32,60.02040694,,,,,,,,,
,,,,,,,,,,,,0,1,1,1,1,second,3,21,female,right,donders,2021-07-09_09h38.22.716,ImageRatingTask_S3,2021.1.4,Win32,60.02040694,,,,,,,,,
,,,,,,,,,,,,0,2,2,2,1,third,3,21,female,right,donders,2021-07-09_09h38.22.716,ImageRatingTask_S3,2021.1.4,Win32,60.02040694,,,,,,,,,
,,,,,,,,,,,,0,3,3,3,1,fourth,3,21,female,right,donders,2021-07-09_09h38.22.716,ImageRatingTask_S3,2021.1.4,Win32,60.02040694,,,,,,,,,
,,,,,,,,,,,,0,4,4,4,1,fifth,3,21,female,right,donders,2021-07-09_09h38.22.716,ImageRatingTask_S3,2021.1.4,Win32,60.02040694,,,,,,,,,
,,,,,,,,,,,,0,5,5,5,1,sixth,3,21,female,right,donders,2021-07-09_09h38.22.716,ImageRatingTask_S3,2021.1.4,Win32,60.02040694,,,,,,,,,
,,,,,,,,,,,,0,6,6,6,1,seventh,3,21,female,right,donders,2021-07-09_09h38.22.716,ImageRatingTask_S3,2021.1.4,Win32,60.02040694,,,,,,,,,
,,,,,,,,,,,,0,7,7,7,1,last,3,21,female,right,donders,2021-07-09_09h38.22.716,ImageRatingTask_S3,2021.1.4,Win32,60.02040694,,,,,,,,,
,,,,,,,,,,,,,,,,,,3,21,female,right,donders,2021-07-09_09h38.22.716,ImageRatingTask_S3,2021.1.4,Win32,60.02040694,0,45,45,141,1,DreamStudyImages_rs1000x750g/Water/water_neg_5.jpg,,,
,,5,4.0855,1,0.1228,9,1.4705,1,0.5758,6,0.8302,0,0,0,0,1,main,3,21,female,right,donders,2021-07-09_09h38.22.716,ImageRatingTask_S3,2021.1.4,Win32,60.02040694,,,,,,,,,
,,,,,,,,,,,,0,1,1,1,1,second,3,21,female,right,donders,2021-07-09_09h38.22.716,ImageRatingTask_S3,2021.1.4,Win32,60.02040694,,,,,,,,,
,,,,,,,,,,,,0,2,2,2,1,third,3,21,female,right,donders,2021-07-09_09h38.22.716,ImageRatingTask_S3,2021.1.4,Win32,60.02040694,,,,,,,,,
,,,,,,,,,,,,0,3,3,3,1,fourth,3,21,female,right,donders,2021-07-09_09h38.22.716,ImageRatingTask_S3,2021.1.4,Win32,60.02040694,,,,,,,,,
,,,,,,,,,,,,0,4,4,4,1,fifth,3,21,female,right,donders,2021-07-09_09h38.22.716,ImageRatingTask_S3,2021.1.4,Win32,60.02040694,,,,,,,,,
,,,,,,,,,,,,0,5,5,5,1,sixth,3,21,female,right,donders,2021-07-09_09h38.22.716,ImageRatingTask_S3,2021.1.4,Win32,60.02040694,,,,,,,,,
,,,,,,,,,,,,0,6,6,6,1,seventh,3,21,female,right,donders,2021-07-09_09h38.22.716,ImageRatingTask_S3,2021.1.4,Win32,60.02040694,,,,,,,,,
,,,,,,,,,,,,0,7,7,7,1,last,3,21,female,right,donders,2021-07-09_09h38.22.716,ImageRatingTask_S3,2021.1.4,Win32,60.02040694,,,,,,,,,
,,,,,,,,,,,,,,,,,,3,21,female,right,donders,2021-07-09_09h38.22.716,ImageRatingTask_S3,2021.1.4,Win32,60.02040694,0,46,46,137,1,DreamStudyImages_rs1000x750g/Houses/Landscapes_011_h.jpg,,,
,,5,1.7364,1,0.1977,9,1.517,1,0.7912,8,0.6288,0,0,0,0,1,main,3,21,female,right,donders,2021-07-09_09h38.22.716,ImageRatingTask_S3,2021.1.4,Win32,60.02040694,,,,,,,,,
,,,,,,,,,,,,0,1,1,1,1,second,3,21,female,right,donders,2021-07-09_09h38.22.716,ImageRatingTask_S3,2021.1.4,Win32,60.02040694,,,,,,,,,
,,,,,,,,,,,,0,2,2,2,1,third,3,21,female,right,donders,2021-07-09_09h38.22.716,ImageRatingTask_S3,2021.1.4,Win32,60.02040694,,,,,,,,,
,,,,,,,,,,,,0,3,3,3,1,fourth,3,21,female,right,donders,2021-07-09_09h38.22.716,ImageRatingTask_S3,2021.1.4,Win32,60.02040694,,,,,,,,,
,,,,,,,,,,,,0,4,4,4,1,fifth,3,21,female,right,donders,2021-07-09_09h38.22.716,ImageRatingTask_S3,2021.1.4,Win32,60.02040694,,,,,,,,,
,,,,,,,,,,,,0,5,5,5,1,sixth,3,21,female,right,donders,2021-07-09_09h38.22.716,ImageRatingTask_S3,2021.1.4,Win32,60.02040694,,,,,,,,,
,,,,,,,,,,,,0,6,6,6,1,seventh,3,21,female,right,donders,2021-07-09_09h38.22.716,ImageRatingTask_S3,2021.1.4,Win32,60.02040694,,,,,,,,,
,,,,,,,,,,,,0,7,7,7,1,last,3,21,female,right,donders,2021-07-09_09h38.22.716,ImageRatingTask_S3,2021.1.4,Win32,60.02040694,,,,,,,,,
,,,,,,,,,,,,,,,,,,3,21,female,right,donders,2021-07-09_09h38.22.716,ImageRatingTask_S3,2021.1.4,Win32,60.02040694,0,47,47,18,1,DreamStudyImages_rs1000x750g/Water/rockylake.jpg,,,
,,5,2.8264,1,0.5301,9,0.9613,1,0.3587,8,0.6263,0,0,0,0,1,main,3,21,female,right,donders,2021-07-09_09h38.22.716,ImageRatingTask_S3,2021.1.4,Win32,60.02040694,,,,,,,,,
,,,,,,,,,,,,0,1,1,1,1,second,3,21,female,right,donders,2021-07-09_09h38.22.716,ImageRatingTask_S3,2021.1.4,Win32,60.02040694,,,,,,,,,
,,,,,,,,,,,,0,2,2,2,1,third,3,21,female,right,donders,2021-07-09_09h38.22.716,ImageRatingTask_S3,2021.1.4,Win32,60.02040694,,,,,,,,,
,,,,,,,,,,,,0,3,3,3,1,fourth,3,21,female,right,donders,2021-07-09_09h38.22.716,ImageRatingTask_S3,2021.1.4,Win32,60.02040694,,,,,,,,,
,,,,,,,,,,,,0,4,4,4,1,fifth,3,21,female,right,donders,2021-07-09_09h38.22.716,ImageRatingTask_S3,2021.1.4,Win32,60.02040694,,,,,,,,,
,,,,,,,,,,,,0,5,5,5,1,sixth,3,21,female,right,donders,2021-07-09_09h38.22.716,ImageRatingTask_S3,2021.1.4,Win32,60.02040694,,,,,,,,,
,,,,,,,,,,,,0,6,6,6,1,seventh,3,21,female,right,donders,2021-07-09_09h38.22.716,ImageRatingTask_S3,2021.1.4,Win32,60.02040694,,,,,,,,,
,,,,,,,,,,,,0,7,7,7,1,last,3,21,female,right,donders,2021-07-09_09h38.22.716,ImageRatingTask_S3,2021.1.4,Win32,60.02040694,,,,,,,,,
,,,,,,,,,,,,,,,,,,3,21,female,right,donders,2021-07-09_09h38.22.716,ImageRatingTask_S3,2021.1.4,Win32,60.02040694,0,48,48,119,1,DreamStudyImages_rs1000x750g/Water/Landscapes_148_h.jpg,,,
,,4,4.9396,3,0.6996,7,1.7415,1,1.2263,6,1.3607,0,0,0,0,1,main,3,21,female,right,donders,2021-07-09_09h38.22.716,ImageRatingTask_S3,2021.1.4,Win32,60.02040694,,,,,,,,,
,,,,,,,,,,,,0,1,1,1,1,second,3,21,female,right,donders,2021-07-09_09h38.22.716,ImageRatingTask_S3,2021.1.4,Win32,60.02040694,,,,,,,,,
,,,,,,,,,,,,0,2,2,2,1,third,3,21,female,right,donders,2021-07-09_09h38.22.716,ImageRatingTask_S3,2021.1.4,Win32,60.02040694,,,,,,,,,
,,,,,,,,,,,,0,3,3,3,1,fourth,3,21,female,right,donders,2021-07-09_09h38.22.716,ImageRatingTask_S3,2021.1.4,Win32,60.02040694,,,,,,,,,
,,,,,,,,,,,,0,4,4,4,1,fifth,3,21,female,right,donders,2021-07-09_09h38.22.716,ImageRatingTask_S3,2021.1.4,Win32,60.02040694,,,,,,,,,
,,,,,,,,,,,,0,5,5,5,1,sixth,3,21,female,right,donders,2021-07-09_09h38.22.716,ImageRatingTask_S3,2021.1.4,Win32,60.02040694,,,,,,,,,
,,,,,,,,,,,,0,6,6,6,1,seventh,3,21,female,right,donders,2021-07-09_09h38.22.716,ImageRatingTask_S3,2021.1.4,Win32,60.02040694,,,,,,,,,
,,,,,,,,,,,,0,7,7,7,1,last,3,21,female,right,donders,2021-07-09_09h38.22.716,ImageRatingTask_S3,2021.1.4,Win32,60.02040694,,,,,,,,,
,,,,,,,,,,,,,,,,,,3,21,female,right,donders,2021-07-09_09h38.22.716,ImageRatingTask_S3,2021.1.4,Win32,60.02040694,0,49,49,149,1,DreamStudyImages_rs1000x750g/Houses/Jail 3.jpg,,,
,,5,75.1222,1,1.0466,9,1.049,1,0.5141,3,0.7373,0,0,0,0,1,main,3,21,female,right,donders,2021-07-09_09h38.22.716,ImageRatingTask_S3,2021.1.4,Win32,60.02040694,,,,,,,,,
,,,,,,,,,,,,0,1,1,1,1,second,3,21,female,right,donders,2021-07-09_09h38.22.716,ImageRatingTask_S3,2021.1.4,Win32,60.02040694,,,,,,,,,
,,,,,,,,,,,,0,2,2,2,1,third,3,21,female,right,donders,2021-07-09_09h38.22.716,ImageRatingTask_S3,2021.1.4,Win32,60.02040694,,,,,,,,,
,,,,,,,,,,,,0,3,3,3,1,fourth,3,21,female,right,donders,2021-07-09_09h38.22.716,ImageRatingTask_S3,2021.1.4,Win32,60.02040694,,,,,,,,,
,,,,,,,,,,,,0,4,4,4,1,fifth,3,21,female,right,donders,2021-07-09_09h38.22.716,ImageRatingTask_S3,2021.1.4,Win32,60.02040694,,,,,,,,,
,,,,,,,,,,,,0,5,5,5,1,sixth,3,21,female,right,donders,2021-07-09_09h38.22.716,ImageRatingTask_S3,2021.1.4,Win32,60.02040694,,,,,,,,,
,,,,,,,,,,,,0,6,6,6,1,seventh,3,21,female,right,donders,2021-07-09_09h38.22.716,ImageRatingTask_S3,2021.1.4,Win32,60.02040694,,,,,,,,,
,,,,,,,,,,,,0,7,7,7,1,last,3,21,female,right,donders,2021-07-09_09h38.22.716,ImageRatingTask_S3,2021.1.4,Win32,60.02040694,,,,,,,,,
,,,,,,,,,,,,,,,,,,3,21,female,right,donders,2021-07-09_09h38.22.716,ImageRatingTask_S3,2021.1.4,Win32,60.02040694,0,50,50,107,1,DreamStudyImages_rs1000x750g/Mammals/Animals_097_h.jpg,,,
,,5,1.5298,1,0.4708,7,0.9177,1,0.5327,6,1.2344,0,0,0,0,1,main,3,21,female,right,donders,2021-07-09_09h38.22.716,ImageRatingTask_S3,2021.1.4,Win32,60.02040694,,,,,,,,,
,,,,,,,,,,,,0,1,1,1,1,second,3,21,female,right,donders,2021-07-09_09h38.22.716,ImageRatingTask_S3,2021.1.4,Win32,60.02040694,,,,,,,,,
,,,,,,,,,,,,0,2,2,2,1,third,3,21,female,right,donders,2021-07-09_09h38.22.716,ImageRatingTask_S3,2021.1.4,Win32,60.02040694,,,,,,,,,
,,,,,,,,,,,,0,3,3,3,1,fourth,3,21,female,right,donders,2021-07-09_09h38.22.716,ImageRatingTask_S3,2021.1.4,Win32,60.02040694,,,,,,,,,
,,,,,,,,,,,,0,4,4,4,1,fifth,3,21,female,right,donders,2021-07-09_09h38.22.716,ImageRatingTask_S3,2021.1.4,Win32,60.02040694,,,,,,,,,
,,,,,,,,,,,,0,5,5,5,1,sixth,3,21,female,right,donders,2021-07-09_09h38.22.716,ImageRatingTask_S3,2021.1.4,Win32,60.02040694,,,,,,,,,
,,,,,,,,,,,,0,6,6,6,1,seventh,3,21,female,right,donders,2021-07-09_09h38.22.716,ImageRatingTask_S3,2021.1.4,Win32,60.02040694,,,,,,,,,
,,,,,,,,,,,,0,7,7,7,1,last,3,21,female,right,donders,2021-07-09_09h38.22.716,ImageRatingTask_S3,2021.1.4,Win32,60.02040694,,,,,,,,,
,,,,,,,,,,,,,,,,,,3,21,female,right,donders,2021-07-09_09h38.22.716,ImageRatingTask_S3,2021.1.4,Win32,60.02040694,0,51,51,58,1,DreamStudyImages_rs1000x750g/Houses/Landscapes_018_h_CROPPED.jpg,,,
,,4,3.9643,2,0.7785,9,1.5086,1,1.7858,6,0.99,0,0,0,0,1,main,3,21,female,right,donders,2021-07-09_09h38.22.716,ImageRatingTask_S3,2021.1.4,Win32,60.02040694,,,,,,,,,
,,,,,,,,,,,,0,1,1,1,1,second,3,21,female,right,donders,2021-07-09_09h38.22.716,ImageRatingTask_S3,2021.1.4,Win32,60.02040694,,,,,,,,,
,,,,,,,,,,,,0,2,2,2,1,third,3,21,female,right,donders,2021-07-09_09h38.22.716,ImageRatingTask_S3,2021.1.4,Win32,60.02040694,,,,,,,,,
,,,,,,,,,,,,0,3,3,3,1,fourth,3,21,female,right,donders,2021-07-09_09h38.22.716,ImageRatingTask_S3,2021.1.4,Win32,60.02040694,,,,,,,,,
,,,,,,,,,,,,0,4,4,4,1,fifth,3,21,female,right,donders,2021-07-09_09h38.22.716,ImageRatingTask_S3,2021.1.4,Win32,60.02040694,,,,,,,,,
,,,,,,,,,,,,0,5,5,5,1,sixth,3,21,female,right,donders,2021-07-09_09h38.22.716,ImageRatingTask_S3,2021.1.4,Win32,60.02040694,,,,,,,,,
,,,,,,,,,,,,0,6,6,6,1,seventh,3,21,female,right,donders,2021-07-09_09h38.22.716,ImageRatingTask_S3,2021.1.4,Win32,60.02040694,,,,,,,,,
,,,,,,,,,,,,0,7,7,7,1,last,3,21,female,right,donders,2021-07-09_09h38.22.716,ImageRatingTask_S3,2021.1.4,Win32,60.02040694,,,,,,,,,
,,,,,,,,,,,,,,,,,,3,21,female,right,donders,2021-07-09_09h38.22.716,ImageRatingTask_S3,2021.1.4,Win32,60.02040694,0,52,52,31,1,DreamStudyImages_rs1000x750g/Houses/NDPS114_houses10.jpg,,,
,,6,2.1301,2,0.3446,8,1.6143,1,0.9472,2,0.7057,0,0,0,0,1,main,3,21,female,right,donders,2021-07-09_09h38.22.716,ImageRatingTask_S3,2021.1.4,Win32,60.02040694,,,,,,,,,
,,,,,,,,,,,,0,1,1,1,1,second,3,21,female,right,donders,2021-07-09_09h38.22.716,ImageRatingTask_S3,2021.1.4,Win32,60.02040694,,,,,,,,,
,,,,,,,,,,,,0,2,2,2,1,third,3,21,female,right,donders,2021-07-09_09h38.22.716,ImageRatingTask_S3,2021.1.4,Win32,60.02040694,,,,,,,,,
,,,,,,,,,,,,0,3,3,3,1,fourth,3,21,female,right,donders,2021-07-09_09h38.22.716,ImageRatingTask_S3,2021.1.4,Win32,60.02040694,,,,,,,,,
,,,,,,,,,,,,0,4,4,4,1,fifth,3,21,female,right,donders,2021-07-09_09h38.22.716,ImageRatingTask_S3,2021.1.4,Win32,60.02040694,,,,,,,,,
,,,,,,,,,,,,0,5,5,5,1,sixth,3,21,female,right,donders,2021-07-09_09h38.22.716,ImageRatingTask_S3,2021.1.4,Win32,60.02040694,,,,,,,,,
,,,,,,,,,,,,0,6,6,6,1,seventh,3,21,female,right,donders,2021-07-09_09h38.22.716,ImageRatingTask_S3,2021.1.4,Win32,60.02040694,,,,,,,,,
,,,,,,,,,,,,0,7,7,7,1,last,3,21,female,right,donders,2021-07-09_09h38.22.716,ImageRatingTask_S3,2021.1.4,Win32,60.02040694,,,,,,,,,
,,,,,,,,,,,,,,,,,,3,21,female,right,donders,2021-07-09_09h38.22.716,ImageRatingTask_S3,2021.1.4,Win32,60.02040694,0,53,53,54,1,DreamStudyImages_rs1000x750g/Children/Faces_076_h.jpg,,,
,,6,8.2474,2,2.0546,9,1.2933,1,0.9109,5,1.0076,0,0,0,0,1,main,3,21,female,right,donders,2021-07-09_09h38.22.716,ImageRatingTask_S3,2021.1.4,Win32,60.02040694,,,,,,,,,
,,,,,,,,,,,,0,1,1,1,1,second,3,21,female,right,donders,2021-07-09_09h38.22.716,ImageRatingTask_S3,2021.1.4,Win32,60.02040694,,,,,,,,,
,,,,,,,,,,,,0,2,2,2,1,third,3,21,female,right,donders,2021-07-09_09h38.22.716,ImageRatingTask_S3,2021.1.4,Win32,60.02040694,,,,,,,,,
,,,,,,,,,,,,0,3,3,3,1,fourth,3,21,female,right,donders,2021-07-09_09h38.22.716,ImageRatingTask_S3,2021.1.4,Win32,60.02040694,,,,,,,,,
,,,,,,,,,,,,0,4,4,4,1,fifth,3,21,female,right,donders,2021-07-09_09h38.22.716,ImageRatingTask_S3,2021.1.4,Win32,60.02040694,,,,,,,,,
,,,,,,,,,,,,0,5,5,5,1,sixth,3,21,female,right,donders,2021-07-09_09h38.22.716,ImageRatingTask_S3,2021.1.4,Win32,60.02040694,,,,,,,,,
,,,,,,,,,,,,0,6,6,6,1,seventh,3,21,female,right,donders,2021-07-09_09h38.22.716,ImageRatingTask_S3,2021.1.4,Win32,60.02040694,,,,,,,,,
,,,,,,,,,,,,0,7,7,7,1,last,3,21,female,right,donders,2021-07-09_09h38.22.716,ImageRatingTask_S3,2021.1.4,Win32,60.02040694,,,,,,,,,
,,,,,,,,,,,,,,,,,,3,21,female,right,donders,2021-07-09_09h38.22.716,ImageRatingTask_S3,2021.1.4,Win32,60.02040694,0,54,54,2,1,DreamStudyImages_rs1000x750g/Food/Objects_092_v.jpg,,,
,,4,4.1289,2,2.321,8,1.6013,1,0.8602,2,0.9239,0,0,0,0,1,main,3,21,female,right,donders,2021-07-09_09h38.22.716,ImageRatingTask_S3,2021.1.4,Win32,60.02040694,,,,,,,,,
,,,,,,,,,,,,0,1,1,1,1,second,3,21,female,right,donders,2021-07-09_09h38.22.716,ImageRatingTask_S3,2021.1.4,Win32,60.02040694,,,,,,,,,
,,,,,,,,,,,,0,2,2,2,1,third,3,21,female,right,donders,2021-07-09_09h38.22.716,ImageRatingTask_S3,2021.1.4,Win32,60.02040694,,,,,,,,,
,,,,,,,,,,,,0,3,3,3,1,fourth,3,21,female,right,donders,2021-07-09_09h38.22.716,ImageRatingTask_S3,2021.1.4,Win32,60.02040694,,,,,,,,,
,,,,,,,,,,,,0,4,4,4,1,fifth,3,21,female,right,donders,2021-07-09_09h38.22.716,ImageRatingTask_S3,2021.1.4,Win32,60.02040694,,,,,,,,,
,,,,,,,,,,,,0,5,5,5,1,sixth,3,21,female,right,donders,2021-07-09_09h38.22.716,ImageRatingTask_S3,2021.1.4,Win32,60.02040694,,,,,,,,,
,,,,,,,,,,,,0,6,6,6,1,seventh,3,21,female,right,donders,2021-07-09_09h38.22.716,ImageRatingTask_S3,2021.1.4,Win32,60.02040694,,,,,,,,,
,,,,,,,,,,,,0,7,7,7,1,last,3,21,female,right,donders,2021-07-09_09h38.22.716,ImageRatingTask_S3,2021.1.4,Win32,60.02040694,,,,,,,,,
,,,,,,,,,,,,,,,,,,3,21,female,right,donders,2021-07-09_09h38.22.716,ImageRatingTask_S3,2021.1.4,Win32,60.02040694,0,55,55,115,1,DreamStudyImages_rs1000x750g/Children/Faces_003_h.jpg,,,
,,8,2.0276,3,1.3095,9,2.1244,1,1.5184,3,1.4967,0,0,0,0,1,main,3,21,female,right,donders,2021-07-09_09h38.22.716,ImageRatingTask_S3,2021.1.4,Win32,60.02040694,,,,,,,,,
,,,,,,,,,,,,0,1,1,1,1,second,3,21,female,right,donders,2021-07-09_09h38.22.716,ImageRatingTask_S3,2021.1.4,Win32,60.02040694,,,,,,,,,
,,,,,,,,,,,,0,2,2,2,1,third,3,21,female,right,donders,2021-07-09_09h38.22.716,ImageRatingTask_S3,2021.1.4,Win32,60.02040694,,,,,,,,,
,,,,,,,,,,,,0,3,3,3,1,fourth,3,21,female,right,donders,2021-07-09_09h38.22.716,ImageRatingTask_S3,2021.1.4,Win32,60.02040694,,,,,,,,,
,,,,,,,,,,,,0,4,4,4,1,fifth,3,21,female,right,donders,2021-07-09_09h38.22.716,ImageRatingTask_S3,2021.1.4,Win32,60.02040694,,,,,,,,,
,,,,,,,,,,,,0,5,5,5,1,sixth,3,21,female,right,donders,2021-07-09_09h38.22.716,ImageRatingTask_S3,2021.1.4,Win32,60.02040694,,,,,,,,,
,,,,,,,,,,,,0,6,6,6,1,seventh,3,21,female,right,donders,2021-07-09_09h38.22.716,ImageRatingTask_S3,2021.1.4,Win32,60.02040694,,,,,,,,,
,,,,,,,,,,,,0,7,7,7,1,last,3,21,female,right,donders,2021-07-09_09h38.22.716,ImageRatingTask_S3,2021.1.4,Win32,60.02040694,,,,,,,,,
,,,,,,,,,,,,,,,,,,3,21,female,right,donders,2021-07-09_09h38.22.716,ImageRatingTask_S3,2021.1.4,Win32,60.02040694,0,56,56,45,1,DreamStudyImages_rs1000x750g/Mammals/IAPS1441_polarbear.jpg,,,
,,3,2.5873,3,0.5214,8,1.4249,1,0.4175,3,0.9588,0,0,0,0,1,main,3,21,female,right,donders,2021-07-09_09h38.22.716,ImageRatingTask_S3,2021.1.4,Win32,60.02040694,,,,,,,,,
,,,,,,,,,,,,0,1,1,1,1,second,3,21,female,right,donders,2021-07-09_09h38.22.716,ImageRatingTask_S3,2021.1.4,Win32,60.02040694,,,,,,,,,
,,,,,,,,,,,,0,2,2,2,1,third,3,21,female,right,donders,2021-07-09_09h38.22.716,ImageRatingTask_S3,2021.1.4,Win32,60.02040694,,,,,,,,,
,,,,,,,,,,,,0,3,3,3,1,fourth,3,21,female,right,donders,2021-07-09_09h38.22.716,ImageRatingTask_S3,2021.1.4,Win32,60.02040694,,,,,,,,,
,,,,,,,,,,,,0,4,4,4,1,fifth,3,21,female,right,donders,2021-07-09_09h38.22.716,ImageRatingTask_S3,2021.1.4,Win32,60.02040694,,,,,,,,,
,,,,,,,,,,,,0,5,5,5,1,sixth,3,21,female,right,donders,2021-07-09_09h38.22.716,ImageRatingTask_S3,2021.1.4,Win32,60.02040694,,,,,,,,,
,,,,,,,,,,,,0,6,6,6,1,seventh,3,21,female,right,donders,2021-07-09_09h38.22.716,ImageRatingTask_S3,2021.1.4,Win32,60.02040694,,,,,,,,,
,,,,,,,,,,,,0,7,7,7,1,last,3,21,female,right,donders,2021-07-09_09h38.22.716,ImageRatingTask_S3,2021.1.4,Win32,60.02040694,,,,,,,,,
,,,,,,,,,,,,,,,,,,3,21,female,right,donders,2021-07-09_09h38.22.716,ImageRatingTask_S3,2021.1.4,Win32,60.02040694,0,57,57,112,1,DreamStudyImages_rs1000x750g/Mammals/Animals_054_h_CHECK.jpg,,,
,,5,2.0969,1,0.3553,7,0.7271,1,1.0335,7,0.6917,0,0,0,0,1,main,3,21,female,right,donders,2021-07-09_09h38.22.716,ImageRatingTask_S3,2021.1.4,Win32,60.02040694,,,,,,,,,
,,,,,,,,,,,,0,1,1,1,1,second,3,21,female,right,donders,2021-07-09_09h38.22.716,ImageRatingTask_S3,2021.1.4,Win32,60.02040694,,,,,,,,,
,,,,,,,,,,,,0,2,2,2,1,third,3,21,female,right,donders,2021-07-09_09h38.22.716,ImageRatingTask_S3,2021.1.4,Win32,60.02040694,,,,,,,,,
,,,,,,,,,,,,0,3,3,3,1,fourth,3,21,female,right,donders,2021-07-09_09h38.22.716,ImageRatingTask_S3,2021.1.4,Win32,60.02040694,,,,,,,,,
,,,,,,,,,,,,0,4,4,4,1,fifth,3,21,female,right,donders,2021-07-09_09h38.22.716,ImageRatingTask_S3,2021.1.4,Win32,60.02040694,,,,,,,,,
,,,,,,,,,,,,0,5,5,5,1,sixth,3,21,female,right,donders,2021-07-09_09h38.22.716,ImageRatingTask_S3,2021.1.4,Win32,60.02040694,,,,,,,,,
,,,,,,,,,,,,0,6,6,6,1,seventh,3,21,female,right,donders,2021-07-09_09h38.22.716,ImageRatingTask_S3,2021.1.4,Win32,60.02040694,,,,,,,,,
,,,,,,,,,,,,0,7,7,7,1,last,3,21,female,right,donders,2021-07-09_09h38.22.716,ImageRatingTask_S3,2021.1.4,Win32,60.02040694,,,,,,,,,
,,,,,,,,,,,,,,,,,,3,21,female,right,donders,2021-07-09_09h38.22.716,ImageRatingTask_S3,2021.1.4,Win32,60.02040694,0,58,58,150,1,DreamStudyImages_rs1000x750g/Vehicles/IAPS9912_abandonedcar.jpg,,,
,,4,8.5433,2,0.3385,8,1.5119,1,3.7176,5,1.1661,0,0,0,0,1,main,3,21,female,right,donders,2021-07-09_09h38.22.716,ImageRatingTask_S3,2021.1.4,Win32,60.02040694,,,,,,,,,
,,,,,,,,,,,,0,1,1,1,1,second,3,21,female,right,donders,2021-07-09_09h38.22.716,ImageRatingTask_S3,2021.1.4,Win32,60.02040694,,,,,,,,,
,,,,,,,,,,,,0,2,2,2,1,third,3,21,female,right,donders,2021-07-09_09h38.22.716,ImageRatingTask_S3,2021.1.4,Win32,60.02040694,,,,,,,,,
,,,,,,,,,,,,0,3,3,3,1,fourth,3,21,female,right,donders,2021-07-09_09h38.22.716,ImageRatingTask_S3,2021.1.4,Win32,60.02040694,,,,,,,,,
,,,,,,,,,,,,0,4,4,4,1,fifth,3,21,female,right,donders,2021-07-09_09h38.22.716,ImageRatingTask_S3,2021.1.4,Win32,60.02040694,,,,,,,,,
,,,,,,,,,,,,0,5,5,5,1,sixth,3,21,female,right,donders,2021-07-09_09h38.22.716,ImageRatingTask_S3,2021.1.4,Win32,60.02040694,,,,,,,,,
,,,,,,,,,,,,0,6,6,6,1,seventh,3,21,female,right,donders,2021-07-09_09h38.22.716,ImageRatingTask_S3,2021.1.4,Win32,60.02040694,,,,,,,,,
,,,,,,,,,,,,0,7,7,7,1,last,3,21,female,right,donders,2021-07-09_09h38.22.716,ImageRatingTask_S3,2021.1.4,Win32,60.02040694,,,,,,,,,
,,,,,,,,,,,,,,,,,,3,21,female,right,donders,2021-07-09_09h38.22.716,ImageRatingTask_S3,2021.1.4,Win32,60.02040694,0,59,59,88,1,DreamStudyImages_rs1000x750g/Food/Objects_133_h.jpg,,,
,,5,1.9822,1,0.1347,8,0.8429,1,0.3623,5,1.7474,0,0,0,0,1,main,3,21,female,right,donders,2021-07-09_09h38.22.716,ImageRatingTask_S3,2021.1.4,Win32,60.02040694,,,,,,,,,
,,,,,,,,,,,,0,1,1,1,1,second,3,21,female,right,donders,2021-07-09_09h38.22.716,ImageRatingTask_S3,2021.1.4,Win32,60.02040694,,,,,,,,,
,,,,,,,,,,,,0,2,2,2,1,third,3,21,female,right,donders,2021-07-09_09h38.22.716,ImageRatingTask_S3,2021.1.4,Win32,60.02040694,,,,,,,,,
,,,,,,,,,,,,0,3,3,3,1,fourth,3,21,female,right,donders,2021-07-09_09h38.22.716,ImageRatingTask_S3,2021.1.4,Win32,60.02040694,,,,,,,,,
,,,,,,,,,,,,0,4,4,4,1,fifth,3,21,female,right,donders,2021-07-09_09h38.22.716,ImageRatingTask_S3,2021.1.4,Win32,60.02040694,,,,,,,,,
,,,,,,,,,,,,0,5,5,5,1,sixth,3,21,female,right,donders,2021-07-09_09h38.22.716,ImageRatingTask_S3,2021.1.4,Win32,60.02040694,,,,,,,,,
,,,,,,,,,,,,0,6,6,6,1,seventh,3,21,female,right,donders,2021-07-09_09h38.22.716,ImageRatingTask_S3,2021.1.4,Win32,60.02040694,,,,,,,,,
,,,,,,,,,,,,0,7,7,7,1,last,3,21,female,right,donders,2021-07-09_09h38.22.716,ImageRatingTask_S3,2021.1.4,Win32,60.02040694,,,,,,,,,
,,,,,,,,,,,,,,,,,,3,21,female,right,donders,2021-07-09_09h38.22.716,ImageRatingTask_S3,2021.1.4,Win32,60.02040694,0,60,60,46,1,DreamStudyImages_rs1000x750g/Food/Dessert 4.jpg,,,
,,4,2.7806,2,0.6472,8,1.0322,1,1.3872,4,1.4456,0,0,0,0,1,main,3,21,female,right,donders,2021-07-09_09h38.22.716,ImageRatingTask_S3,2021.1.4,Win32,60.02040694,,,,,,,,,
,,,,,,,,,,,,0,1,1,1,1,second,3,21,female,right,donders,2021-07-09_09h38.22.716,ImageRatingTask_S3,2021.1.4,Win32,60.02040694,,,,,,,,,
,,,,,,,,,,,,0,2,2,2,1,third,3,21,female,right,donders,2021-07-09_09h38.22.716,ImageRatingTask_S3,2021.1.4,Win32,60.02040694,,,,,,,,,
,,,,,,,,,,,,0,3,3,3,1,fourth,3,21,female,right,donders,2021-07-09_09h38.22.716,ImageRatingTask_S3,2021.1.4,Win32,60.02040694,,,,,,,,,
,,,,,,,,,,,,0,4,4,4,1,fifth,3,21,female,right,donders,2021-07-09_09h38.22.716,ImageRatingTask_S3,2021.1.4,Win32,60.02040694,,,,,,,,,
,,,,,,,,,,,,0,5,5,5,1,sixth,3,21,female,right,donders,2021-07-09_09h38.22.716,ImageRatingTask_S3,2021.1.4,Win32,60.02040694,,,,,,,,,
,,,,,,,,,,,,0,6,6,6,1,seventh,3,21,female,right,donders,2021-07-09_09h38.22.716,ImageRatingTask_S3,2021.1.4,Win32,60.02040694,,,,,,,,,
,,,,,,,,,,,,0,7,7,7,1,last,3,21,female,right,donders,2021-07-09_09h38.22.716,ImageRatingTask_S3,2021.1.4,Win32,60.02040694,,,,,,,,,
,,,,,,,,,,,,,,,,,,3,21,female,right,donders,2021-07-09_09h38.22.716,ImageRatingTask_S3,2021.1.4,Win32,60.02040694,0,61,61,151,1,DreamStudyImages_rs1000x750g/Mammals/Animals_012_h.jpg,,,
,,5,1.906,1,0.2788,3,0.8547,1,1.1342,8,0.8459,0,0,0,0,1,main,3,21,female,right,donders,2021-07-09_09h38.22.716,ImageRatingTask_S3,2021.1.4,Win32,60.02040694,,,,,,,,,
,,,,,,,,,,,,0,1,1,1,1,second,3,21,female,right,donders,2021-07-09_09h38.22.716,ImageRatingTask_S3,2021.1.4,Win32,60.02040694,,,,,,,,,
,,,,,,,,,,,,0,2,2,2,1,third,3,21,female,right,donders,2021-07-09_09h38.22.716,ImageRatingTask_S3,2021.1.4,Win32,60.02040694,,,,,,,,,
,,,,,,,,,,,,0,3,3,3,1,fourth,3,21,female,right,donders,2021-07-09_09h38.22.716,ImageRatingTask_S3,2021.1.4,Win32,60.02040694,,,,,,,,,
,,,,,,,,,,,,0,4,4,4,1,fifth,3,21,female,right,donders,2021-07-09_09h38.22.716,ImageRatingTask_S3,2021.1.4,Win32,60.02040694,,,,,,,,,
,,,,,,,,,,,,0,5,5,5,1,sixth,3,21,female,right,donders,2021-07-09_09h38.22.716,ImageRatingTask_S3,2021.1.4,Win32,60.02040694,,,,,,,,,
,,,,,,,,,,,,0,6,6,6,1,seventh,3,21,female,right,donders,2021-07-09_09h38.22.716,ImageRatingTask_S3,2021.1.4,Win32,60.02040694,,,,,,,,,
,,,,,,,,,,,,0,7,7,7,1,last,3,21,female,right,donders,2021-07-09_09h38.22.716,ImageRatingTask_S3,2021.1.4,Win32,60.02040694,,,,,,,,,
,,,,,,,,,,,,,,,,,,3,21,female,right,donders,2021-07-09_09h38.22.716,ImageRatingTask_S3,2021.1.4,Win32,60.02040694,0,62,62,69,1,DreamStudyImages_rs1000x750g/Water/5270.jpg,,,
,,6,3.8946,2,0.3958,8,1.1677,1,0.5143,2,0.6187,0,0,0,0,1,main,3,21,female,right,donders,2021-07-09_09h38.22.716,ImageRatingTask_S3,2021.1.4,Win32,60.02040694,,,,,,,,,
,,,,,,,,,,,,0,1,1,1,1,second,3,21,female,right,donders,2021-07-09_09h38.22.716,ImageRatingTask_S3,2021.1.4,Win32,60.02040694,,,,,,,,,
,,,,,,,,,,,,0,2,2,2,1,third,3,21,female,right,donders,2021-07-09_09h38.22.716,ImageRatingTask_S3,2021.1.4,Win32,60.02040694,,,,,,,,,
,,,,,,,,,,,,0,3,3,3,1,fourth,3,21,female,right,donders,2021-07-09_09h38.22.716,ImageRatingTask_S3,2021.1.4,Win32,60.02040694,,,,,,,,,
,,,,,,,,,,,,0,4,4,4,1,fifth,3,21,female,right,donders,2021-07-09_09h38.22.716,ImageRatingTask_S3,2021.1.4,Win32,60.02040694,,,,,,,,,
,,,,,,,,,,,,0,5,5,5,1,sixth,3,21,female,right,donders,2021-07-09_09h38.22.716,ImageRatingTask_S3,2021.1.4,Win32,60.02040694,,,,,,,,,
,,,,,,,,,,,,0,6,6,6,1,seventh,3,21,female,right,donders,2021-07-09_09h38.22.716,ImageRatingTask_S3,2021.1.4,Win32,60.02040694,,,,,,,,,
,,,,,,,,,,,,0,7,7,7,1,last,3,21,female,right,donders,2021-07-09_09h38.22.716,ImageRatingTask_S3,2021.1.4,Win32,60.02040694,,,,,,,,,
,,,,,,,,,,,,,,,,,,3,21,female,right,donders,2021-07-09_09h38.22.716,ImageRatingTask_S3,2021.1.4,Win32,60.02040694,0,63,63,98,1,DreamStudyImages_rs1000x750g/Children/Faces_101_h.jpg,,,
,,6,10.8799,4,0.4636,8,1.8416,1,0.7323,3,0.845,0,0,0,0,1,main,3,21,female,right,donders,2021-07-09_09h38.22.716,ImageRatingTask_S3,2021.1.4,Win32,60.02040694,,,,,,,,,
,,,,,,,,,,,,0,1,1,1,1,second,3,21,female,right,donders,2021-07-09_09h38.22.716,ImageRatingTask_S3,2021.1.4,Win32,60.02040694,,,,,,,,,
,,,,,,,,,,,,0,2,2,2,1,third,3,21,female,right,donders,2021-07-09_09h38.22.716,ImageRatingTask_S3,2021.1.4,Win32,60.02040694,,,,,,,,,
,,,,,,,,,,,,0,3,3,3,1,fourth,3,21,female,right,donders,2021-07-09_09h38.22.716,ImageRatingTask_S3,2021.1.4,Win32,60.02040694,,,,,,,,,
,,,,,,,,,,,,0,4,4,4,1,fifth,3,21,female,right,donders,2021-07-09_09h38.22.716,ImageRatingTask_S3,2021.1.4,Win32,60.02040694,,,,,,,,,
,,,,,,,,,,,,0,5,5,5,1,sixth,3,21,female,right,donders,2021-07-09_09h38.22.716,ImageRatingTask_S3,2021.1.4,Win32,60.02040694,,,,,,,,,
,,,,,,,,,,,,0,6,6,6,1,seventh,3,21,female,right,donders,2021-07-09_09h38.22.716,ImageRatingTask_S3,2021.1.4,Win32,60.02040694,,,,,,,,,
,,,,,,,,,,,,0,7,7,7,1,last,3,21,female,right,donders,2021-07-09_09h38.22.716,ImageRatingTask_S3,2021.1.4,Win32,60.02040694,,,,,,,,,
,,,,,,,,,,,,,,,,,,3,21,female,right,donders,2021-07-09_09h38.22.716,ImageRatingTask_S3,2021.1.4,Win32,60.02040694,0,64,64,85,1,DreamStudyImages_rs1000x750g/Mammals/IAPS1595_horse2.jpg,,,
,,6,10.1714,3,0.2917,9,0.9588,1,0.8423,2,0.9959,0,0,0,0,1,main,3,21,female,right,donders,2021-07-09_09h38.22.716,ImageRatingTask_S3,2021.1.4,Win32,60.02040694,,,,,,,,,
,,,,,,,,,,,,0,1,1,1,1,second,3,21,female,right,donders,2021-07-09_09h38.22.716,ImageRatingTask_S3,2021.1.4,Win32,60.02040694,,,,,,,,,
,,,,,,,,,,,,0,2,2,2,1,third,3,21,female,right,donders,2021-07-09_09h38.22.716,ImageRatingTask_S3,2021.1.4,Win32,60.02040694,,,,,,,,,
,,,,,,,,,,,,0,3,3,3,1,fourth,3,21,female,right,donders,2021-07-09_09h38.22.716,ImageRatingTask_S3,2021.1.4,Win32,60.02040694,,,,,,,,,
,,,,,,,,,,,,0,4,4,4,1,fifth,3,21,female,right,donders,2021-07-09_09h38.22.716,ImageRatingTask_S3,2021.1.4,Win32,60.02040694,,,,,,,,,
,,,,,,,,,,,,0,5,5,5,1,sixth,3,21,female,right,donders,2021-07-09_09h38.22.716,ImageRatingTask_S3,2021.1.4,Win32,60.02040694,,,,,,,,,
,,,,,,,,,,,,0,6,6,6,1,seventh,3,21,female,right,donders,2021-07-09_09h38.22.716,ImageRatingTask_S3,2021.1.4,Win32,60.02040694,,,,,,,,,
,,,,,,,,,,,,0,7,7,7,1,last,3,21,female,right,donders,2021-07-09_09h38.22.716,ImageRatingTask_S3,2021.1.4,Win32,60.02040694,,,,,,,,,
,,,,,,,,,,,,,,,,,,3,21,female,right,donders,2021-07-09_09h38.22.716,ImageRatingTask_S3,2021.1.4,Win32,60.02040694,0,65,65,74,1,DreamStudyImages_rs1000x750g/Children/IAPS2057_baby5.jpg,,,
,,6,6.4124,2,0.6791,6,1.9844,1,1.1092,5,0.8672,0,0,0,0,1,main,3,21,female,right,donders,2021-07-09_09h38.22.716,ImageRatingTask_S3,2021.1.4,Win32,60.02040694,,,,,,,,,
,,,,,,,,,,,,0,1,1,1,1,second,3,21,female,right,donders,2021-07-09_09h38.22.716,ImageRatingTask_S3,2021.1.4,Win32,60.02040694,,,,,,,,,
,,,,,,,,,,,,0,2,2,2,1,third,3,21,female,right,donders,2021-07-09_09h38.22.716,ImageRatingTask_S3,2021.1.4,Win32,60.02040694,,,,,,,,,
,,,,,,,,,,,,0,3,3,3,1,fourth,3,21,female,right,donders,2021-07-09_09h38.22.716,ImageRatingTask_S3,2021.1.4,Win32,60.02040694,,,,,,,,,
,,,,,,,,,,,,0,4,4,4,1,fifth,3,21,female,right,donders,2021-07-09_09h38.22.716,ImageRatingTask_S3,2021.1.4,Win32,60.02040694,,,,,,,,,
,,,,,,,,,,,,0,5,5,5,1,sixth,3,21,female,right,donders,2021-07-09_09h38.22.716,ImageRatingTask_S3,2021.1.4,Win32,60.02040694,,,,,,,,,
,,,,,,,,,,,,0,6,6,6,1,seventh,3,21,female,right,donders,2021-07-09_09h38.22.716,ImageRatingTask_S3,2021.1.4,Win32,60.02040694,,,,,,,,,
,,,,,,,,,,,,0,7,7,7,1,last,3,21,female,right,donders,2021-07-09_09h38.22.716,ImageRatingTask_S3,2021.1.4,Win32,60.02040694,,,,,,,,,
,,,,,,,,,,,,,,,,,,3,21,female,right,donders,2021-07-09_09h38.22.716,ImageRatingTask_S3,2021.1.4,Win32,60.02040694,0,66,66,26,1,DreamStudyImages_rs1000x750g/Food/IAPS7410_chocolate2.jpg,,,
,,6,3.5809,2,0.6262,8,1.4189,1,0.6097,8,0.664,0,0,0,0,1,main,3,21,female,right,donders,2021-07-09_09h38.22.716,ImageRatingTask_S3,2021.1.4,Win32,60.02040694,,,,,,,,,
,,,,,,,,,,,,0,1,1,1,1,second,3,21,female,right,donders,2021-07-09_09h38.22.716,ImageRatingTask_S3,2021.1.4,Win32,60.02040694,,,,,,,,,
,,,,,,,,,,,,0,2,2,2,1,third,3,21,female,right,donders,2021-07-09_09h38.22.716,ImageRatingTask_S3,2021.1.4,Win32,60.02040694,,,,,,,,,
,,,,,,,,,,,,0,3,3,3,1,fourth,3,21,female,right,donders,2021-07-09_09h38.22.716,ImageRatingTask_S3,2021.1.4,Win32,60.02040694,,,,,,,,,
,,,,,,,,,,,,0,4,4,4,1,fifth,3,21,female,right,donders,2021-07-09_09h38.22.716,ImageRatingTask_S3,2021.1.4,Win32,60.02040694,,,,,,,,,
,,,,,,,,,,,,0,5,5,5,1,sixth,3,21,female,right,donders,2021-07-09_09h38.22.716,ImageRatingTask_S3,2021.1.4,Win32,60.02040694,,,,,,,,,
,,,,,,,,,,,,0,6,6,6,1,seventh,3,21,female,right,donders,2021-07-09_09h38.22.716,ImageRatingTask_S3,2021.1.4,Win32,60.02040694,,,,,,,,,
,,,,,,,,,,,,0,7,7,7,1,last,3,21,female,right,donders,2021-07-09_09h38.22.716,ImageRatingTask_S3,2021.1.4,Win32,60.02040694,,,,,,,,,
,,,,,,,,,,,,,,,,,,3,21,female,right,donders,2021-07-09_09h38.22.716,ImageRatingTask_S3,2021.1.4,Win32,60.02040694,0,67,67,64,1,DreamStudyImages_rs1000x750g/Water/Lake 2.jpg,,,
,,5,2.8442,1,0.0983,9,0.9827,1,0.4798,6,0.7093,0,0,0,0,1,main,3,21,female,right,donders,2021-07-09_09h38.22.716,ImageRatingTask_S3,2021.1.4,Win32,60.02040694,,,,,,,,,
,,,,,,,,,,,,0,1,1,1,1,second,3,21,female,right,donders,2021-07-09_09h38.22.716,ImageRatingTask_S3,2021.1.4,Win32,60.02040694,,,,,,,,,
,,,,,,,,,,,,0,2,2,2,1,third,3,21,female,right,donders,2021-07-09_09h38.22.716,ImageRatingTask_S3,2021.1.4,Win32,60.02040694,,,,,,,,,
,,,,,,,,,,,,0,3,3,3,1,fourth,3,21,female,right,donders,2021-07-09_09h38.22.716,ImageRatingTask_S3,2021.1.4,Win32,60.02040694,,,,,,,,,
,,,,,,,,,,,,0,4,4,4,1,fifth,3,21,female,right,donders,2021-07-09_09h38.22.716,ImageRatingTask_S3,2021.1.4,Win32,60.02040694,,,,,,,,,
,,,,,,,,,,,,0,5,5,5,1,sixth,3,21,female,right,donders,2021-07-09_09h38.22.716,ImageRatingTask_S3,2021.1.4,Win32,60.02040694,,,,,,,,,
,,,,,,,,,,,,0,6,6,6,1,seventh,3,21,female,right,donders,2021-07-09_09h38.22.716,ImageRatingTask_S3,2021.1.4,Win32,60.02040694,,,,,,,,,
,,,,,,,,,,,,0,7,7,7,1,last,3,21,female,right,donders,2021-07-09_09h38.22.716,ImageRatingTask_S3,2021.1.4,Win32,60.02040694,,,,,,,,,
,,,,,,,,,,,,,,,,,,3,21,female,right,donders,2021-07-09_09h38.22.716,ImageRatingTask_S3,2021.1.4,Win32,60.02040694,0,68,68,125,1,DreamStudyImages_rs1000x750g/Houses/IAPS9469_ruins.jpg,,,
,,5,3.6122,1,0.1309,8,1.2644,1,0.6428,5,0.6942,0,0,0,0,1,main,3,21,female,right,donders,2021-07-09_09h38.22.716,ImageRatingTask_S3,2021.1.4,Win32,60.02040694,,,,,,,,,
,,,,,,,,,,,,0,1,1,1,1,second,3,21,female,right,donders,2021-07-09_09h38.22.716,ImageRatingTask_S3,2021.1.4,Win32,60.02040694,,,,,,,,,
,,,,,,,,,,,,0,2,2,2,1,third,3,21,female,right,donders,2021-07-09_09h38.22.716,ImageRatingTask_S3,2021.1.4,Win32,60.02040694,,,,,,,,,
,,,,,,,,,,,,0,3,3,3,1,fourth,3,21,female,right,donders,2021-07-09_09h38.22.716,ImageRatingTask_S3,2021.1.4,Win32,60.02040694,,,,,,,,,
,,,,,,,,,,,,0,4,4,4,1,fifth,3,21,female,right,donders,2021-07-09_09h38.22.716,ImageRatingTask_S3,2021.1.4,Win32,60.02040694,,,,,,,,,
,,,,,,,,,,,,0,5,5,5,1,sixth,3,21,female,right,donders,2021-07-09_09h38.22.716,ImageRatingTask_S3,2021.1.4,Win32,60.02040694,,,,,,,,,
,,,,,,,,,,,,0,6,6,6,1,seventh,3,21,female,right,donders,2021-07-09_09h38.22.716,ImageRatingTask_S3,2021.1.4,Win32,60.02040694,,,,,,,,,
,,,,,,,,,,,,0,7,7,7,1,last,3,21,female,right,donders,2021-07-09_09h38.22.716,ImageRatingTask_S3,2021.1.4,Win32,60.02040694,,,,,,,,,
,,,,,,,,,,,,,,,,,,3,21,female,right,donders,2021-07-09_09h38.22.716,ImageRatingTask_S3,2021.1.4,Win32,60.02040694,0,69,69,10,1,DreamStudyImages_rs1000x750g/Food/Objects_054_h.jpg,,,
,,5,2.0035,1,0.1623,9,1.0033,1,0.3355,7,0.7257,0,0,0,0,1,main,3,21,female,right,donders,2021-07-09_09h38.22.716,ImageRatingTask_S3,2021.1.4,Win32,60.02040694,,,,,,,,,
,,,,,,,,,,,,0,1,1,1,1,second,3,21,female,right,donders,2021-07-09_09h38.22.716,ImageRatingTask_S3,2021.1.4,Win32,60.02040694,,,,,,,,,
,,,,,,,,,,,,0,2,2,2,1,third,3,21,female,right,donders,2021-07-09_09h38.22.716,ImageRatingTask_S3,2021.1.4,Win32,60.02040694,,,,,,,,,
,,,,,,,,,,,,0,3,3,3,1,fourth,3,21,female,right,donders,2021-07-09_09h38.22.716,ImageRatingTask_S3,2021.1.4,Win32,60.02040694,,,,,,,,,
,,,,,,,,,,,,0,4,4,4,1,fifth,3,21,female,right,donders,2021-07-09_09h38.22.716,ImageRatingTask_S3,2021.1.4,Win32,60.02040694,,,,,,,,,
,,,,,,,,,,,,0,5,5,5,1,sixth,3,21,female,right,donders,2021-07-09_09h38.22.716,ImageRatingTask_S3,2021.1.4,Win32,60.02040694,,,,,,,,,
,,,,,,,,,,,,0,6,6,6,1,seventh,3,21,female,right,donders,2021-07-09_09h38.22.716,ImageRatingTask_S3,2021.1.4,Win32,60.02040694,,,,,,,,,
,,,,,,,,,,,,0,7,7,7,1,last,3,21,female,right,donders,2021-07-09_09h38.22.716,ImageRatingTask_S3,2021.1.4,Win32,60.02040694,,,,,,,,,
,,,,,,,,,,,,,,,,,,3,21,female,right,donders,2021-07-09_09h38.22.716,ImageRatingTask_S3,2021.1.4,Win32,60.02040694,0,70,70,121,1,DreamStudyImages_rs1000x750g/Vehicles/Objects_296_h.jpg,,,
,,7,2.6849,2,2.1166,9,1.6156,1,0.6155,8,0.925,0,0,0,0,1,main,3,21,female,right,donders,2021-07-09_09h38.22.716,ImageRatingTask_S3,2021.1.4,Win32,60.02040694,,,,,,,,,
,,,,,,,,,,,,0,1,1,1,1,second,3,21,female,right,donders,2021-07-09_09h38.22.716,ImageRatingTask_S3,2021.1.4,Win32,60.02040694,,,,,,,,,
,,,,,,,,,,,,0,2,2,2,1,third,3,21,female,right,donders,2021-07-09_09h38.22.716,ImageRatingTask_S3,2021.1.4,Win32,60.02040694,,,,,,,,,
,,,,,,,,,,,,0,3,3,3,1,fourth,3,21,female,right,donders,2021-07-09_09h38.22.716,ImageRatingTask_S3,2021.1.4,Win32,60.02040694,,,,,,,,,
,,,,,,,,,,,,0,4,4,4,1,fifth,3,21,female,right,donders,2021-07-09_09h38.22.716,ImageRatingTask_S3,2021.1.4,Win32,60.02040694,,,,,,,,,
,,,,,,,,,,,,0,5,5,5,1,sixth,3,21,female,right,donders,2021-07-09_09h38.22.716,ImageRatingTask_S3,2021.1.4,Win32,60.02040694,,,,,,,,,
,,,,,,,,,,,,0,6,6,6,1,seventh,3,21,female,right,donders,2021-07-09_09h38.22.716,ImageRatingTask_S3,2021.1.4,Win32,60.02040694,,,,,,,,,
,,,,,,,,,,,,0,7,7,7,1,last,3,21,female,right,donders,2021-07-09_09h38.22.716,ImageRatingTask_S3,2021.1.4,Win32,60.02040694,,,,,,,,,
,,,,,,,,,,,,,,,,,,3,21,female,right,donders,2021-07-09_09h38.22.716,ImageRatingTask_S3,2021.1.4,Win32,60.02040694,0,71,71,72,1,DreamStudyImages_rs1000x750g/Water/NDPS125_volcanicwater.jpg,,,
,,6,2.8807,3,0.3722,9,1.7569,1,0.5725,6,0.6926,0,0,0,0,1,main,3,21,female,right,donders,2021-07-09_09h38.22.716,ImageRatingTask_S3,2021.1.4,Win32,60.02040694,,,,,,,,,
,,,,,,,,,,,,0,1,1,1,1,second,3,21,female,right,donders,2021-07-09_09h38.22.716,ImageRatingTask_S3,2021.1.4,Win32,60.02040694,,,,,,,,,
,,,,,,,,,,,,0,2,2,2,1,third,3,21,female,right,donders,2021-07-09_09h38.22.716,ImageRatingTask_S3,2021.1.4,Win32,60.02040694,,,,,,,,,
,,,,,,,,,,,,0,3,3,3,1,fourth,3,21,female,right,donders,2021-07-09_09h38.22.716,ImageRatingTask_S3,2021.1.4,Win32,60.02040694,,,,,,,,,
,,,,,,,,,,,,0,4,4,4,1,fifth,3,21,female,right,donders,2021-07-09_09h38.22.716,ImageRatingTask_S3,2021.1.4,Win32,60.02040694,,,,,,,,,
,,,,,,,,,,,,0,5,5,5,1,sixth,3,21,female,right,donders,2021-07-09_09h38.22.716,ImageRatingTask_S3,2021.1.4,Win32,60.02040694,,,,,,,,,
,,,,,,,,,,,,0,6,6,6,1,seventh,3,21,female,right,donders,2021-07-09_09h38.22.716,ImageRatingTask_S3,2021.1.4,Win32,60.02040694,,,,,,,,,
,,,,,,,,,,,,0,7,7,7,1,last,3,21,female,right,donders,2021-07-09_09h38.22.716,ImageRatingTask_S3,2021.1.4,Win32,60.02040694,,,,,,,,,
,,,,,,,,,,,,,,,,,,3,21,female,right,donders,2021-07-09_09h38.22.716,ImageRatingTask_S3,2021.1.4,Win32,60.02040694,0,72,72,100,1,DreamStudyImages_rs1000x750g/Houses/Landscapes_088_v.jpg,,,
,,6,2.1641,2,0.3474,8,1.9828,1,0.5735,3,1.0162,0,0,0,0,1,main,3,21,female,right,donders,2021-07-09_09h38.22.716,ImageRatingTask_S3,2021.1.4,Win32,60.02040694,,,,,,,,,
,,,,,,,,,,,,0,1,1,1,1,second,3,21,female,right,donders,2021-07-09_09h38.22.716,ImageRatingTask_S3,2021.1.4,Win32,60.02040694,,,,,,,,,
,,,,,,,,,,,,0,2,2,2,1,third,3,21,female,right,donders,2021-07-09_09h38.22.716,ImageRatingTask_S3,2021.1.4,Win32,60.02040694,,,,,,,,,
,,,,,,,,,,,,0,3,3,3,1,fourth,3,21,female,right,donders,2021-07-09_09h38.22.716,ImageRatingTask_S3,2021.1.4,Win32,60.02040694,,,,,,,,,
,,,,,,,,,,,,0,4,4,4,1,fifth,3,21,female,right,donders,2021-07-09_09h38.22.716,ImageRatingTask_S3,2021.1.4,Win32,60.02040694,,,,,,,,,
,,,,,,,,,,,,0,5,5,5,1,sixth,3,21,female,right,donders,2021-07-09_09h38.22.716,ImageRatingTask_S3,2021.1.4,Win32,60.02040694,,,,,,,,,
,,,,,,,,,,,,0,6,6,6,1,seventh,3,21,female,right,donders,2021-07-09_09h38.22.716,ImageRatingTask_S3,2021.1.4,Win32,60.02040694,,,,,,,,,
,,,,,,,,,,,,0,7,7,7,1,last,3,21,female,right,donders,2021-07-09_09h38.22.716,ImageRatingTask_S3,2021.1.4,Win32,60.02040694,,,,,,,,,
,,,,,,,,,,,,,,,,,,3,21,female,right,donders,2021-07-09_09h38.22.716,ImageRatingTask_S3,2021.1.4,Win32,60.02040694,0,73,73,133,1,DreamStudyImages_rs1000x750g/Mammals/IAPS1661_orangutan.jpg,,,
,,5,2.5448,1,0.5466,9,1.0736,1,0.3528,8,0.6669,0,0,0,0,1,main,3,21,female,right,donders,2021-07-09_09h38.22.716,ImageRatingTask_S3,2021.1.4,Win32,60.02040694,,,,,,,,,
,,,,,,,,,,,,0,1,1,1,1,second,3,21,female,right,donders,2021-07-09_09h38.22.716,ImageRatingTask_S3,2021.1.4,Win32,60.02040694,,,,,,,,,
,,,,,,,,,,,,0,2,2,2,1,third,3,21,female,right,donders,2021-07-09_09h38.22.716,ImageRatingTask_S3,2021.1.4,Win32,60.02040694,,,,,,,,,
,,,,,,,,,,,,0,3,3,3,1,fourth,3,21,female,right,donders,2021-07-09_09h38.22.716,ImageRatingTask_S3,2021.1.4,Win32,60.02040694,,,,,,,,,
,,,,,,,,,,,,0,4,4,4,1,fifth,3,21,female,right,donders,2021-07-09_09h38.22.716,ImageRatingTask_S3,2021.1.4,Win32,60.02040694,,,,,,,,,
,,,,,,,,,,,,0,5,5,5,1,sixth,3,21,female,right,donders,2021-07-09_09h38.22.716,ImageRatingTask_S3,2021.1.4,Win32,60.02040694,,,,,,,,,
,,,,,,,,,,,,0,6,6,6,1,seventh,3,21,female,right,donders,2021-07-09_09h38.22.716,ImageRatingTask_S3,2021.1.4,Win32,60.02040694,,,,,,,,,
,,,,,,,,,,,,0,7,7,7,1,last,3,21,female,right,donders,2021-07-09_09h38.22.716,ImageRatingTask_S3,2021.1.4,Win32,60.02040694,,,,,,,,,
,,,,,,,,,,,,,,,,,,3,21,female,right,donders,2021-07-09_09h38.22.716,ImageRatingTask_S3,2021.1.4,Win32,60.02040694,0,74,74,142,1,DreamStudyImages_rs1000x750g/Water/Landscapes_115_v.jpg,,,
,,4,2.2112,2,0.305,8,1.3626,1,0.5501,5,1.0382,0,0,0,0,1,main,3,21,female,right,donders,2021-07-09_09h38.22.716,ImageRatingTask_S3,2021.1.4,Win32,60.02040694,,,,,,,,,
,,,,,,,,,,,,0,1,1,1,1,second,3,21,female,right,donders,2021-07-09_09h38.22.716,ImageRatingTask_S3,2021.1.4,Win32,60.02040694,,,,,,,,,
,,,,,,,,,,,,0,2,2,2,1,third,3,21,female,right,donders,2021-07-09_09h38.22.716,ImageRatingTask_S3,2021.1.4,Win32,60.02040694,,,,,,,,,
,,,,,,,,,,,,0,3,3,3,1,fourth,3,21,female,right,donders,2021-07-09_09h38.22.716,ImageRatingTask_S3,2021.1.4,Win32,60.02040694,,,,,,,,,
,,,,,,,,,,,,0,4,4,4,1,fifth,3,21,female,right,donders,2021-07-09_09h38.22.716,ImageRatingTask_S3,2021.1.4,Win32,60.02040694,,,,,,,,,
,,,,,,,,,,,,0,5,5,5,1,sixth,3,21,female,right,donders,2021-07-09_09h38.22.716,ImageRatingTask_S3,2021.1.4,Win32,60.02040694,,,,,,,,,
,,,,,,,,,,,,0,6,6,6,1,seventh,3,21,female,right,donders,2021-07-09_09h38.22.716,ImageRatingTask_S3,2021.1.4,Win32,60.02040694,,,,,,,,,
,,,,,,,,,,,,0,7,7,7,1,last,3,21,female,right,donders,2021-07-09_09h38.22.716,ImageRatingTask_S3,2021.1.4,Win32,60.02040694,,,,,,,,,
,,,,,,,,,,,,,,,,,,3,21,female,right,donders,2021-07-09_09h38.22.716,ImageRatingTask_S3,2021.1.4,Win32,60.02040694,0,75,75,135,1,DreamStudyImages_rs1000x750g/Food/Food 1.jpg,,,
,,5,2.9519,1,0.1809,7,1.6496,1,0.3499,7,1.3165,0,0,0,0,1,main,3,21,female,right,donders,2021-07-09_09h38.22.716,ImageRatingTask_S3,2021.1.4,Win32,60.02040694,,,,,,,,,
,,,,,,,,,,,,0,1,1,1,1,second,3,21,female,right,donders,2021-07-09_09h38.22.716,ImageRatingTask_S3,2021.1.4,Win32,60.02040694,,,,,,,,,
,,,,,,,,,,,,0,2,2,2,1,third,3,21,female,right,donders,2021-07-09_09h38.22.716,ImageRatingTask_S3,2021.1.4,Win32,60.02040694,,,,,,,,,
,,,,,,,,,,,,0,3,3,3,1,fourth,3,21,female,right,donders,2021-07-09_09h38.22.716,ImageRatingTask_S3,2021.1.4,Win32,60.02040694,,,,,,,,,
,,,,,,,,,,,,0,4,4,4,1,fifth,3,21,female,right,donders,2021-07-09_09h38.22.716,ImageRatingTask_S3,2021.1.4,Win32,60.02040694,,,,,,,,,
,,,,,,,,,,,,0,5,5,5,1,sixth,3,21,female,right,donders,2021-07-09_09h38.22.716,ImageRatingTask_S3,2021.1.4,Win32,60.02040694,,,,,,,,,
,,,,,,,,,,,,0,6,6,6,1,seventh,3,21,female,right,donders,2021-07-09_09h38.22.716,ImageRatingTask_S3,2021.1.4,Win32,60.02040694,,,,,,,,,
,,,,,,,,,,,,0,7,7,7,1,last,3,21,female,right,donders,2021-07-09_09h38.22.716,ImageRatingTask_S3,2021.1.4,Win32,60.02040694,,,,,,,,,
,,,,,,,,,,,,,,,,,,3,21,female,right,donders,2021-07-09_09h38.22.716,ImageRatingTask_S3,2021.1.4,Win32,60.02040694,0,76,76,55,1,DreamStudyImages_rs1000x750g/Vehicles/IAPS7039_train3.jpg,,,
,,4,2.0519,3,0.2581,7,1.5829,1,1.3339,3,0.9995,0,0,0,0,1,main,3,21,female,right,donders,2021-07-09_09h38.22.716,ImageRatingTask_S3,2021.1.4,Win32,60.02040694,,,,,,,,,
,,,,,,,,,,,,0,1,1,1,1,second,3,21,female,right,donders,2021-07-09_09h38.22.716,ImageRatingTask_S3,2021.1.4,Win32,60.02040694,,,,,,,,,
,,,,,,,,,,,,0,2,2,2,1,third,3,21,female,right,donders,2021-07-09_09h38.22.716,ImageRatingTask_S3,2021.1.4,Win32,60.02040694,,,,,,,,,
