test_key_val.keys,test_key_val.rt,test_key_aro.keys,test_key_aro.rt,test_key_qual.keys,test_key_qual.rt,test_key_ncat.keys,test_key_ncat.rt,test_key_cats.keys,test_key_cats.rt,test_ncat_order.thisRepN,test_ncat_order.thisTrialN,test_ncat_order.thisN,test_ncat_order.thisIndex,test_ncat_order.ran,cond_cat,participant,age,gender,handedness (L/R),site (IMT/Donders),date,expName,psychopyVersion,OS,frameRate,test_trials.thisRepN,test_trials.thisTrialN,test_trials.thisN,test_trials.thisIndex,test_trials.ran,test_filename,link,copyright,slider_pre.response,slider_pre.rt,key_val.keys,key_val.rt,key_aro.keys,key_aro.rt,key_qual.keys,key_qual.rt,key_ncat.keys,key_ncat.rt,key_cats.keys,key_cats.rt,ncat_order.thisRepN,ncat_order.thisTrialN,ncat_order.thisN,ncat_order.thisIndex,ncat_order.ran,img_trials.thisRepN,img_trials.thisTrialN,img_trials.thisN,img_trials.thisIndex,img_trials.ran,filename,slider_post.response,slider_post.rt,textbox_openfb.text
6,7.0794,2,2.8306,6,5.1211,3,17.5845,2,1.1921,0,0,0,0,1,main,3,21,female,right,donders,2021-07-08_11h02.59.595,ImageRatingTask_S1,2021.1.4,Win32,60.07449237,,,,,,,,,,,,,,,,,,,,,,,,,,,,,,,,,,
,,,,,,,,5,3.9792,0,1,1,1,1,second,3,21,female,right,donders,2021-07-08_11h02.59.595,ImageRatingTask_S1,2021.1.4,Win32,60.07449237,,,,,,,,,,,,,,,,,,,,,,,,,,,,,,,,,,
,,,,,,,,6,1.34,0,2,2,2,1,third,3,21,female,right,donders,2021-07-08_11h02.59.595,ImageRatingTask_S1,2021.1.4,Win32,60.07449237,,,,,,,,,,,,,,,,,,,,,,,,,,,,,,,,,,
,,,,,,,,,,0,3,3,3,1,fourth,3,21,female,right,donders,2021-07-08_11h02.59.595,ImageRatingTask_S1,2021.1.4,Win32,60.07449237,,,,,,,,,,,,,,,,,,,,,,,,,,,,,,,,,,
,,,,,,,,,,0,4,4,4,1,fifth,3,21,female,right,donders,2021-07-08_11h02.59.595,ImageRatingTask_S1,2021.1.4,Win32,60.07449237,,,,,,,,,,,,,,,,,,,,,,,,,,,,,,,,,,
,,,,,,,,,,0,5,5,5,1,sixth,3,21,female,right,donders,2021-07-08_11h02.59.595,ImageRatingTask_S1,2021.1.4,Win32,60.07449237,,,,,,,,,,,,,,,,,,,,,,,,,,,,,,,,,,
,,,,,,,,,,0,6,6,6,1,seventh,3,21,female,right,donders,2021-07-08_11h02.59.595,ImageRatingTask_S1,2021.1.4,Win32,60.07449237,,,,,,,,,,,,,,,,,,,,,,,,,,,,,,,,,,
,,,,,,,,,,0,7,7,7,1,last,3,21,female,right,donders,2021-07-08_11h02.59.595,ImageRatingTask_S1,2021.1.4,Win32,60.07449237,,,,,,,,,,,,,,,,,,,,,,,,,,,,,,,,,,
,,,,,,,,,,,,,,,,3,21,female,right,donders,2021-07-08_11h02.59.595,ImageRatingTask_S1,2021.1.4,Win32,60.07449237,0,0,0,1,1,test2.jpg,https://www.flickr.com/photos/cavalier92/16036265548/,CC BY-NC-ND 2.0,,,,,,,,,,,,,,,,,,,,,,,,,,
6,2.416,1,1.7237,9,3.206,0,2.8105,,,0,0,0,0,1,main,3,21,female,right,donders,2021-07-08_11h02.59.595,ImageRatingTask_S1,2021.1.4,Win32,60.07449237,,,,,,,,,,,,,,,,,,,,,,,,,,,,,,,,,,
,,,,,,,,,,0,1,1,1,1,second,3,21,female,right,donders,2021-07-08_11h02.59.595,ImageRatingTask_S1,2021.1.4,Win32,60.07449237,,,,,,,,,,,,,,,,,,,,,,,,,,,,,,,,,,
,,,,,,,,,,0,2,2,2,1,third,3,21,female,right,donders,2021-07-08_11h02.59.595,ImageRatingTask_S1,2021.1.4,Win32,60.07449237,,,,,,,,,,,,,,,,,,,,,,,,,,,,,,,,,,
,,,,,,,,,,0,3,3,3,1,fourth,3,21,female,right,donders,2021-07-08_11h02.59.595,ImageRatingTask_S1,2021.1.4,Win32,60.07449237,,,,,,,,,,,,,,,,,,,,,,,,,,,,,,,,,,
,,,,,,,,,,0,4,4,4,1,fifth,3,21,female,right,donders,2021-07-08_11h02.59.595,ImageRatingTask_S1,2021.1.4,Win32,60.07449237,,,,,,,,,,,,,,,,,,,,,,,,,,,,,,,,,,
,,,,,,,,,,0,5,5,5,1,sixth,3,21,female,right,donders,2021-07-08_11h02.59.595,ImageRatingTask_S1,2021.1.4,Win32,60.07449237,,,,,,,,,,,,,,,,,,,,,,,,,,,,,,,,,,
,,,,,,,,,,0,6,6,6,1,seventh,3,21,female,right,donders,2021-07-08_11h02.59.595,ImageRatingTask_S1,2021.1.4,Win32,60.07449237,,,,,,,,,,,,,,,,,,,,,,,,,,,,,,,,,,
,,,,,,,,,,0,7,7,7,1,last,3,21,female,right,donders,2021-07-08_11h02.59.595,ImageRatingTask_S1,2021.1.4,Win32,60.07449237,,,,,,,,,,,,,,,,,,,,,,,,,,,,,,,,,,
,,,,,,,,,,,,,,,,3,21,female,right,donders,2021-07-08_11h02.59.595,ImageRatingTask_S1,2021.1.4,Win32,60.07449237,0,1,1,4,1,test5.jpg,https://www.flickr.com/photos/silkebaron/2778692021/in/photolist-5exwk8-CeHF3S-5gg796-95cM2x-LGUrp7-oFgB6-2k7B5QN-aufKzz-hn8Di-8A3htc-8EagiU-4Hvk3Y-2b7s1f8-KSEPr-KSseq-KSrU3-KSu4o-KSsS3-Tp6nDS-KSCUM-VpC5Br-4j8meK-bdrepT-7GRM78-e6Zw96-8cCPed-9ANgBi-oFg73-2GGRxm-5dcivP-7sa8oG-2GGRzW-7CFUnh-3giGx-5Bz4op-3gTuGh-5cSvq6-pUnXj-hwTpWT-48n3iY-e5zg7q-7u7zP8-49195x-3iQDe9-aL7cWX-5exvLk-48n2Yy-toytsg-rw5VR-78NSA2,CC BY 2.0,,,,,,,,,,,,,,,,,,,,,,,,,,
7,4.4132,2,3.1682,9,2.2245,4,5.9115,8,2.4964,0,0,0,0,1,main,3,21,female,right,donders,2021-07-08_11h02.59.595,ImageRatingTask_S1,2021.1.4,Win32,60.07449237,,,,,,,,,,,,,,,,,,,,,,,,,,,,,,,,,,
,,,,,,,,2,2.7186,0,1,1,1,1,second,3,21,female,right,donders,2021-07-08_11h02.59.595,ImageRatingTask_S1,2021.1.4,Win32,60.07449237,,,,,,,,,,,,,,,,,,,,,,,,,,,,,,,,,,
,,,,,,,,7,1.4732,0,2,2,2,1,third,3,21,female,right,donders,2021-07-08_11h02.59.595,ImageRatingTask_S1,2021.1.4,Win32,60.07449237,,,,,,,,,,,,,,,,,,,,,,,,,,,,,,,,,,
,,,,,,,,1,0.3222,0,3,3,3,1,fourth,3,21,female,right,donders,2021-07-08_11h02.59.595,ImageRatingTask_S1,2021.1.4,Win32,60.07449237,,,,,,,,,,,,,,,,,,,,,,,,,,,,,,,,,,
,,,,,,,,,,0,4,4,4,1,fifth,3,21,female,right,donders,2021-07-08_11h02.59.595,ImageRatingTask_S1,2021.1.4,Win32,60.07449237,,,,,,,,,,,,,,,,,,,,,,,,,,,,,,,,,,
,,,,,,,,,,0,5,5,5,1,sixth,3,21,female,right,donders,2021-07-08_11h02.59.595,ImageRatingTask_S1,2021.1.4,Win32,60.07449237,,,,,,,,,,,,,,,,,,,,,,,,,,,,,,,,,,
,,,,,,,,,,0,6,6,6,1,seventh,3,21,female,right,donders,2021-07-08_11h02.59.595,ImageRatingTask_S1,2021.1.4,Win32,60.07449237,,,,,,,,,,,,,,,,,,,,,,,,,,,,,,,,,,
,,,,,,,,,,0,7,7,7,1,last,3,21,female,right,donders,2021-07-08_11h02.59.595,ImageRatingTask_S1,2021.1.4,Win32,60.07449237,,,,,,,,,,,,,,,,,,,,,,,,,,,,,,,,,,
,,,,,,,,,,,,,,,,3,21,female,right,donders,2021-07-08_11h02.59.595,ImageRatingTask_S1,2021.1.4,Win32,60.07449237,0,2,2,0,1,test1.jpg,https://www.flickr.com/photos/julzyax1/8713189147/in/photolist-egXnz6-Kg97g6-paYQjg-cDWcvy-e84vQU-fyRQKZ-dzuwVL-nzCPJw-dzp3r6-SXXSvw-aEgXGF-dzp1D8-aEgZ6F-prcoQG-aEgYd8-dt9EJ8-qTHZUL-dX8ut3-6eqh7x-aEkMyA-avjf71-6eqgKg-pNpDbJ-6euqa5-bo2EMC-q8hCLb-od8yyX-daaz4w-26cjVxB-CXaGmV-C7hSHf-aqmunq-9ek8a1-YcbBUe-apPWHB-HnB8rt-pHQLfh-8YgHaC-aqHteN-d5THbj-5dgTxP-afp2aV-8hNoSm-qhSjJS-d5TqoA-98WoKM-cjnSxo-9b4u7a-d5Tnzf-f7AETL,CC BY-NC 2.0,,,,,,,,,,,,,,,,,,,,,,,,,,
8,5.3182,3,1.8983,8,4.8142,3,5.822,1,3.1748,0,0,0,0,1,main,3,21,female,right,donders,2021-07-08_11h02.59.595,ImageRatingTask_S1,2021.1.4,Win32,60.07449237,,,,,,,,,,,,,,,,,,,,,,,,,,,,,,,,,,
,,,,,,,,4,2.0055,0,1,1,1,1,second,3,21,female,right,donders,2021-07-08_11h02.59.595,ImageRatingTask_S1,2021.1.4,Win32,60.07449237,,,,,,,,,,,,,,,,,,,,,,,,,,,,,,,,,,
,,,,,,,,6,2.399,0,2,2,2,1,third,3,21,female,right,donders,2021-07-08_11h02.59.595,ImageRatingTask_S1,2021.1.4,Win32,60.07449237,,,,,,,,,,,,,,,,,,,,,,,,,,,,,,,,,,
,,,,,,,,,,0,3,3,3,1,fourth,3,21,female,right,donders,2021-07-08_11h02.59.595,ImageRatingTask_S1,2021.1.4,Win32,60.07449237,,,,,,,,,,,,,,,,,,,,,,,,,,,,,,,,,,
,,,,,,,,,,0,4,4,4,1,fifth,3,21,female,right,donders,2021-07-08_11h02.59.595,ImageRatingTask_S1,2021.1.4,Win32,60.07449237,,,,,,,,,,,,,,,,,,,,,,,,,,,,,,,,,,
,,,,,,,,,,0,5,5,5,1,sixth,3,21,female,right,donders,2021-07-08_11h02.59.595,ImageRatingTask_S1,2021.1.4,Win32,60.07449237,,,,,,,,,,,,,,,,,,,,,,,,,,,,,,,,,,
,,,,,,,,,,0,6,6,6,1,seventh,3,21,female,right,donders,2021-07-08_11h02.59.595,ImageRatingTask_S1,2021.1.4,Win32,60.07449237,,,,,,,,,,,,,,,,,,,,,,,,,,,,,,,,,,
,,,,,,,,,,0,7,7,7,1,last,3,21,female,right,donders,2021-07-08_11h02.59.595,ImageRatingTask_S1,2021.1.4,Win32,60.07449237,,,,,,,,,,,,,,,,,,,,,,,,,,,,,,,,,,
,,,,,,,,,,,,,,,,3,21,female,right,donders,2021-07-08_11h02.59.595,ImageRatingTask_S1,2021.1.4,Win32,60.07449237,0,3,3,2,1,test3.jpg,https://www.flickr.com/photos/7487886@N04/35810127921/in/photolist-WyqgqD-DQSoP-6SrFCE-39ywib-39Bezs-9gt8aT-9gt83Z-eEgA9B-KnLx9-9gt8dK-HXwdie-2b6FA2g-4ekt5k-9ECfRg-2Zr5GQ-2Zr5mC-2Zr6kW-2Zr5Xu-2Zmyac-98TgbK-7U5XRj-am4oXb-98ThEB-2Bw3gh-vXo6D-Wt9U8o-DGiErb-DGiEqE-2m3CpV6-6E2aGG-6DXgqc-4PC3pQ-6HwMbx-dHYvkg-a2ycs-JLvMv-7k6DhM-bA81AL-8zwPFe-5nMrZu-3Ep2da-nhhd2L-DvDkr-81RkjZ-E1HXA-GzGH8Z-83vZYf-9krgXK-5nMxuU-DGiEqu,CC BY-NC 2.0,,,,,,,,,,,,,,,,,,,,,,,,,,
5,4.5657,1,1.1434,8,2.9164,4,13.1966,7,1.6471,0,0,0,0,1,main,3,21,female,right,donders,2021-07-08_11h02.59.595,ImageRatingTask_S1,2021.1.4,Win32,60.07449237,,,,,,,,,,,,,,,,,,,,,,,,,,,,,,,,,,
,,,,,,,,3,2.6676,0,1,1,1,1,second,3,21,female,right,donders,2021-07-08_11h02.59.595,ImageRatingTask_S1,2021.1.4,Win32,60.07449237,,,,,,,,,,,,,,,,,,,,,,,,,,,,,,,,,,
,,,,,,,,8,7.336,0,2,2,2,1,third,3,21,female,right,donders,2021-07-08_11h02.59.595,ImageRatingTask_S1,2021.1.4,Win32,60.07449237,,,,,,,,,,,,,,,,,,,,,,,,,,,,,,,,,,
,,,,,,,,5,0.9584,0,3,3,3,1,fourth,3,21,female,right,donders,2021-07-08_11h02.59.595,ImageRatingTask_S1,2021.1.4,Win32,60.07449237,,,,,,,,,,,,,,,,,,,,,,,,,,,,,,,,,,
,,,,,,,,,,0,4,4,4,1,fifth,3,21,female,right,donders,2021-07-08_11h02.59.595,ImageRatingTask_S1,2021.1.4,Win32,60.07449237,,,,,,,,,,,,,,,,,,,,,,,,,,,,,,,,,,
,,,,,,,,,,0,5,5,5,1,sixth,3,21,female,right,donders,2021-07-08_11h02.59.595,ImageRatingTask_S1,2021.1.4,Win32,60.07449237,,,,,,,,,,,,,,,,,,,,,,,,,,,,,,,,,,
,,,,,,,,,,0,6,6,6,1,seventh,3,21,female,right,donders,2021-07-08_11h02.59.595,ImageRatingTask_S1,2021.1.4,Win32,60.07449237,,,,,,,,,,,,,,,,,,,,,,,,,,,,,,,,,,
,,,,,,,,,,0,7,7,7,1,last,3,21,female,right,donders,2021-07-08_11h02.59.595,ImageRatingTask_S1,2021.1.4,Win32,60.07449237,,,,,,,,,,,,,,,,,,,,,,,,,,,,,,,,,,
,,,,,,,,,,,,,,,,3,21,female,right,donders,2021-07-08_11h02.59.595,ImageRatingTask_S1,2021.1.4,Win32,60.07449237,0,4,4,3,1,test4.jpg,https://www.flickr.com/photos/8782469@N05/33550256294/in/photolist-T7HQjJ-6bL62X-gQ2ptt-eARbhf-dbgLvQ-uKUpgG-e6GNPD-e6iDuV-RwYJie-Ur28At-u6Dvwk-fwts3x-CgqS5E-dgJSNE-fwHPg9-bFQoWv-9qgCN-TQZT7E-475QF-v3ZBG9-v5TFQL-aQVeNV-49XCzE-e5Va7j-v3WosE-5jvzS-cBxjA5-fwJ2P3-TP86kq-eREpVC-rMTQZx-Um3k-ajziHj-CgqSzN-dgP2Ci-e6putY-652ZqG-eARzQm-6ikz1-vrGjvh-Chgvpm-pFFnYq-8bKoVw-eAsukg-daANXC-MwMMfW-5ArWsa-GMcDmn-bLo6CH-9KgagR,CC BY 2.0,,,,,,,,,,,,,,,,,,,,,,,,,,
,,,,,,,,,,,,,,,main,3,21,female,right,donders,2021-07-08_11h02.59.595,ImageRatingTask_S1,2021.1.4,Win32,60.07449237,,,,,,,,,6,6.2685,5,5.8934,1,1.536,9,3.5239,1,2.4864,5,1.2,0,0,0,0,1,,,,,,,,,
,,,,,,,,,,,,,,,second,3,21,female,right,donders,2021-07-08_11h02.59.595,ImageRatingTask_S1,2021.1.4,Win32,60.07449237,,,,,,,,,,,,,,,,,,,,,0,1,1,1,1,,,,,,,,,
,,,,,,,,,,,,,,,third,3,21,female,right,donders,2021-07-08_11h02.59.595,ImageRatingTask_S1,2021.1.4,Win32,60.07449237,,,,,,,,,,,,,,,,,,,,,0,2,2,2,1,,,,,,,,,
,,,,,,,,,,,,,,,fourth,3,21,female,right,donders,2021-07-08_11h02.59.595,ImageRatingTask_S1,2021.1.4,Win32,60.07449237,,,,,,,,,,,,,,,,,,,,,0,3,3,3,1,,,,,,,,,
,,,,,,,,,,,,,,,fifth,3,21,female,right,donders,2021-07-08_11h02.59.595,ImageRatingTask_S1,2021.1.4,Win32,60.07449237,,,,,,,,,,,,,,,,,,,,,0,4,4,4,1,,,,,,,,,
,,,,,,,,,,,,,,,sixth,3,21,female,right,donders,2021-07-08_11h02.59.595,ImageRatingTask_S1,2021.1.4,Win32,60.07449237,,,,,,,,,,,,,,,,,,,,,0,5,5,5,1,,,,,,,,,
,,,,,,,,,,,,,,,seventh,3,21,female,right,donders,2021-07-08_11h02.59.595,ImageRatingTask_S1,2021.1.4,Win32,60.07449237,,,,,,,,,,,,,,,,,,,,,0,6,6,6,1,,,,,,,,,
,,,,,,,,,,,,,,,last,3,21,female,right,donders,2021-07-08_11h02.59.595,ImageRatingTask_S1,2021.1.4,Win32,60.07449237,,,,,,,,,,,,,,,,,,,,,0,7,7,7,1,,,,,,,,,
,,,,,,,,,,,,,,,,3,21,female,right,donders,2021-07-08_11h02.59.595,ImageRatingTask_S1,2021.1.4,Win32,60.07449237,,,,,,,,,,,,,,,,,,,,,,,,,,0,0,0,62,1,DreamStudyImages_rs1000x750g/Food/Objects_090_h.jpg,,,
,,,,,,,,,,,,,,,main,3,21,female,right,donders,2021-07-08_11h02.59.595,ImageRatingTask_S1,2021.1.4,Win32,60.07449237,,,,,,,,,,,5,5.0886,1,0.3959,8,2.2715,1,1.2834,7,0.783,0,0,0,0,1,,,,,,,,,
,,,,,,,,,,,,,,,second,3,21,female,right,donders,2021-07-08_11h02.59.595,ImageRatingTask_S1,2021.1.4,Win32,60.07449237,,,,,,,,,,,,,,,,,,,,,0,1,1,1,1,,,,,,,,,
,,,,,,,,,,,,,,,third,3,21,female,right,donders,2021-07-08_11h02.59.595,ImageRatingTask_S1,2021.1.4,Win32,60.07449237,,,,,,,,,,,,,,,,,,,,,0,2,2,2,1,,,,,,,,,
,,,,,,,,,,,,,,,fourth,3,21,female,right,donders,2021-07-08_11h02.59.595,ImageRatingTask_S1,2021.1.4,Win32,60.07449237,,,,,,,,,,,,,,,,,,,,,0,3,3,3,1,,,,,,,,,
,,,,,,,,,,,,,,,fifth,3,21,female,right,donders,2021-07-08_11h02.59.595,ImageRatingTask_S1,2021.1.4,Win32,60.07449237,,,,,,,,,,,,,,,,,,,,,0,4,4,4,1,,,,,,,,,
,,,,,,,,,,,,,,,sixth,3,21,female,right,donders,2021-07-08_11h02.59.595,ImageRatingTask_S1,2021.1.4,Win32,60.07449237,,,,,,,,,,,,,,,,,,,,,0,5,5,5,1,,,,,,,,,
,,,,,,,,,,,,,,,seventh,3,21,female,right,donders,2021-07-08_11h02.59.595,ImageRatingTask_S1,2021.1.4,Win32,60.07449237,,,,,,,,,,,,,,,,,,,,,0,6,6,6,1,,,,,,,,,
,,,,,,,,,,,,,,,last,3,21,female,right,donders,2021-07-08_11h02.59.595,ImageRatingTask_S1,2021.1.4,Win32,60.07449237,,,,,,,,,,,,,,,,,,,,,0,7,7,7,1,,,,,,,,,
,,,,,,,,,,,,,,,,3,21,female,right,donders,2021-07-08_11h02.59.595,ImageRatingTask_S1,2021.1.4,Win32,60.07449237,,,,,,,,,,,,,,,,,,,,,,,,,,0,1,1,146,1,DreamStudyImages_rs1000x750g/Vehicles/Objects_319_h.jpg,,,
,,,,,,,,,,,,,,,main,3,21,female,right,donders,2021-07-08_11h02.59.595,ImageRatingTask_S1,2021.1.4,Win32,60.07449237,,,,,,,,,,,3,3.1558,4,5.6088,6,4.5499,1,5.8729,6,0.9197,0,0,0,0,1,,,,,,,,,
,,,,,,,,,,,,,,,second,3,21,female,right,donders,2021-07-08_11h02.59.595,ImageRatingTask_S1,2021.1.4,Win32,60.07449237,,,,,,,,,,,,,,,,,,,,,0,1,1,1,1,,,,,,,,,
,,,,,,,,,,,,,,,third,3,21,female,right,donders,2021-07-08_11h02.59.595,ImageRatingTask_S1,2021.1.4,Win32,60.07449237,,,,,,,,,,,,,,,,,,,,,0,2,2,2,1,,,,,,,,,
,,,,,,,,,,,,,,,fourth,3,21,female,right,donders,2021-07-08_11h02.59.595,ImageRatingTask_S1,2021.1.4,Win32,60.07449237,,,,,,,,,,,,,,,,,,,,,0,3,3,3,1,,,,,,,,,
,,,,,,,,,,,,,,,fifth,3,21,female,right,donders,2021-07-08_11h02.59.595,ImageRatingTask_S1,2021.1.4,Win32,60.07449237,,,,,,,,,,,,,,,,,,,,,0,4,4,4,1,,,,,,,,,
,,,,,,,,,,,,,,,sixth,3,21,female,right,donders,2021-07-08_11h02.59.595,ImageRatingTask_S1,2021.1.4,Win32,60.07449237,,,,,,,,,,,,,,,,,,,,,0,5,5,5,1,,,,,,,,,
,,,,,,,,,,,,,,,seventh,3,21,female,right,donders,2021-07-08_11h02.59.595,ImageRatingTask_S1,2021.1.4,Win32,60.07449237,,,,,,,,,,,,,,,,,,,,,0,6,6,6,1,,,,,,,,,
,,,,,,,,,,,,,,,last,3,21,female,right,donders,2021-07-08_11h02.59.595,ImageRatingTask_S1,2021.1.4,Win32,60.07449237,,,,,,,,,,,,,,,,,,,,,0,7,7,7,1,,,,,,,,,
,,,,,,,,,,,,,,,,3,21,female,right,donders,2021-07-08_11h02.59.595,ImageRatingTask_S1,2021.1.4,Win32,60.07449237,,,,,,,,,,,,,,,,,,,,,,,,,,0,2,2,118,1,DreamStudyImages_rs1000x750g/Houses/Pollution 1.jpg,,,
,,,,,,,,,,,,,,,main,3,21,female,right,donders,2021-07-08_11h02.59.595,ImageRatingTask_S1,2021.1.4,Win32,60.07449237,,,,,,,,,,,6,3.2066,1,2.4971,6,2.2744,1,3.0198,8,0.7259,0,0,0,0,1,,,,,,,,,
,,,,,,,,,,,,,,,second,3,21,female,right,donders,2021-07-08_11h02.59.595,ImageRatingTask_S1,2021.1.4,Win32,60.07449237,,,,,,,,,,,,,,,,,,,,,0,1,1,1,1,,,,,,,,,
,,,,,,,,,,,,,,,third,3,21,female,right,donders,2021-07-08_11h02.59.595,ImageRatingTask_S1,2021.1.4,Win32,60.07449237,,,,,,,,,,,,,,,,,,,,,0,2,2,2,1,,,,,,,,,
,,,,,,,,,,,,,,,fourth,3,21,female,right,donders,2021-07-08_11h02.59.595,ImageRatingTask_S1,2021.1.4,Win32,60.07449237,,,,,,,,,,,,,,,,,,,,,0,3,3,3,1,,,,,,,,,
,,,,,,,,,,,,,,,fifth,3,21,female,right,donders,2021-07-08_11h02.59.595,ImageRatingTask_S1,2021.1.4,Win32,60.07449237,,,,,,,,,,,,,,,,,,,,,0,4,4,4,1,,,,,,,,,
,,,,,,,,,,,,,,,sixth,3,21,female,right,donders,2021-07-08_11h02.59.595,ImageRatingTask_S1,2021.1.4,Win32,60.07449237,,,,,,,,,,,,,,,,,,,,,0,5,5,5,1,,,,,,,,,
,,,,,,,,,,,,,,,seventh,3,21,female,right,donders,2021-07-08_11h02.59.595,ImageRatingTask_S1,2021.1.4,Win32,60.07449237,,,,,,,,,,,,,,,,,,,,,0,6,6,6,1,,,,,,,,,
,,,,,,,,,,,,,,,last,3,21,female,right,donders,2021-07-08_11h02.59.595,ImageRatingTask_S1,2021.1.4,Win32,60.07449237,,,,,,,,,,,,,,,,,,,,,0,7,7,7,1,,,,,,,,,
,,,,,,,,,,,,,,,,3,21,female,right,donders,2021-07-08_11h02.59.595,ImageRatingTask_S1,2021.1.4,Win32,60.07449237,,,,,,,,,,,,,,,,,,,,,,,,,,0,3,3,124,1,DreamStudyImages_rs1000x750g/Water/Beach 1.jpg,,,
,,,,,,,,,,,,,,,main,3,21,female,right,donders,2021-07-08_11h02.59.595,ImageRatingTask_S1,2021.1.4,Win32,60.07449237,,,,,,,,,,,5,2.5948,1,0.6152,7,1.722,1,1.3133,3,2.1055,0,0,0,0,1,,,,,,,,,
,,,,,,,,,,,,,,,second,3,21,female,right,donders,2021-07-08_11h02.59.595,ImageRatingTask_S1,2021.1.4,Win32,60.07449237,,,,,,,,,,,,,,,,,,,,,0,1,1,1,1,,,,,,,,,
,,,,,,,,,,,,,,,third,3,21,female,right,donders,2021-07-08_11h02.59.595,ImageRatingTask_S1,2021.1.4,Win32,60.07449237,,,,,,,,,,,,,,,,,,,,,0,2,2,2,1,,,,,,,,,
,,,,,,,,,,,,,,,fourth,3,21,female,right,donders,2021-07-08_11h02.59.595,ImageRatingTask_S1,2021.1.4,Win32,60.07449237,,,,,,,,,,,,,,,,,,,,,0,3,3,3,1,,,,,,,,,
,,,,,,,,,,,,,,,fifth,3,21,female,right,donders,2021-07-08_11h02.59.595,ImageRatingTask_S1,2021.1.4,Win32,60.07449237,,,,,,,,,,,,,,,,,,,,,0,4,4,4,1,,,,,,,,,
,,,,,,,,,,,,,,,sixth,3,21,female,right,donders,2021-07-08_11h02.59.595,ImageRatingTask_S1,2021.1.4,Win32,60.07449237,,,,,,,,,,,,,,,,,,,,,0,5,5,5,1,,,,,,,,,
,,,,,,,,,,,,,,,seventh,3,21,female,right,donders,2021-07-08_11h02.59.595,ImageRatingTask_S1,2021.1.4,Win32,60.07449237,,,,,,,,,,,,,,,,,,,,,0,6,6,6,1,,,,,,,,,
,,,,,,,,,,,,,,,last,3,21,female,right,donders,2021-07-08_11h02.59.595,ImageRatingTask_S1,2021.1.4,Win32,60.07449237,,,,,,,,,,,,,,,,,,,,,0,7,7,7,1,,,,,,,,,
,,,,,,,,,,,,,,,,3,21,female,right,donders,2021-07-08_11h02.59.595,ImageRatingTask_S1,2021.1.4,Win32,60.07449237,,,,,,,,,,,,,,,,,,,,,,,,,,0,4,4,148,1,DreamStudyImages_rs1000x750g/Mammals/IAPS1600_horse3.jpg,,,
,,,,,,,,,,,,,,,main,3,21,female,right,donders,2021-07-08_11h02.59.595,ImageRatingTask_S1,2021.1.4,Win32,60.07449237,,,,,,,,,,,6,2.6507,1,0.5762,6,3.4675,3,6.0152,2,0.9979,0,0,0,0,1,,,,,,,,,
,,,,,,,,,,,,,,,second,3,21,female,right,donders,2021-07-08_11h02.59.595,ImageRatingTask_S1,2021.1.4,Win32,60.07449237,,,,,,,,,,,,,,,,,,,1,0.6841,0,1,1,1,1,,,,,,,,,
,,,,,,,,,,,,,,,third,3,21,female,right,donders,2021-07-08_11h02.59.595,ImageRatingTask_S1,2021.1.4,Win32,60.07449237,,,,,,,,,,,,,,,,,,,6,0.8176,0,2,2,2,1,,,,,,,,,
,,,,,,,,,,,,,,,fourth,3,21,female,right,donders,2021-07-08_11h02.59.595,ImageRatingTask_S1,2021.1.4,Win32,60.07449237,,,,,,,,,,,,,,,,,,,,,0,3,3,3,1,,,,,,,,,
,,,,,,,,,,,,,,,fifth,3,21,female,right,donders,2021-07-08_11h02.59.595,ImageRatingTask_S1,2021.1.4,Win32,60.07449237,,,,,,,,,,,,,,,,,,,,,0,4,4,4,1,,,,,,,,,
,,,,,,,,,,,,,,,sixth,3,21,female,right,donders,2021-07-08_11h02.59.595,ImageRatingTask_S1,2021.1.4,Win32,60.07449237,,,,,,,,,,,,,,,,,,,,,0,5,5,5,1,,,,,,,,,
,,,,,,,,,,,,,,,seventh,3,21,female,right,donders,2021-07-08_11h02.59.595,ImageRatingTask_S1,2021.1.4,Win32,60.07449237,,,,,,,,,,,,,,,,,,,,,0,6,6,6,1,,,,,,,,,
,,,,,,,,,,,,,,,last,3,21,female,right,donders,2021-07-08_11h02.59.595,ImageRatingTask_S1,2021.1.4,Win32,60.07449237,,,,,,,,,,,,,,,,,,,,,0,7,7,7,1,,,,,,,,,
,,,,,,,,,,,,,,,,3,21,female,right,donders,2021-07-08_11h02.59.595,ImageRatingTask_S1,2021.1.4,Win32,60.07449237,,,,,,,,,,,,,,,,,,,,,,,,,,0,5,5,20,1,DreamStudyImages_rs1000x750g/Children/IAPS2308_makeupgirl_humans.jpg,,,
,,,,,,,,,,,,,,,main,3,21,female,right,donders,2021-07-08_11h02.59.595,ImageRatingTask_S1,2021.1.4,Win32,60.07449237,,,,,,,,,,,7,2.3462,3,1.4101,8,2.4167,1,1.5834,2,0.5826,0,0,0,0,1,,,,,,,,,
,,,,,,,,,,,,,,,second,3,21,female,right,donders,2021-07-08_11h02.59.595,ImageRatingTask_S1,2021.1.4,Win32,60.07449237,,,,,,,,,,,,,,,,,,,,,0,1,1,1,1,,,,,,,,,
,,,,,,,,,,,,,,,third,3,21,female,right,donders,2021-07-08_11h02.59.595,ImageRatingTask_S1,2021.1.4,Win32,60.07449237,,,,,,,,,,,,,,,,,,,,,0,2,2,2,1,,,,,,,,,
,,,,,,,,,,,,,,,fourth,3,21,female,right,donders,2021-07-08_11h02.59.595,ImageRatingTask_S1,2021.1.4,Win32,60.07449237,,,,,,,,,,,,,,,,,,,,,0,3,3,3,1,,,,,,,,,
,,,,,,,,,,,,,,,fifth,3,21,female,right,donders,2021-07-08_11h02.59.595,ImageRatingTask_S1,2021.1.4,Win32,60.07449237,,,,,,,,,,,,,,,,,,,,,0,4,4,4,1,,,,,,,,,
,,,,,,,,,,,,,,,sixth,3,21,female,right,donders,2021-07-08_11h02.59.595,ImageRatingTask_S1,2021.1.4,Win32,60.07449237,,,,,,,,,,,,,,,,,,,,,0,5,5,5,1,,,,,,,,,
,,,,,,,,,,,,,,,seventh,3,21,female,right,donders,2021-07-08_11h02.59.595,ImageRatingTask_S1,2021.1.4,Win32,60.07449237,,,,,,,,,,,,,,,,,,,,,0,6,6,6,1,,,,,,,,,
,,,,,,,,,,,,,,,last,3,21,female,right,donders,2021-07-08_11h02.59.595,ImageRatingTask_S1,2021.1.4,Win32,60.07449237,,,,,,,,,,,,,,,,,,,,,0,7,7,7,1,,,,,,,,,
,,,,,,,,,,,,,,,,3,21,female,right,donders,2021-07-08_11h02.59.595,ImageRatingTask_S1,2021.1.4,Win32,60.07449237,,,,,,,,,,,,,,,,,,,,,,,,,,0,6,6,115,1,DreamStudyImages_rs1000x750g/Children/Baby 5.jpg,,,
,,,,,,,,,,,,,,,main,3,21,female,right,donders,2021-07-08_11h02.59.595,ImageRatingTask_S1,2021.1.4,Win32,60.07449237,,,,,,,,,,,6,3.9556,1,1.4888,7,2.4671,1,3.9718,8,0.7794,0,0,0,0,1,,,,,,,,,
,,,,,,,,,,,,,,,second,3,21,female,right,donders,2021-07-08_11h02.59.595,ImageRatingTask_S1,2021.1.4,Win32,60.07449237,,,,,,,,,,,,,,,,,,,,,0,1,1,1,1,,,,,,,,,
,,,,,,,,,,,,,,,third,3,21,female,right,donders,2021-07-08_11h02.59.595,ImageRatingTask_S1,2021.1.4,Win32,60.07449237,,,,,,,,,,,,,,,,,,,,,0,2,2,2,1,,,,,,,,,
,,,,,,,,,,,,,,,fourth,3,21,female,right,donders,2021-07-08_11h02.59.595,ImageRatingTask_S1,2021.1.4,Win32,60.07449237,,,,,,,,,,,,,,,,,,,,,0,3,3,3,1,,,,,,,,,
,,,,,,,,,,,,,,,fifth,3,21,female,right,donders,2021-07-08_11h02.59.595,ImageRatingTask_S1,2021.1.4,Win32,60.07449237,,,,,,,,,,,,,,,,,,,,,0,4,4,4,1,,,,,,,,,
,,,,,,,,,,,,,,,sixth,3,21,female,right,donders,2021-07-08_11h02.59.595,ImageRatingTask_S1,2021.1.4,Win32,60.07449237,,,,,,,,,,,,,,,,,,,,,0,5,5,5,1,,,,,,,,,
,,,,,,,,,,,,,,,seventh,3,21,female,right,donders,2021-07-08_11h02.59.595,ImageRatingTask_S1,2021.1.4,Win32,60.07449237,,,,,,,,,,,,,,,,,,,,,0,6,6,6,1,,,,,,,,,
,,,,,,,,,,,,,,,last,3,21,female,right,donders,2021-07-08_11h02.59.595,ImageRatingTask_S1,2021.1.4,Win32,60.07449237,,,,,,,,,,,,,,,,,,,,,0,7,7,7,1,,,,,,,,,
,,,,,,,,,,,,,,,,3,21,female,right,donders,2021-07-08_11h02.59.595,ImageRatingTask_S1,2021.1.4,Win32,60.07449237,,,,,,,,,,,,,,,,,,,,,,,,,,0,7,7,159,1,DreamStudyImages_rs1000x750g/Water/IAPS5760_lake.jpg,,,
,,,,,,,,,,,,,,,main,3,21,female,right,donders,2021-07-08_11h02.59.595,ImageRatingTask_S1,2021.1.4,Win32,60.07449237,,,,,,,,,,,5,5.9292,1,0.6562,7,13.3266,3,7.8221,8,2.4187,0,0,0,0,1,,,,,,,,,
,,,,,,,,,,,,,,,second,3,21,female,right,donders,2021-07-08_11h02.59.595,ImageRatingTask_S1,2021.1.4,Win32,60.07449237,,,,,,,,,,,,,,,,,,,1,1.3908,0,1,1,1,1,,,,,,,,,
,,,,,,,,,,,,,,,third,3,21,female,right,donders,2021-07-08_11h02.59.595,ImageRatingTask_S1,2021.1.4,Win32,60.07449237,,,,,,,,,,,,,,,,,,,2,0.3335,0,2,2,2,1,,,,,,,,,
,,,,,,,,,,,,,,,fourth,3,21,female,right,donders,2021-07-08_11h02.59.595,ImageRatingTask_S1,2021.1.4,Win32,60.07449237,,,,,,,,,,,,,,,,,,,,,0,3,3,3,1,,,,,,,,,
,,,,,,,,,,,,,,,fifth,3,21,female,right,donders,2021-07-08_11h02.59.595,ImageRatingTask_S1,2021.1.4,Win32,60.07449237,,,,,,,,,,,,,,,,,,,,,0,4,4,4,1,,,,,,,,,
,,,,,,,,,,,,,,,sixth,3,21,female,right,donders,2021-07-08_11h02.59.595,ImageRatingTask_S1,2021.1.4,Win32,60.07449237,,,,,,,,,,,,,,,,,,,,,0,5,5,5,1,,,,,,,,,
,,,,,,,,,,,,,,,seventh,3,21,female,right,donders,2021-07-08_11h02.59.595,ImageRatingTask_S1,2021.1.4,Win32,60.07449237,,,,,,,,,,,,,,,,,,,,,0,6,6,6,1,,,,,,,,,
,,,,,,,,,,,,,,,last,3,21,female,right,donders,2021-07-08_11h02.59.595,ImageRatingTask_S1,2021.1.4,Win32,60.07449237,,,,,,,,,,,,,,,,,,,,,0,7,7,7,1,,,,,,,,,
,,,,,,,,,,,,,,,,3,21,female,right,donders,2021-07-08_11h02.59.595,ImageRatingTask_S1,2021.1.4,Win32,60.07449237,,,,,,,,,,,,,,,,,,,,,,,,,,0,8,8,3,1,DreamStudyImages_rs1000x750g/Water/5833.jpg,,,
,,,,,,,,,,,,,,,main,3,21,female,right,donders,2021-07-08_11h02.59.595,ImageRatingTask_S1,2021.1.4,Win32,60.07449237,,,,,,,,,,,6,2.0824,2,3.1046,8,2.7231,1,1.8178,8,0.8585,0,0,0,0,1,,,,,,,,,
,,,,,,,,,,,,,,,second,3,21,female,right,donders,2021-07-08_11h02.59.595,ImageRatingTask_S1,2021.1.4,Win32,60.07449237,,,,,,,,,,,,,,,,,,,,,0,1,1,1,1,,,,,,,,,
,,,,,,,,,,,,,,,third,3,21,female,right,donders,2021-07-08_11h02.59.595,ImageRatingTask_S1,2021.1.4,Win32,60.07449237,,,,,,,,,,,,,,,,,,,,,0,2,2,2,1,,,,,,,,,
,,,,,,,,,,,,,,,fourth,3,21,female,right,donders,2021-07-08_11h02.59.595,ImageRatingTask_S1,2021.1.4,Win32,60.07449237,,,,,,,,,,,,,,,,,,,,,0,3,3,3,1,,,,,,,,,
,,,,,,,,,,,,,,,fifth,3,21,female,right,donders,2021-07-08_11h02.59.595,ImageRatingTask_S1,2021.1.4,Win32,60.07449237,,,,,,,,,,,,,,,,,,,,,0,4,4,4,1,,,,,,,,,
,,,,,,,,,,,,,,,sixth,3,21,female,right,donders,2021-07-08_11h02.59.595,ImageRatingTask_S1,2021.1.4,Win32,60.07449237,,,,,,,,,,,,,,,,,,,,,0,5,5,5,1,,,,,,,,,
,,,,,,,,,,,,,,,seventh,3,21,female,right,donders,2021-07-08_11h02.59.595,ImageRatingTask_S1,2021.1.4,Win32,60.07449237,,,,,,,,,,,,,,,,,,,,,0,6,6,6,1,,,,,,,,,
,,,,,,,,,,,,,,,last,3,21,female,right,donders,2021-07-08_11h02.59.595,ImageRatingTask_S1,2021.1.4,Win32,60.07449237,,,,,,,,,,,,,,,,,,,,,0,7,7,7,1,,,,,,,,,
,,,,,,,,,,,,,,,,3,21,female,right,donders,2021-07-08_11h02.59.595,ImageRatingTask_S1,2021.1.4,Win32,60.07449237,,,,,,,,,,,,,,,,,,,,,,,,,,0,9,9,109,1,DreamStudyImages_rs1000x750g/Water/Lake 5.jpg,,,
,,,,,,,,,,,,,,,main,3,21,female,right,donders,2021-07-08_11h02.59.595,ImageRatingTask_S1,2021.1.4,Win32,60.07449237,,,,,,,,,,,8,2.5457,5,2.13,8,6.4762,1,1.8419,3,1.0497,0,0,0,0,1,,,,,,,,,
,,,,,,,,,,,,,,,second,3,21,female,right,donders,2021-07-08_11h02.59.595,ImageRatingTask_S1,2021.1.4,Win32,60.07449237,,,,,,,,,,,,,,,,,,,,,0,1,1,1,1,,,,,,,,,
,,,,,,,,,,,,,,,third,3,21,female,right,donders,2021-07-08_11h02.59.595,ImageRatingTask_S1,2021.1.4,Win32,60.07449237,,,,,,,,,,,,,,,,,,,,,0,2,2,2,1,,,,,,,,,
,,,,,,,,,,,,,,,fourth,3,21,female,right,donders,2021-07-08_11h02.59.595,ImageRatingTask_S1,2021.1.4,Win32,60.07449237,,,,,,,,,,,,,,,,,,,,,0,3,3,3,1,,,,,,,,,
,,,,,,,,,,,,,,,fifth,3,21,female,right,donders,2021-07-08_11h02.59.595,ImageRatingTask_S1,2021.1.4,Win32,60.07449237,,,,,,,,,,,,,,,,,,,,,0,4,4,4,1,,,,,,,,,
,,,,,,,,,,,,,,,sixth,3,21,female,right,donders,2021-07-08_11h02.59.595,ImageRatingTask_S1,2021.1.4,Win32,60.07449237,,,,,,,,,,,,,,,,,,,,,0,5,5,5,1,,,,,,,,,
,,,,,,,,,,,,,,,seventh,3,21,female,right,donders,2021-07-08_11h02.59.595,ImageRatingTask_S1,2021.1.4,Win32,60.07449237,,,,,,,,,,,,,,,,,,,,,0,6,6,6,1,,,,,,,,,
,,,,,,,,,,,,,,,last,3,21,female,right,donders,2021-07-08_11h02.59.595,ImageRatingTask_S1,2021.1.4,Win32,60.07449237,,,,,,,,,,,,,,,,,,,,,0,7,7,7,1,,,,,,,,,
,,,,,,,,,,,,,,,,3,21,female,right,donders,2021-07-08_11h02.59.595,ImageRatingTask_S1,2021.1.4,Win32,60.07449237,,,,,,,,,,,,,,,,,,,,,,,,,,0,10,10,141,1,DreamStudyImages_rs1000x750g/Mammals/IAPS1710_puppies.jpg,,,
,,,,,,,,,,,,,,,main,3,21,female,right,donders,2021-07-08_11h02.59.595,ImageRatingTask_S1,2021.1.4,Win32,60.07449237,,,,,,,,,,,3,8.6645,3,3.9343,9,3.3246,1,2.5287,5,1.0539,0,0,0,0,1,,,,,,,,,
,,,,,,,,,,,,,,,second,3,21,female,right,donders,2021-07-08_11h02.59.595,ImageRatingTask_S1,2021.1.4,Win32,60.07449237,,,,,,,,,,,,,,,,,,,,,0,1,1,1,1,,,,,,,,,
,,,,,,,,,,,,,,,third,3,21,female,right,donders,2021-07-08_11h02.59.595,ImageRatingTask_S1,2021.1.4,Win32,60.07449237,,,,,,,,,,,,,,,,,,,,,0,2,2,2,1,,,,,,,,,
,,,,,,,,,,,,,,,fourth,3,21,female,right,donders,2021-07-08_11h02.59.595,ImageRatingTask_S1,2021.1.4,Win32,60.07449237,,,,,,,,,,,,,,,,,,,,,0,3,3,3,1,,,,,,,,,
,,,,,,,,,,,,,,,fifth,3,21,female,right,donders,2021-07-08_11h02.59.595,ImageRatingTask_S1,2021.1.4,Win32,60.07449237,,,,,,,,,,,,,,,,,,,,,0,4,4,4,1,,,,,,,,,
,,,,,,,,,,,,,,,sixth,3,21,female,right,donders,2021-07-08_11h02.59.595,ImageRatingTask_S1,2021.1.4,Win32,60.07449237,,,,,,,,,,,,,,,,,,,,,0,5,5,5,1,,,,,,,,,
,,,,,,,,,,,,,,,seventh,3,21,female,right,donders,2021-07-08_11h02.59.595,ImageRatingTask_S1,2021.1.4,Win32,60.07449237,,,,,,,,,,,,,,,,,,,,,0,6,6,6,1,,,,,,,,,
,,,,,,,,,,,,,,,last,3,21,female,right,donders,2021-07-08_11h02.59.595,ImageRatingTask_S1,2021.1.4,Win32,60.07449237,,,,,,,,,,,,,,,,,,,,,0,7,7,7,1,,,,,,,,,
,,,,,,,,,,,,,,,,3,21,female,right,donders,2021-07-08_11h02.59.595,ImageRatingTask_S1,2021.1.4,Win32,60.07449237,,,,,,,,,,,,,,,,,,,,,,,,,,0,11,11,103,1,DreamStudyImages_rs1000x750g/Food/food_neg.jpg,,,
,,,,,,,,,,,,,,,main,3,21,female,right,donders,2021-07-08_11h02.59.595,ImageRatingTask_S1,2021.1.4,Win32,60.07449237,,,,,,,,,,,5,2.3581,1,1.0394,9,3.3206,1,6.3942,6,1.5508,0,0,0,0,1,,,,,,,,,
,,,,,,,,,,,,,,,second,3,21,female,right,donders,2021-07-08_11h02.59.595,ImageRatingTask_S1,2021.1.4,Win32,60.07449237,,,,,,,,,,,,,,,,,,,,,0,1,1,1,1,,,,,,,,,
,,,,,,,,,,,,,,,third,3,21,female,right,donders,2021-07-08_11h02.59.595,ImageRatingTask_S1,2021.1.4,Win32,60.07449237,,,,,,,,,,,,,,,,,,,,,0,2,2,2,1,,,,,,,,,
,,,,,,,,,,,,,,,fourth,3,21,female,right,donders,2021-07-08_11h02.59.595,ImageRatingTask_S1,2021.1.4,Win32,60.07449237,,,,,,,,,,,,,,,,,,,,,0,3,3,3,1,,,,,,,,,
,,,,,,,,,,,,,,,fifth,3,21,female,right,donders,2021-07-08_11h02.59.595,ImageRatingTask_S1,2021.1.4,Win32,60.07449237,,,,,,,,,,,,,,,,,,,,,0,4,4,4,1,,,,,,,,,
,,,,,,,,,,,,,,,sixth,3,21,female,right,donders,2021-07-08_11h02.59.595,ImageRatingTask_S1,2021.1.4,Win32,60.07449237,,,,,,,,,,,,,,,,,,,,,0,5,5,5,1,,,,,,,,,
,,,,,,,,,,,,,,,seventh,3,21,female,right,donders,2021-07-08_11h02.59.595,ImageRatingTask_S1,2021.1.4,Win32,60.07449237,,,,,,,,,,,,,,,,,,,,,0,6,6,6,1,,,,,,,,,
,,,,,,,,,,,,,,,last,3,21,female,right,donders,2021-07-08_11h02.59.595,ImageRatingTask_S1,2021.1.4,Win32,60.07449237,,,,,,,,,,,,,,,,,,,,,0,7,7,7,1,,,,,,,,,
,,,,,,,,,,,,,,,,3,21,female,right,donders,2021-07-08_11h02.59.595,ImageRatingTask_S1,2021.1.4,Win32,60.07449237,,,,,,,,,,,,,,,,,,,,,,,,,,0,12,12,70,1,DreamStudyImages_rs1000x750g/Houses/Objects_162_h.jpg,,,
,,,,,,,,,,,,,,,main,3,21,female,right,donders,2021-07-08_11h02.59.595,ImageRatingTask_S1,2021.1.4,Win32,60.07449237,,,,,,,,,,,6,7.7557,2,0.9255,9,2.8002,1,5.2322,5,1.2498,0,0,0,0,1,,,,,,,,,
,,,,,,,,,,,,,,,second,3,21,female,right,donders,2021-07-08_11h02.59.595,ImageRatingTask_S1,2021.1.4,Win32,60.07449237,,,,,,,,,,,,,,,,,,,,,0,1,1,1,1,,,,,,,,,
,,,,,,,,,,,,,,,third,3,21,female,right,donders,2021-07-08_11h02.59.595,ImageRatingTask_S1,2021.1.4,Win32,60.07449237,,,,,,,,,,,,,,,,,,,,,0,2,2,2,1,,,,,,,,,
,,,,,,,,,,,,,,,fourth,3,21,female,right,donders,2021-07-08_11h02.59.595,ImageRatingTask_S1,2021.1.4,Win32,60.07449237,,,,,,,,,,,,,,,,,,,,,0,3,3,3,1,,,,,,,,,
,,,,,,,,,,,,,,,fifth,3,21,female,right,donders,2021-07-08_11h02.59.595,ImageRatingTask_S1,2021.1.4,Win32,60.07449237,,,,,,,,,,,,,,,,,,,,,0,4,4,4,1,,,,,,,,,
,,,,,,,,,,,,,,,sixth,3,21,female,right,donders,2021-07-08_11h02.59.595,ImageRatingTask_S1,2021.1.4,Win32,60.07449237,,,,,,,,,,,,,,,,,,,,,0,5,5,5,1,,,,,,,,,
,,,,,,,,,,,,,,,seventh,3,21,female,right,donders,2021-07-08_11h02.59.595,ImageRatingTask_S1,2021.1.4,Win32,60.07449237,,,,,,,,,,,,,,,,,,,,,0,6,6,6,1,,,,,,,,,
,,,,,,,,,,,,,,,last,3,21,female,right,donders,2021-07-08_11h02.59.595,ImageRatingTask_S1,2021.1.4,Win32,60.07449237,,,,,,,,,,,,,,,,,,,,,0,7,7,7,1,,,,,,,,,
,,,,,,,,,,,,,,,,3,21,female,right,donders,2021-07-08_11h02.59.595,ImageRatingTask_S1,2021.1.4,Win32,60.07449237,,,,,,,,,,,,,,,,,,,,,,,,,,0,13,13,30,1,DreamStudyImages_rs1000x750g/Food/Objects_025_h.jpg,,,
,,,,,,,,,,,,,,,main,3,21,female,right,donders,2021-07-08_11h02.59.595,ImageRatingTask_S1,2021.1.4,Win32,60.07449237,,,,,,,,,,,5,2.198,1,0.6115,8,1.8665,1,1.167,6,0.701,0,0,0,0,1,,,,,,,,,
,,,,,,,,,,,,,,,second,3,21,female,right,donders,2021-07-08_11h02.59.595,ImageRatingTask_S1,2021.1.4,Win32,60.07449237,,,,,,,,,,,,,,,,,,,,,0,1,1,1,1,,,,,,,,,
,,,,,,,,,,,,,,,third,3,21,female,right,donders,2021-07-08_11h02.59.595,ImageRatingTask_S1,2021.1.4,Win32,60.07449237,,,,,,,,,,,,,,,,,,,,,0,2,2,2,1,,,,,,,,,
,,,,,,,,,,,,,,,fourth,3,21,female,right,donders,2021-07-08_11h02.59.595,ImageRatingTask_S1,2021.1.4,Win32,60.07449237,,,,,,,,,,,,,,,,,,,,,0,3,3,3,1,,,,,,,,,
,,,,,,,,,,,,,,,fifth,3,21,female,right,donders,2021-07-08_11h02.59.595,ImageRatingTask_S1,2021.1.4,Win32,60.07449237,,,,,,,,,,,,,,,,,,,,,0,4,4,4,1,,,,,,,,,
,,,,,,,,,,,,,,,sixth,3,21,female,right,donders,2021-07-08_11h02.59.595,ImageRatingTask_S1,2021.1.4,Win32,60.07449237,,,,,,,,,,,,,,,,,,,,,0,5,5,5,1,,,,,,,,,
,,,,,,,,,,,,,,,seventh,3,21,female,right,donders,2021-07-08_11h02.59.595,ImageRatingTask_S1,2021.1.4,Win32,60.07449237,,,,,,,,,,,,,,,,,,,,,0,6,6,6,1,,,,,,,,,
,,,,,,,,,,,,,,,last,3,21,female,right,donders,2021-07-08_11h02.59.595,ImageRatingTask_S1,2021.1.4,Win32,60.07449237,,,,,,,,,,,,,,,,,,,,,0,7,7,7,1,,,,,,,,,
,,,,,,,,,,,,,,,,3,21,female,right,donders,2021-07-08_11h02.59.595,ImageRatingTask_S1,2021.1.4,Win32,60.07449237,,,,,,,,,,,,,,,,,,,,,,,,,,0,14,14,15,1,DreamStudyImages_rs1000x750g/Houses/Landscapes_079_v.jpg,,,
,,,,,,,,,,,,,,,main,3,21,female,right,donders,2021-07-08_11h02.59.595,ImageRatingTask_S1,2021.1.4,Win32,60.07449237,,,,,,,,,,,5,2.0011,1,0.8866,8,2.3253,1,1.4589,7,1.0221,0,0,0,0,1,,,,,,,,,
,,,,,,,,,,,,,,,second,3,21,female,right,donders,2021-07-08_11h02.59.595,ImageRatingTask_S1,2021.1.4,Win32,60.07449237,,,,,,,,,,,,,,,,,,,,,0,1,1,1,1,,,,,,,,,
,,,,,,,,,,,,,,,third,3,21,female,right,donders,2021-07-08_11h02.59.595,ImageRatingTask_S1,2021.1.4,Win32,60.07449237,,,,,,,,,,,,,,,,,,,,,0,2,2,2,1,,,,,,,,,
,,,,,,,,,,,,,,,fourth,3,21,female,right,donders,2021-07-08_11h02.59.595,ImageRatingTask_S1,2021.1.4,Win32,60.07449237,,,,,,,,,,,,,,,,,,,,,0,3,3,3,1,,,,,,,,,
,,,,,,,,,,,,,,,fifth,3,21,female,right,donders,2021-07-08_11h02.59.595,ImageRatingTask_S1,2021.1.4,Win32,60.07449237,,,,,,,,,,,,,,,,,,,,,0,4,4,4,1,,,,,,,,,
,,,,,,,,,,,,,,,sixth,3,21,female,right,donders,2021-07-08_11h02.59.595,ImageRatingTask_S1,2021.1.4,Win32,60.07449237,,,,,,,,,,,,,,,,,,,,,0,5,5,5,1,,,,,,,,,
,,,,,,,,,,,,,,,seventh,3,21,female,right,donders,2021-07-08_11h02.59.595,ImageRatingTask_S1,2021.1.4,Win32,60.07449237,,,,,,,,,,,,,,,,,,,,,0,6,6,6,1,,,,,,,,,
,,,,,,,,,,,,,,,last,3,21,female,right,donders,2021-07-08_11h02.59.595,ImageRatingTask_S1,2021.1.4,Win32,60.07449237,,,,,,,,,,,,,,,,,,,,,0,7,7,7,1,,,,,,,,,
,,,,,,,,,,,,,,,,3,21,female,right,donders,2021-07-08_11h02.59.595,ImageRatingTask_S1,2021.1.4,Win32,60.07449237,,,,,,,,,,,,,,,,,,,,,,,,,,0,15,15,127,1,DreamStudyImages_rs1000x750g/Vehicles/Objects_312_h.jpg,,,
,,,,,,,,,,,,,,,main,3,21,female,right,donders,2021-07-08_11h02.59.595,ImageRatingTask_S1,2021.1.4,Win32,60.07449237,,,,,,,,,,,6,2.0989,2,1.2863,7,1.4504,1,1.0415,2,0.8898,0,0,0,0,1,,,,,,,,,
,,,,,,,,,,,,,,,second,3,21,female,right,donders,2021-07-08_11h02.59.595,ImageRatingTask_S1,2021.1.4,Win32,60.07449237,,,,,,,,,,,,,,,,,,,,,0,1,1,1,1,,,,,,,,,
,,,,,,,,,,,,,,,third,3,21,female,right,donders,2021-07-08_11h02.59.595,ImageRatingTask_S1,2021.1.4,Win32,60.07449237,,,,,,,,,,,,,,,,,,,,,0,2,2,2,1,,,,,,,,,
,,,,,,,,,,,,,,,fourth,3,21,female,right,donders,2021-07-08_11h02.59.595,ImageRatingTask_S1,2021.1.4,Win32,60.07449237,,,,,,,,,,,,,,,,,,,,,0,3,3,3,1,,,,,,,,,
,,,,,,,,,,,,,,,fifth,3,21,female,right,donders,2021-07-08_11h02.59.595,ImageRatingTask_S1,2021.1.4,Win32,60.07449237,,,,,,,,,,,,,,,,,,,,,0,4,4,4,1,,,,,,,,,
,,,,,,,,,,,,,,,sixth,3,21,female,right,donders,2021-07-08_11h02.59.595,ImageRatingTask_S1,2021.1.4,Win32,60.07449237,,,,,,,,,,,,,,,,,,,,,0,5,5,5,1,,,,,,,,,
,,,,,,,,,,,,,,,seventh,3,21,female,right,donders,2021-07-08_11h02.59.595,ImageRatingTask_S1,2021.1.4,Win32,60.07449237,,,,,,,,,,,,,,,,,,,,,0,6,6,6,1,,,,,,,,,
,,,,,,,,,,,,,,,last,3,21,female,right,donders,2021-07-08_11h02.59.595,ImageRatingTask_S1,2021.1.4,Win32,60.07449237,,,,,,,,,,,,,,,,,,,,,0,7,7,7,1,,,,,,,,,
,,,,,,,,,,,,,,,,3,21,female,right,donders,2021-07-08_11h02.59.595,ImageRatingTask_S1,2021.1.4,Win32,60.07449237,,,,,,,,,,,,,,,,,,,,,,,,,,0,16,16,107,1,DreamStudyImages_rs1000x750g/Children/Baby 9.jpg,,,
,,,,,,,,,,,,,,,main,3,21,female,right,donders,2021-07-08_11h02.59.595,ImageRatingTask_S1,2021.1.4,Win32,60.07449237,,,,,,,,,,,4,3.6625,3,1.2277,9,6.2027,1,1.4941,3,1.0825,0,0,0,0,1,,,,,,,,,
,,,,,,,,,,,,,,,second,3,21,female,right,donders,2021-07-08_11h02.59.595,ImageRatingTask_S1,2021.1.4,Win32,60.07449237,,,,,,,,,,,,,,,,,,,,,0,1,1,1,1,,,,,,,,,
,,,,,,,,,,,,,,,third,3,21,female,right,donders,2021-07-08_11h02.59.595,ImageRatingTask_S1,2021.1.4,Win32,60.07449237,,,,,,,,,,,,,,,,,,,,,0,2,2,2,1,,,,,,,,,
,,,,,,,,,,,,,,,fourth,3,21,female,right,donders,2021-07-08_11h02.59.595,ImageRatingTask_S1,2021.1.4,Win32,60.07449237,,,,,,,,,,,,,,,,,,,,,0,3,3,3,1,,,,,,,,,
,,,,,,,,,,,,,,,fifth,3,21,female,right,donders,2021-07-08_11h02.59.595,ImageRatingTask_S1,2021.1.4,Win32,60.07449237,,,,,,,,,,,,,,,,,,,,,0,4,4,4,1,,,,,,,,,
,,,,,,,,,,,,,,,sixth,3,21,female,right,donders,2021-07-08_11h02.59.595,ImageRatingTask_S1,2021.1.4,Win32,60.07449237,,,,,,,,,,,,,,,,,,,,,0,5,5,5,1,,,,,,,,,
,,,,,,,,,,,,,,,seventh,3,21,female,right,donders,2021-07-08_11h02.59.595,ImageRatingTask_S1,2021.1.4,Win32,60.07449237,,,,,,,,,,,,,,,,,,,,,0,6,6,6,1,,,,,,,,,
,,,,,,,,,,,,,,,last,3,21,female,right,donders,2021-07-08_11h02.59.595,ImageRatingTask_S1,2021.1.4,Win32,60.07449237,,,,,,,,,,,,,,,,,,,,,0,7,7,7,1,,,,,,,,,
,,,,,,,,,,,,,,,,3,21,female,right,donders,2021-07-08_11h02.59.595,ImageRatingTask_S1,2021.1.4,Win32,60.07449237,,,,,,,,,,,,,,,,,,,,,,,,,,0,17,17,133,1,DreamStudyImages_rs1000x750g/Mammals/Animals_076_v.jpg,,,
,,,,,,,,,,,,,,,main,3,21,female,right,donders,2021-07-08_11h02.59.595,ImageRatingTask_S1,2021.1.4,Win32,60.07449237,,,,,,,,,,,7,4.2257,2,1.1805,9,2.5975,1,1.3414,8,0.8225,0,0,0,0,1,,,,,,,,,
,,,,,,,,,,,,,,,second,3,21,female,right,donders,2021-07-08_11h02.59.595,ImageRatingTask_S1,2021.1.4,Win32,60.07449237,,,,,,,,,,,,,,,,,,,,,0,1,1,1,1,,,,,,,,,
,,,,,,,,,,,,,,,third,3,21,female,right,donders,2021-07-08_11h02.59.595,ImageRatingTask_S1,2021.1.4,Win32,60.07449237,,,,,,,,,,,,,,,,,,,,,0,2,2,2,1,,,,,,,,,
,,,,,,,,,,,,,,,fourth,3,21,female,right,donders,2021-07-08_11h02.59.595,ImageRatingTask_S1,2021.1.4,Win32,60.07449237,,,,,,,,,,,,,,,,,,,,,0,3,3,3,1,,,,,,,,,
,,,,,,,,,,,,,,,fifth,3,21,female,right,donders,2021-07-08_11h02.59.595,ImageRatingTask_S1,2021.1.4,Win32,60.07449237,,,,,,,,,,,,,,,,,,,,,0,4,4,4,1,,,,,,,,,
,,,,,,,,,,,,,,,sixth,3,21,female,right,donders,2021-07-08_11h02.59.595,ImageRatingTask_S1,2021.1.4,Win32,60.07449237,,,,,,,,,,,,,,,,,,,,,0,5,5,5,1,,,,,,,,,
,,,,,,,,,,,,,,,seventh,3,21,female,right,donders,2021-07-08_11h02.59.595,ImageRatingTask_S1,2021.1.4,Win32,60.07449237,,,,,,,,,,,,,,,,,,,,,0,6,6,6,1,,,,,,,,,
,,,,,,,,,,,,,,,last,3,21,female,right,donders,2021-07-08_11h02.59.595,ImageRatingTask_S1,2021.1.4,Win32,60.07449237,,,,,,,,,,,,,,,,,,,,,0,7,7,7,1,,,,,,,,,
,,,,,,,,,,,,,,,,3,21,female,right,donders,2021-07-08_11h02.59.595,ImageRatingTask_S1,2021.1.4,Win32,60.07449237,,,,,,,,,,,,,,,,,,,,,,,,,,0,18,18,87,1,DreamStudyImages_rs1000x750g/Water/sunsetsea.jpg,,,
,,,,,,,,,,,,,,,main,3,21,female,right,donders,2021-07-08_11h02.59.595,ImageRatingTask_S1,2021.1.4,Win32,60.07449237,,,,,,,,,,,3,4.1435,4,3.2882,9,4.3394,1,2.0727,5,1.0433,0,0,0,0,1,,,,,,,,,
,,,,,,,,,,,,,,,second,3,21,female,right,donders,2021-07-08_11h02.59.595,ImageRatingTask_S1,2021.1.4,Win32,60.07449237,,,,,,,,,,,,,,,,,,,,,0,1,1,1,1,,,,,,,,,
,,,,,,,,,,,,,,,third,3,21,female,right,donders,2021-07-08_11h02.59.595,ImageRatingTask_S1,2021.1.4,Win32,60.07449237,,,,,,,,,,,,,,,,,,,,,0,2,2,2,1,,,,,,,,,
,,,,,,,,,,,,,,,fourth,3,21,female,right,donders,2021-07-08_11h02.59.595,ImageRatingTask_S1,2021.1.4,Win32,60.07449237,,,,,,,,,,,,,,,,,,,,,0,3,3,3,1,,,,,,,,,
,,,,,,,,,,,,,,,fifth,3,21,female,right,donders,2021-07-08_11h02.59.595,ImageRatingTask_S1,2021.1.4,Win32,60.07449237,,,,,,,,,,,,,,,,,,,,,0,4,4,4,1,,,,,,,,,
,,,,,,,,,,,,,,,sixth,3,21,female,right,donders,2021-07-08_11h02.59.595,ImageRatingTask_S1,2021.1.4,Win32,60.07449237,,,,,,,,,,,,,,,,,,,,,0,5,5,5,1,,,,,,,,,
,,,,,,,,,,,,,,,seventh,3,21,female,right,donders,2021-07-08_11h02.59.595,ImageRatingTask_S1,2021.1.4,Win32,60.07449237,,,,,,,,,,,,,,,,,,,,,0,6,6,6,1,,,,,,,,,
,,,,,,,,,,,,,,,last,3,21,female,right,donders,2021-07-08_11h02.59.595,ImageRatingTask_S1,2021.1.4,Win32,60.07449237,,,,,,,,,,,,,,,,,,,,,0,7,7,7,1,,,,,,,,,
,,,,,,,,,,,,,,,,3,21,female,right,donders,2021-07-08_11h02.59.595,ImageRatingTask_S1,2021.1.4,Win32,60.07449237,,,,,,,,,,,,,,,,,,,,,,,,,,0,19,19,14,1,DreamStudyImages_rs1000x750g/Food/Objects_106_v.jpg,,,
,,,,,,,,,,,,,,,main,3,21,female,right,donders,2021-07-08_11h02.59.595,ImageRatingTask_S1,2021.1.4,Win32,60.07449237,,,,,,,,,,,6,5.452,2,1.5685,9,1.6939,1,1.186,5,1.0782,0,0,0,0,1,,,,,,,,,
,,,,,,,,,,,,,,,second,3,21,female,right,donders,2021-07-08_11h02.59.595,ImageRatingTask_S1,2021.1.4,Win32,60.07449237,,,,,,,,,,,,,,,,,,,,,0,1,1,1,1,,,,,,,,,
,,,,,,,,,,,,,,,third,3,21,female,right,donders,2021-07-08_11h02.59.595,ImageRatingTask_S1,2021.1.4,Win32,60.07449237,,,,,,,,,,,,,,,,,,,,,0,2,2,2,1,,,,,,,,,
,,,,,,,,,,,,,,,fourth,3,21,female,right,donders,2021-07-08_11h02.59.595,ImageRatingTask_S1,2021.1.4,Win32,60.07449237,,,,,,,,,,,,,,,,,,,,,0,3,3,3,1,,,,,,,,,
,,,,,,,,,,,,,,,fifth,3,21,female,right,donders,2021-07-08_11h02.59.595,ImageRatingTask_S1,2021.1.4,Win32,60.07449237,,,,,,,,,,,,,,,,,,,,,0,4,4,4,1,,,,,,,,,
,,,,,,,,,,,,,,,sixth,3,21,female,right,donders,2021-07-08_11h02.59.595,ImageRatingTask_S1,2021.1.4,Win32,60.07449237,,,,,,,,,,,,,,,,,,,,,0,5,5,5,1,,,,,,,,,
,,,,,,,,,,,,,,,seventh,3,21,female,right,donders,2021-07-08_11h02.59.595,ImageRatingTask_S1,2021.1.4,Win32,60.07449237,,,,,,,,,,,,,,,,,,,,,0,6,6,6,1,,,,,,,,,
,,,,,,,,,,,,,,,last,3,21,female,right,donders,2021-07-08_11h02.59.595,ImageRatingTask_S1,2021.1.4,Win32,60.07449237,,,,,,,,,,,,,,,,,,,,,0,7,7,7,1,,,,,,,,,
,,,,,,,,,,,,,,,,3,21,female,right,donders,2021-07-08_11h02.59.595,ImageRatingTask_S1,2021.1.4,Win32,60.07449237,,,,,,,,,,,,,,,,,,,,,,,,,,0,20,20,86,1,DreamStudyImages_rs1000x750g/Food/Objects_032_v.jpg,,,
,,,,,,,,,,,,,,,main,3,21,female,right,donders,2021-07-08_11h02.59.595,ImageRatingTask_S1,2021.1.4,Win32,60.07449237,,,,,,,,,,,6,2.5312,2,1.4,9,1.3342,1,0.8659,8,1.0284,0,0,0,0,1,,,,,,,,,
,,,,,,,,,,,,,,,second,3,21,female,right,donders,2021-07-08_11h02.59.595,ImageRatingTask_S1,2021.1.4,Win32,60.07449237,,,,,,,,,,,,,,,,,,,,,0,1,1,1,1,,,,,,,,,
,,,,,,,,,,,,,,,third,3,21,female,right,donders,2021-07-08_11h02.59.595,ImageRatingTask_S1,2021.1.4,Win32,60.07449237,,,,,,,,,,,,,,,,,,,,,0,2,2,2,1,,,,,,,,,
,,,,,,,,,,,,,,,fourth,3,21,female,right,donders,2021-07-08_11h02.59.595,ImageRatingTask_S1,2021.1.4,Win32,60.07449237,,,,,,,,,,,,,,,,,,,,,0,3,3,3,1,,,,,,,,,
,,,,,,,,,,,,,,,fifth,3,21,female,right,donders,2021-07-08_11h02.59.595,ImageRatingTask_S1,2021.1.4,Win32,60.07449237,,,,,,,,,,,,,,,,,,,,,0,4,4,4,1,,,,,,,,,
,,,,,,,,,,,,,,,sixth,3,21,female,right,donders,2021-07-08_11h02.59.595,ImageRatingTask_S1,2021.1.4,Win32,60.07449237,,,,,,,,,,,,,,,,,,,,,0,5,5,5,1,,,,,,,,,
,,,,,,,,,,,,,,,seventh,3,21,female,right,donders,2021-07-08_11h02.59.595,ImageRatingTask_S1,2021.1.4,Win32,60.07449237,,,,,,,,,,,,,,,,,,,,,0,6,6,6,1,,,,,,,,,
,,,,,,,,,,,,,,,last,3,21,female,right,donders,2021-07-08_11h02.59.595,ImageRatingTask_S1,2021.1.4,Win32,60.07449237,,,,,,,,,,,,,,,,,,,,,0,7,7,7,1,,,,,,,,,
,,,,,,,,,,,,,,,,3,21,female,right,donders,2021-07-08_11h02.59.595,ImageRatingTask_S1,2021.1.4,Win32,60.07449237,,,,,,,,,,,,,,,,,,,,,,,,,,0,21,21,38,1,DreamStudyImages_rs1000x750g/Water/Sunset 4.jpg,,,
,,,,,,,,,,,,,,,main,3,21,female,right,donders,2021-07-08_11h02.59.595,ImageRatingTask_S1,2021.1.4,Win32,60.07449237,,,,,,,,,,,7,2.2376,3,4.9292,9,1.0233,1,1.699,5,0.9457,0,0,0,0,1,,,,,,,,,
,,,,,,,,,,,,,,,second,3,21,female,right,donders,2021-07-08_11h02.59.595,ImageRatingTask_S1,2021.1.4,Win32,60.07449237,,,,,,,,,,,,,,,,,,,,,0,1,1,1,1,,,,,,,,,
,,,,,,,,,,,,,,,third,3,21,female,right,donders,2021-07-08_11h02.59.595,ImageRatingTask_S1,2021.1.4,Win32,60.07449237,,,,,,,,,,,,,,,,,,,,,0,2,2,2,1,,,,,,,,,
,,,,,,,,,,,,,,,fourth,3,21,female,right,donders,2021-07-08_11h02.59.595,ImageRatingTask_S1,2021.1.4,Win32,60.07449237,,,,,,,,,,,,,,,,,,,,,0,3,3,3,1,,,,,,,,,
,,,,,,,,,,,,,,,fifth,3,21,female,right,donders,2021-07-08_11h02.59.595,ImageRatingTask_S1,2021.1.4,Win32,60.07449237,,,,,,,,,,,,,,,,,,,,,0,4,4,4,1,,,,,,,,,
,,,,,,,,,,,,,,,sixth,3,21,female,right,donders,2021-07-08_11h02.59.595,ImageRatingTask_S1,2021.1.4,Win32,60.07449237,,,,,,,,,,,,,,,,,,,,,0,5,5,5,1,,,,,,,,,
,,,,,,,,,,,,,,,seventh,3,21,female,right,donders,2021-07-08_11h02.59.595,ImageRatingTask_S1,2021.1.4,Win32,60.07449237,,,,,,,,,,,,,,,,,,,,,0,6,6,6,1,,,,,,,,,
,,,,,,,,,,,,,,,last,3,21,female,right,donders,2021-07-08_11h02.59.595,ImageRatingTask_S1,2021.1.4,Win32,60.07449237,,,,,,,,,,,,,,,,,,,,,0,7,7,7,1,,,,,,,,,
,,,,,,,,,,,,,,,,3,21,female,right,donders,2021-07-08_11h02.59.595,ImageRatingTask_S1,2021.1.4,Win32,60.07449237,,,,,,,,,,,,,,,,,,,,,,,,,,0,22,22,17,1,DreamStudyImages_rs1000x750g/Food/Objects_080_h.jpg,,,
,,,,,,,,,,,,,,,main,3,21,female,right,donders,2021-07-08_11h02.59.595,ImageRatingTask_S1,2021.1.4,Win32,60.07449237,,,,,,,,,,,6,9.3141,2,1.3602,9,1.4621,3,2.775,2,1.3285,0,0,0,0,1,,,,,,,,,
,,,,,,,,,,,,,,,second,3,21,female,right,donders,2021-07-08_11h02.59.595,ImageRatingTask_S1,2021.1.4,Win32,60.07449237,,,,,,,,,,,,,,,,,,,1,4.3843,0,1,1,1,1,,,,,,,,,
,,,,,,,,,,,,,,,third,3,21,female,right,donders,2021-07-08_11h02.59.595,ImageRatingTask_S1,2021.1.4,Win32,60.07449237,,,,,,,,,,,,,,,,,,,5,0.422,0,2,2,2,1,,,,,,,,,
,,,,,,,,,,,,,,,fourth,3,21,female,right,donders,2021-07-08_11h02.59.595,ImageRatingTask_S1,2021.1.4,Win32,60.07449237,,,,,,,,,,,,,,,,,,,,,0,3,3,3,1,,,,,,,,,
,,,,,,,,,,,,,,,fifth,3,21,female,right,donders,2021-07-08_11h02.59.595,ImageRatingTask_S1,2021.1.4,Win32,60.07449237,,,,,,,,,,,,,,,,,,,,,0,4,4,4,1,,,,,,,,,
,,,,,,,,,,,,,,,sixth,3,21,female,right,donders,2021-07-08_11h02.59.595,ImageRatingTask_S1,2021.1.4,Win32,60.07449237,,,,,,,,,,,,,,,,,,,,,0,5,5,5,1,,,,,,,,,
,,,,,,,,,,,,,,,seventh,3,21,female,right,donders,2021-07-08_11h02.59.595,ImageRatingTask_S1,2021.1.4,Win32,60.07449237,,,,,,,,,,,,,,,,,,,,,0,6,6,6,1,,,,,,,,,
,,,,,,,,,,,,,,,last,3,21,female,right,donders,2021-07-08_11h02.59.595,ImageRatingTask_S1,2021.1.4,Win32,60.07449237,,,,,,,,,,,,,,,,,,,,,0,7,7,7,1,,,,,,,,,
,,,,,,,,,,,,,,,,3,21,female,right,donders,2021-07-08_11h02.59.595,ImageRatingTask_S1,2021.1.4,Win32,60.07449237,,,,,,,,,,,,,,,,,,,,,,,,,,0,23,23,45,1,DreamStudyImages_rs1000x750g/Children/People_033_h.jpg,,,
,,,,,,,,,,,,,,,main,3,21,female,right,donders,2021-07-08_11h02.59.595,ImageRatingTask_S1,2021.1.4,Win32,60.07449237,,,,,,,,,,,5,5.1223,1,1.0547,8,1.7252,1,2.0813,8,0.8393,0,0,0,0,1,,,,,,,,,
,,,,,,,,,,,,,,,second,3,21,female,right,donders,2021-07-08_11h02.59.595,ImageRatingTask_S1,2021.1.4,Win32,60.07449237,,,,,,,,,,,,,,,,,,,,,0,1,1,1,1,,,,,,,,,
,,,,,,,,,,,,,,,third,3,21,female,right,donders,2021-07-08_11h02.59.595,ImageRatingTask_S1,2021.1.4,Win32,60.07449237,,,,,,,,,,,,,,,,,,,,,0,2,2,2,1,,,,,,,,,
,,,,,,,,,,,,,,,fourth,3,21,female,right,donders,2021-07-08_11h02.59.595,ImageRatingTask_S1,2021.1.4,Win32,60.07449237,,,,,,,,,,,,,,,,,,,,,0,3,3,3,1,,,,,,,,,
,,,,,,,,,,,,,,,fifth,3,21,female,right,donders,2021-07-08_11h02.59.595,ImageRatingTask_S1,2021.1.4,Win32,60.07449237,,,,,,,,,,,,,,,,,,,,,0,4,4,4,1,,,,,,,,,
,,,,,,,,,,,,,,,sixth,3,21,female,right,donders,2021-07-08_11h02.59.595,ImageRatingTask_S1,2021.1.4,Win32,60.07449237,,,,,,,,,,,,,,,,,,,,,0,5,5,5,1,,,,,,,,,
,,,,,,,,,,,,,,,seventh,3,21,female,right,donders,2021-07-08_11h02.59.595,ImageRatingTask_S1,2021.1.4,Win32,60.07449237,,,,,,,,,,,,,,,,,,,,,0,6,6,6,1,,,,,,,,,
,,,,,,,,,,,,,,,last,3,21,female,right,donders,2021-07-08_11h02.59.595,ImageRatingTask_S1,2021.1.4,Win32,60.07449237,,,,,,,,,,,,,,,,,,,,,0,7,7,7,1,,,,,,,,,
,,,,,,,,,,,,,,,,3,21,female,right,donders,2021-07-08_11h02.59.595,ImageRatingTask_S1,2021.1.4,Win32,60.07449237,,,,,,,,,,,,,,,,,,,,,,,,,,0,24,24,102,1,DreamStudyImages_rs1000x750g/Water/Lake 11.jpg,,,
,,,,,,,,,,,,,,,main,3,21,female,right,donders,2021-07-08_11h02.59.595,ImageRatingTask_S1,2021.1.4,Win32,60.07449237,,,,,,,,,,,6,4.5547,2,0.6511,9,2.1409,1,0.8634,3,2.4775,0,0,0,0,1,,,,,,,,,
,,,,,,,,,,,,,,,second,3,21,female,right,donders,2021-07-08_11h02.59.595,ImageRatingTask_S1,2021.1.4,Win32,60.07449237,,,,,,,,,,,,,,,,,,,,,0,1,1,1,1,,,,,,,,,
,,,,,,,,,,,,,,,third,3,21,female,right,donders,2021-07-08_11h02.59.595,ImageRatingTask_S1,2021.1.4,Win32,60.07449237,,,,,,,,,,,,,,,,,,,,,0,2,2,2,1,,,,,,,,,
,,,,,,,,,,,,,,,fourth,3,21,female,right,donders,2021-07-08_11h02.59.595,ImageRatingTask_S1,2021.1.4,Win32,60.07449237,,,,,,,,,,,,,,,,,,,,,0,3,3,3,1,,,,,,,,,
,,,,,,,,,,,,,,,fifth,3,21,female,right,donders,2021-07-08_11h02.59.595,ImageRatingTask_S1,2021.1.4,Win32,60.07449237,,,,,,,,,,,,,,,,,,,,,0,4,4,4,1,,,,,,,,,
,,,,,,,,,,,,,,,sixth,3,21,female,right,donders,2021-07-08_11h02.59.595,ImageRatingTask_S1,2021.1.4,Win32,60.07449237,,,,,,,,,,,,,,,,,,,,,0,5,5,5,1,,,,,,,,,
,,,,,,,,,,,,,,,seventh,3,21,female,right,donders,2021-07-08_11h02.59.595,ImageRatingTask_S1,2021.1.4,Win32,60.07449237,,,,,,,,,,,,,,,,,,,,,0,6,6,6,1,,,,,,,,,
,,,,,,,,,,,,,,,last,3,21,female,right,donders,2021-07-08_11h02.59.595,ImageRatingTask_S1,2021.1.4,Win32,60.07449237,,,,,,,,,,,,,,,,,,,,,0,7,7,7,1,,,,,,,,,
,,,,,,,,,,,,,,,,3,21,female,right,donders,2021-07-08_11h02.59.595,ImageRatingTask_S1,2021.1.4,Win32,60.07449237,,,,,,,,,,,,,,,,,,,,,,,,,,0,25,25,121,1,DreamStudyImages_rs1000x750g/Mammals/Animals_175_h.jpg,,,
,,,,,,,,,,,,,,,main,3,21,female,right,donders,2021-07-08_11h02.59.595,ImageRatingTask_S1,2021.1.4,Win32,60.07449237,,,,,,,,,,,5,4.7692,1,0.5107,7,1.8296,1,1.4983,6,0.91,0,0,0,0,1,,,,,,,,,
,,,,,,,,,,,,,,,second,3,21,female,right,donders,2021-07-08_11h02.59.595,ImageRatingTask_S1,2021.1.4,Win32,60.07449237,,,,,,,,,,,,,,,,,,,,,0,1,1,1,1,,,,,,,,,
,,,,,,,,,,,,,,,third,3,21,female,right,donders,2021-07-08_11h02.59.595,ImageRatingTask_S1,2021.1.4,Win32,60.07449237,,,,,,,,,,,,,,,,,,,,,0,2,2,2,1,,,,,,,,,
,,,,,,,,,,,,,,,fourth,3,21,female,right,donders,2021-07-08_11h02.59.595,ImageRatingTask_S1,2021.1.4,Win32,60.07449237,,,,,,,,,,,,,,,,,,,,,0,3,3,3,1,,,,,,,,,
,,,,,,,,,,,,,,,fifth,3,21,female,right,donders,2021-07-08_11h02.59.595,ImageRatingTask_S1,2021.1.4,Win32,60.07449237,,,,,,,,,,,,,,,,,,,,,0,4,4,4,1,,,,,,,,,
,,,,,,,,,,,,,,,sixth,3,21,female,right,donders,2021-07-08_11h02.59.595,ImageRatingTask_S1,2021.1.4,Win32,60.07449237,,,,,,,,,,,,,,,,,,,,,0,5,5,5,1,,,,,,,,,
,,,,,,,,,,,,,,,seventh,3,21,female,right,donders,2021-07-08_11h02.59.595,ImageRatingTask_S1,2021.1.4,Win32,60.07449237,,,,,,,,,,,,,,,,,,,,,0,6,6,6,1,,,,,,,,,
,,,,,,,,,,,,,,,last,3,21,female,right,donders,2021-07-08_11h02.59.595,ImageRatingTask_S1,2021.1.4,Win32,60.07449237,,,,,,,,,,,,,,,,,,,,,0,7,7,7,1,,,,,,,,,
,,,,,,,,,,,,,,,,3,21,female,right,donders,2021-07-08_11h02.59.595,ImageRatingTask_S1,2021.1.4,Win32,60.07449237,,,,,,,,,,,,,,,,,,,,,,,,,,0,26,26,71,1,DreamStudyImages_rs1000x750g/Houses/IAPS7242_building.jpg,,,
,,,,,,,,,,,,,,,main,3,21,female,right,donders,2021-07-08_11h02.59.595,ImageRatingTask_S1,2021.1.4,Win32,60.07449237,,,,,,,,,,,4,6.3233,3,1.3145,9,8.5803,1,2.0235,8,0.754,0,0,0,0,1,,,,,,,,,
,,,,,,,,,,,,,,,second,3,21,female,right,donders,2021-07-08_11h02.59.595,ImageRatingTask_S1,2021.1.4,Win32,60.07449237,,,,,,,,,,,,,,,,,,,,,0,1,1,1,1,,,,,,,,,
,,,,,,,,,,,,,,,third,3,21,female,right,donders,2021-07-08_11h02.59.595,ImageRatingTask_S1,2021.1.4,Win32,60.07449237,,,,,,,,,,,,,,,,,,,,,0,2,2,2,1,,,,,,,,,
,,,,,,,,,,,,,,,fourth,3,21,female,right,donders,2021-07-08_11h02.59.595,ImageRatingTask_S1,2021.1.4,Win32,60.07449237,,,,,,,,,,,,,,,,,,,,,0,3,3,3,1,,,,,,,,,
,,,,,,,,,,,,,,,fifth,3,21,female,right,donders,2021-07-08_11h02.59.595,ImageRatingTask_S1,2021.1.4,Win32,60.07449237,,,,,,,,,,,,,,,,,,,,,0,4,4,4,1,,,,,,,,,
,,,,,,,,,,,,,,,sixth,3,21,female,right,donders,2021-07-08_11h02.59.595,ImageRatingTask_S1,2021.1.4,Win32,60.07449237,,,,,,,,,,,,,,,,,,,,,0,5,5,5,1,,,,,,,,,
,,,,,,,,,,,,,,,seventh,3,21,female,right,donders,2021-07-08_11h02.59.595,ImageRatingTask_S1,2021.1.4,Win32,60.07449237,,,,,,,,,,,,,,,,,,,,,0,6,6,6,1,,,,,,,,,
,,,,,,,,,,,,,,,last,3,21,female,right,donders,2021-07-08_11h02.59.595,ImageRatingTask_S1,2021.1.4,Win32,60.07449237,,,,,,,,,,,,,,,,,,,,,0,7,7,7,1,,,,,,,,,
,,,,,,,,,,,,,,,,3,21,female,right,donders,2021-07-08_11h02.59.595,ImageRatingTask_S1,2021.1.4,Win32,60.07449237,,,,,,,,,,,,,,,,,,,,,,,,,,0,27,27,54,1,DreamStudyImages_rs1000x750g/Water/tunnelwithwater.jpg,,,
,,,,,,,,,,,,,,,main,3,21,female,right,donders,2021-07-08_11h02.59.595,ImageRatingTask_S1,2021.1.4,Win32,60.07449237,,,,,,,,,,,5,2.0055,1,0.4708,8,1.274,1,3.7591,6,0.6837,0,0,0,0,1,,,,,,,,,
,,,,,,,,,,,,,,,second,3,21,female,right,donders,2021-07-08_11h02.59.595,ImageRatingTask_S1,2021.1.4,Win32,60.07449237,,,,,,,,,,,,,,,,,,,,,0,1,1,1,1,,,,,,,,,
,,,,,,,,,,,,,,,third,3,21,female,right,donders,2021-07-08_11h02.59.595,ImageRatingTask_S1,2021.1.4,Win32,60.07449237,,,,,,,,,,,,,,,,,,,,,0,2,2,2,1,,,,,,,,,
,,,,,,,,,,,,,,,fourth,3,21,female,right,donders,2021-07-08_11h02.59.595,ImageRatingTask_S1,2021.1.4,Win32,60.07449237,,,,,,,,,,,,,,,,,,,,,0,3,3,3,1,,,,,,,,,
,,,,,,,,,,,,,,,fifth,3,21,female,right,donders,2021-07-08_11h02.59.595,ImageRatingTask_S1,2021.1.4,Win32,60.07449237,,,,,,,,,,,,,,,,,,,,,0,4,4,4,1,,,,,,,,,
,,,,,,,,,,,,,,,sixth,3,21,female,right,donders,2021-07-08_11h02.59.595,ImageRatingTask_S1,2021.1.4,Win32,60.07449237,,,,,,,,,,,,,,,,,,,,,0,5,5,5,1,,,,,,,,,
,,,,,,,,,,,,,,,seventh,3,21,female,right,donders,2021-07-08_11h02.59.595,ImageRatingTask_S1,2021.1.4,Win32,60.07449237,,,,,,,,,,,,,,,,,,,,,0,6,6,6,1,,,,,,,,,
,,,,,,,,,,,,,,,last,3,21,female,right,donders,2021-07-08_11h02.59.595,ImageRatingTask_S1,2021.1.4,Win32,60.07449237,,,,,,,,,,,,,,,,,,,,,0,7,7,7,1,,,,,,,,,
,,,,,,,,,,,,,,,,3,21,female,right,donders,2021-07-08_11h02.59.595,ImageRatingTask_S1,2021.1.4,Win32,60.07449237,,,,,,,,,,,,,,,,,,,,,,,,,,0,28,28,99,1,DreamStudyImages_rs1000x750g/Houses/Landscapes_037_v.jpg,,,
,,,,,,,,,,,,,,,main,3,21,female,right,donders,2021-07-08_11h02.59.595,ImageRatingTask_S1,2021.1.4,Win32,60.07449237,,,,,,,,,,,5,1.7013,1,1.2255,7,3.5176,1,1.3501,8,0.824,0,0,0,0,1,,,,,,,,,
,,,,,,,,,,,,,,,second,3,21,female,right,donders,2021-07-08_11h02.59.595,ImageRatingTask_S1,2021.1.4,Win32,60.07449237,,,,,,,,,,,,,,,,,,,,,0,1,1,1,1,,,,,,,,,
,,,,,,,,,,,,,,,third,3,21,female,right,donders,2021-07-08_11h02.59.595,ImageRatingTask_S1,2021.1.4,Win32,60.07449237,,,,,,,,,,,,,,,,,,,,,0,2,2,2,1,,,,,,,,,
,,,,,,,,,,,,,,,fourth,3,21,female,right,donders,2021-07-08_11h02.59.595,ImageRatingTask_S1,2021.1.4,Win32,60.07449237,,,,,,,,,,,,,,,,,,,,,0,3,3,3,1,,,,,,,,,
,,,,,,,,,,,,,,,fifth,3,21,female,right,donders,2021-07-08_11h02.59.595,ImageRatingTask_S1,2021.1.4,Win32,60.07449237,,,,,,,,,,,,,,,,,,,,,0,4,4,4,1,,,,,,,,,
,,,,,,,,,,,,,,,sixth,3,21,female,right,donders,2021-07-08_11h02.59.595,ImageRatingTask_S1,2021.1.4,Win32,60.07449237,,,,,,,,,,,,,,,,,,,,,0,5,5,5,1,,,,,,,,,
,,,,,,,,,,,,,,,seventh,3,21,female,right,donders,2021-07-08_11h02.59.595,ImageRatingTask_S1,2021.1.4,Win32,60.07449237,,,,,,,,,,,,,,,,,,,,,0,6,6,6,1,,,,,,,,,
,,,,,,,,,,,,,,,last,3,21,female,right,donders,2021-07-08_11h02.59.595,ImageRatingTask_S1,2021.1.4,Win32,60.07449237,,,,,,,,,,,,,,,,,,,,,0,7,7,7,1,,,,,,,,,
,,,,,,,,,,,,,,,,3,21,female,right,donders,2021-07-08_11h02.59.595,ImageRatingTask_S1,2021.1.4,Win32,60.07449237,,,,,,,,,,,,,,,,,,,,,,,,,,0,29,29,131,1,DreamStudyImages_rs1000x750g/Water/NDPS126_volcanicwater2.jpg,,,
,,,,,,,,,,,,,,,main,3,21,female,right,donders,2021-07-08_11h02.59.595,ImageRatingTask_S1,2021.1.4,Win32,60.07449237,,,,,,,,,,,4,2.9383,2,7.4606,7,1.2802,1,2.0918,7,0.5812,0,0,0,0,1,,,,,,,,,
,,,,,,,,,,,,,,,second,3,21,female,right,donders,2021-07-08_11h02.59.595,ImageRatingTask_S1,2021.1.4,Win32,60.07449237,,,,,,,,,,,,,,,,,,,,,0,1,1,1,1,,,,,,,,,
,,,,,,,,,,,,,,,third,3,21,female,right,donders,2021-07-08_11h02.59.595,ImageRatingTask_S1,2021.1.4,Win32,60.07449237,,,,,,,,,,,,,,,,,,,,,0,2,2,2,1,,,,,,,,,
,,,,,,,,,,,,,,,fourth,3,21,female,right,donders,2021-07-08_11h02.59.595,ImageRatingTask_S1,2021.1.4,Win32,60.07449237,,,,,,,,,,,,,,,,,,,,,0,3,3,3,1,,,,,,,,,
,,,,,,,,,,,,,,,fifth,3,21,female,right,donders,2021-07-08_11h02.59.595,ImageRatingTask_S1,2021.1.4,Win32,60.07449237,,,,,,,,,,,,,,,,,,,,,0,4,4,4,1,,,,,,,,,
,,,,,,,,,,,,,,,sixth,3,21,female,right,donders,2021-07-08_11h02.59.595,ImageRatingTask_S1,2021.1.4,Win32,60.07449237,,,,,,,,,,,,,,,,,,,,,0,5,5,5,1,,,,,,,,,
,,,,,,,,,,,,,,,seventh,3,21,female,right,donders,2021-07-08_11h02.59.595,ImageRatingTask_S1,2021.1.4,Win32,60.07449237,,,,,,,,,,,,,,,,,,,,,0,6,6,6,1,,,,,,,,,
,,,,,,,,,,,,,,,last,3,21,female,right,donders,2021-07-08_11h02.59.595,ImageRatingTask_S1,2021.1.4,Win32,60.07449237,,,,,,,,,,,,,,,,,,,,,0,7,7,7,1,,,,,,,,,
,,,,,,,,,,,,,,,,3,21,female,right,donders,2021-07-08_11h02.59.595,ImageRatingTask_S1,2021.1.4,Win32,60.07449237,,,,,,,,,,,,,,,,,,,,,,,,,,0,30,30,135,1,DreamStudyImages_rs1000x750g/Vehicles/Fire 7.jpg,,,
,,,,,,,,,,,,,,,main,3,21,female,right,donders,2021-07-08_11h02.59.595,ImageRatingTask_S1,2021.1.4,Win32,60.07449237,,,,,,,,,,,5,4.1623,1,0.7177,7,62.453,1,2.3398,2,0.8435,0,0,0,0,1,,,,,,,,,
,,,,,,,,,,,,,,,second,3,21,female,right,donders,2021-07-08_11h02.59.595,ImageRatingTask_S1,2021.1.4,Win32,60.07449237,,,,,,,,,,,,,,,,,,,,,0,1,1,1,1,,,,,,,,,
,,,,,,,,,,,,,,,third,3,21,female,right,donders,2021-07-08_11h02.59.595,ImageRatingTask_S1,2021.1.4,Win32,60.07449237,,,,,,,,,,,,,,,,,,,,,0,2,2,2,1,,,,,,,,,
,,,,,,,,,,,,,,,fourth,3,21,female,right,donders,2021-07-08_11h02.59.595,ImageRatingTask_S1,2021.1.4,Win32,60.07449237,,,,,,,,,,,,,,,,,,,,,0,3,3,3,1,,,,,,,,,
,,,,,,,,,,,,,,,fifth,3,21,female,right,donders,2021-07-08_11h02.59.595,ImageRatingTask_S1,2021.1.4,Win32,60.07449237,,,,,,,,,,,,,,,,,,,,,0,4,4,4,1,,,,,,,,,
,,,,,,,,,,,,,,,sixth,3,21,female,right,donders,2021-07-08_11h02.59.595,ImageRatingTask_S1,2021.1.4,Win32,60.07449237,,,,,,,,,,,,,,,,,,,,,0,5,5,5,1,,,,,,,,,
,,,,,,,,,,,,,,,seventh,3,21,female,right,donders,2021-07-08_11h02.59.595,ImageRatingTask_S1,2021.1.4,Win32,60.07449237,,,,,,,,,,,,,,,,,,,,,0,6,6,6,1,,,,,,,,,
,,,,,,,,,,,,,,,last,3,21,female,right,donders,2021-07-08_11h02.59.595,ImageRatingTask_S1,2021.1.4,Win32,60.07449237,,,,,,,,,,,,,,,,,,,,,0,7,7,7,1,,,,,,,,,
,,,,,,,,,,,,,,,,3,21,female,right,donders,2021-07-08_11h02.59.595,ImageRatingTask_S1,2021.1.4,Win32,60.07449237,,,,,,,,,,,,,,,,,,,,,,,,,,0,31,31,52,1,DreamStudyImages_rs1000x750g/Children/IAPS2387_children13.jpg,,,
,,,,,,,,,,,,,,,main,3,21,female,right,donders,2021-07-08_11h02.59.595,ImageRatingTask_S1,2021.1.4,Win32,60.07449237,,,,,,,,,,,6,18.0004,1,2.8735,7,2.2841,1,2.1718,2,1.0423,0,0,0,0,1,,,,,,,,,
,,,,,,,,,,,,,,,second,3,21,female,right,donders,2021-07-08_11h02.59.595,ImageRatingTask_S1,2021.1.4,Win32,60.07449237,,,,,,,,,,,,,,,,,,,,,0,1,1,1,1,,,,,,,,,
,,,,,,,,,,,,,,,third,3,21,female,right,donders,2021-07-08_11h02.59.595,ImageRatingTask_S1,2021.1.4,Win32,60.07449237,,,,,,,,,,,,,,,,,,,,,0,2,2,2,1,,,,,,,,,
,,,,,,,,,,,,,,,fourth,3,21,female,right,donders,2021-07-08_11h02.59.595,ImageRatingTask_S1,2021.1.4,Win32,60.07449237,,,,,,,,,,,,,,,,,,,,,0,3,3,3,1,,,,,,,,,
,,,,,,,,,,,,,,,fifth,3,21,female,right,donders,2021-07-08_11h02.59.595,ImageRatingTask_S1,2021.1.4,Win32,60.07449237,,,,,,,,,,,,,,,,,,,,,0,4,4,4,1,,,,,,,,,
,,,,,,,,,,,,,,,sixth,3,21,female,right,donders,2021-07-08_11h02.59.595,ImageRatingTask_S1,2021.1.4,Win32,60.07449237,,,,,,,,,,,,,,,,,,,,,0,5,5,5,1,,,,,,,,,
,,,,,,,,,,,,,,,seventh,3,21,female,right,donders,2021-07-08_11h02.59.595,ImageRatingTask_S1,2021.1.4,Win32,60.07449237,,,,,,,,,,,,,,,,,,,,,0,6,6,6,1,,,,,,,,,
,,,,,,,,,,,,,,,last,3,21,female,right,donders,2021-07-08_11h02.59.595,ImageRatingTask_S1,2021.1.4,Win32,60.07449237,,,,,,,,,,,,,,,,,,,,,0,7,7,7,1,,,,,,,,,
,,,,,,,,,,,,,,,,3,21,female,right,donders,2021-07-08_11h02.59.595,ImageRatingTask_S1,2021.1.4,Win32,60.07449237,,,,,,,,,,,,,,,,,,,,,,,,,,0,32,32,27,1,DreamStudyImages_rs1000x750g/Children/Faces_048_h.jpg,,,
,,,,,,,,,,,,,,,main,3,21,female,right,donders,2021-07-08_11h02.59.595,ImageRatingTask_S1,2021.1.4,Win32,60.07449237,,,,,,,,,,,8,3.4802,4,1.7755,8,2.124,1,1.9812,2,0.6261,0,0,0,0,1,,,,,,,,,
,,,,,,,,,,,,,,,second,3,21,female,right,donders,2021-07-08_11h02.59.595,ImageRatingTask_S1,2021.1.4,Win32,60.07449237,,,,,,,,,,,,,,,,,,,,,0,1,1,1,1,,,,,,,,,
,,,,,,,,,,,,,,,third,3,21,female,right,donders,2021-07-08_11h02.59.595,ImageRatingTask_S1,2021.1.4,Win32,60.07449237,,,,,,,,,,,,,,,,,,,,,0,2,2,2,1,,,,,,,,,
,,,,,,,,,,,,,,,fourth,3,21,female,right,donders,2021-07-08_11h02.59.595,ImageRatingTask_S1,2021.1.4,Win32,60.07449237,,,,,,,,,,,,,,,,,,,,,0,3,3,3,1,,,,,,,,,
,,,,,,,,,,,,,,,fifth,3,21,female,right,donders,2021-07-08_11h02.59.595,ImageRatingTask_S1,2021.1.4,Win32,60.07449237,,,,,,,,,,,,,,,,,,,,,0,4,4,4,1,,,,,,,,,
,,,,,,,,,,,,,,,sixth,3,21,female,right,donders,2021-07-08_11h02.59.595,ImageRatingTask_S1,2021.1.4,Win32,60.07449237,,,,,,,,,,,,,,,,,,,,,0,5,5,5,1,,,,,,,,,
,,,,,,,,,,,,,,,seventh,3,21,female,right,donders,2021-07-08_11h02.59.595,ImageRatingTask_S1,2021.1.4,Win32,60.07449237,,,,,,,,,,,,,,,,,,,,,0,6,6,6,1,,,,,,,,,
,,,,,,,,,,,,,,,last,3,21,female,right,donders,2021-07-08_11h02.59.595,ImageRatingTask_S1,2021.1.4,Win32,60.07449237,,,,,,,,,,,,,,,,,,,,,0,7,7,7,1,,,,,,,,,
,,,,,,,,,,,,,,,,3,21,female,right,donders,2021-07-08_11h02.59.595,ImageRatingTask_S1,2021.1.4,Win32,60.07449237,,,,,,,,,,,,,,,,,,,,,,,,,,0,33,33,16,1,DreamStudyImages_rs1000x750g/Children/Surprise 2.jpg,,,
,,,,,,,,,,,,,,,main,3,21,female,right,donders,2021-07-08_11h02.59.595,ImageRatingTask_S1,2021.1.4,Win32,60.07449237,,,,,,,,,,,7,1.9395,3,1.6299,9,2.0882,1,1.0007,3,0.9477,0,0,0,0,1,,,,,,,,,
,,,,,,,,,,,,,,,second,3,21,female,right,donders,2021-07-08_11h02.59.595,ImageRatingTask_S1,2021.1.4,Win32,60.07449237,,,,,,,,,,,,,,,,,,,,,0,1,1,1,1,,,,,,,,,
,,,,,,,,,,,,,,,third,3,21,female,right,donders,2021-07-08_11h02.59.595,ImageRatingTask_S1,2021.1.4,Win32,60.07449237,,,,,,,,,,,,,,,,,,,,,0,2,2,2,1,,,,,,,,,
,,,,,,,,,,,,,,,fourth,3,21,female,right,donders,2021-07-08_11h02.59.595,ImageRatingTask_S1,2021.1.4,Win32,60.07449237,,,,,,,,,,,,,,,,,,,,,0,3,3,3,1,,,,,,,,,
,,,,,,,,,,,,,,,fifth,3,21,female,right,donders,2021-07-08_11h02.59.595,ImageRatingTask_S1,2021.1.4,Win32,60.07449237,,,,,,,,,,,,,,,,,,,,,0,4,4,4,1,,,,,,,,,
,,,,,,,,,,,,,,,sixth,3,21,female,right,donders,2021-07-08_11h02.59.595,ImageRatingTask_S1,2021.1.4,Win32,60.07449237,,,,,,,,,,,,,,,,,,,,,0,5,5,5,1,,,,,,,,,
,,,,,,,,,,,,,,,seventh,3,21,female,right,donders,2021-07-08_11h02.59.595,ImageRatingTask_S1,2021.1.4,Win32,60.07449237,,,,,,,,,,,,,,,,,,,,,0,6,6,6,1,,,,,,,,,
,,,,,,,,,,,,,,,last,3,21,female,right,donders,2021-07-08_11h02.59.595,ImageRatingTask_S1,2021.1.4,Win32,60.07449237,,,,,,,,,,,,,,,,,,,,,0,7,7,7,1,,,,,,,,,
,,,,,,,,,,,,,,,,3,21,female,right,donders,2021-07-08_11h02.59.595,ImageRatingTask_S1,2021.1.4,Win32,60.07449237,,,,,,,,,,,,,,,,,,,,,,,,,,0,34,34,88,1,DreamStudyImages_rs1000x750g/Mammals/Animals_177_h.jpg,,,
,,,,,,,,,,,,,,,main,3,21,female,right,donders,2021-07-08_11h02.59.595,ImageRatingTask_S1,2021.1.4,Win32,60.07449237,,,,,,,,,,,6,3.021,2,1.4378,7,1.7081,1,1.6987,5,0.8576,0,0,0,0,1,,,,,,,,,
,,,,,,,,,,,,,,,second,3,21,female,right,donders,2021-07-08_11h02.59.595,ImageRatingTask_S1,2021.1.4,Win32,60.07449237,,,,,,,,,,,,,,,,,,,,,0,1,1,1,1,,,,,,,,,
,,,,,,,,,,,,,,,third,3,21,female,right,donders,2021-07-08_11h02.59.595,ImageRatingTask_S1,2021.1.4,Win32,60.07449237,,,,,,,,,,,,,,,,,,,,,0,2,2,2,1,,,,,,,,,
,,,,,,,,,,,,,,,fourth,3,21,female,right,donders,2021-07-08_11h02.59.595,ImageRatingTask_S1,2021.1.4,Win32,60.07449237,,,,,,,,,,,,,,,,,,,,,0,3,3,3,1,,,,,,,,,
,,,,,,,,,,,,,,,fifth,3,21,female,right,donders,2021-07-08_11h02.59.595,ImageRatingTask_S1,2021.1.4,Win32,60.07449237,,,,,,,,,,,,,,,,,,,,,0,4,4,4,1,,,,,,,,,
,,,,,,,,,,,,,,,sixth,3,21,female,right,donders,2021-07-08_11h02.59.595,ImageRatingTask_S1,2021.1.4,Win32,60.07449237,,,,,,,,,,,,,,,,,,,,,0,5,5,5,1,,,,,,,,,
,,,,,,,,,,,,,,,seventh,3,21,female,right,donders,2021-07-08_11h02.59.595,ImageRatingTask_S1,2021.1.4,Win32,60.07449237,,,,,,,,,,,,,,,,,,,,,0,6,6,6,1,,,,,,,,,
,,,,,,,,,,,,,,,last,3,21,female,right,donders,2021-07-08_11h02.59.595,ImageRatingTask_S1,2021.1.4,Win32,60.07449237,,,,,,,,,,,,,,,,,,,,,0,7,7,7,1,,,,,,,,,
,,,,,,,,,,,,,,,,3,21,female,right,donders,2021-07-08_11h02.59.595,ImageRatingTask_S1,2021.1.4,Win32,60.07449237,,,,,,,,,,,,,,,,,,,,,,,,,,0,35,35,125,1,DreamStudyImages_rs1000x750g/Food/IAPS7390_popsicles.jpg,,,
,,,,,,,,,,,,,,,main,3,21,female,right,donders,2021-07-08_11h02.59.595,ImageRatingTask_S1,2021.1.4,Win32,60.07449237,,,,,,,,,,,7,2.6393,5,2.5522,7,2.1327,1,1.0192,5,0.8789,0,0,0,0,1,,,,,,,,,
,,,,,,,,,,,,,,,second,3,21,female,right,donders,2021-07-08_11h02.59.595,ImageRatingTask_S1,2021.1.4,Win32,60.07449237,,,,,,,,,,,,,,,,,,,,,0,1,1,1,1,,,,,,,,,
,,,,,,,,,,,,,,,third,3,21,female,right,donders,2021-07-08_11h02.59.595,ImageRatingTask_S1,2021.1.4,Win32,60.07449237,,,,,,,,,,,,,,,,,,,,,0,2,2,2,1,,,,,,,,,
,,,,,,,,,,,,,,,fourth,3,21,female,right,donders,2021-07-08_11h02.59.595,ImageRatingTask_S1,2021.1.4,Win32,60.07449237,,,,,,,,,,,,,,,,,,,,,0,3,3,3,1,,,,,,,,,
,,,,,,,,,,,,,,,fifth,3,21,female,right,donders,2021-07-08_11h02.59.595,ImageRatingTask_S1,2021.1.4,Win32,60.07449237,,,,,,,,,,,,,,,,,,,,,0,4,4,4,1,,,,,,,,,
,,,,,,,,,,,,,,,sixth,3,21,female,right,donders,2021-07-08_11h02.59.595,ImageRatingTask_S1,2021.1.4,Win32,60.07449237,,,,,,,,,,,,,,,,,,,,,0,5,5,5,1,,,,,,,,,
,,,,,,,,,,,,,,,seventh,3,21,female,right,donders,2021-07-08_11h02.59.595,ImageRatingTask_S1,2021.1.4,Win32,60.07449237,,,,,,,,,,,,,,,,,,,,,0,6,6,6,1,,,,,,,,,
,,,,,,,,,,,,,,,last,3,21,female,right,donders,2021-07-08_11h02.59.595,ImageRatingTask_S1,2021.1.4,Win32,60.07449237,,,,,,,,,,,,,,,,,,,,,0,7,7,7,1,,,,,,,,,
,,,,,,,,,,,,,,,,3,21,female,right,donders,2021-07-08_11h02.59.595,ImageRatingTask_S1,2021.1.4,Win32,60.07449237,,,,,,,,,,,,,,,,,,,,,,,,,,0,36,36,74,1,DreamStudyImages_rs1000x750g/Food/IAPS7451_burger2.jpg,,,
,,,,,,,,,,,,,,,main,3,21,female,right,donders,2021-07-08_11h02.59.595,ImageRatingTask_S1,2021.1.4,Win32,60.07449237,,,,,,,,,,,5,3.0493,1,0.4056,4,1.4981,1,4.6243,7,0.7383,0,0,0,0,1,,,,,,,,,
,,,,,,,,,,,,,,,second,3,21,female,right,donders,2021-07-08_11h02.59.595,ImageRatingTask_S1,2021.1.4,Win32,60.07449237,,,,,,,,,,,,,,,,,,,,,0,1,1,1,1,,,,,,,,,
,,,,,,,,,,,,,,,third,3,21,female,right,donders,2021-07-08_11h02.59.595,ImageRatingTask_S1,2021.1.4,Win32,60.07449237,,,,,,,,,,,,,,,,,,,,,0,2,2,2,1,,,,,,,,,
,,,,,,,,,,,,,,,fourth,3,21,female,right,donders,2021-07-08_11h02.59.595,ImageRatingTask_S1,2021.1.4,Win32,60.07449237,,,,,,,,,,,,,,,,,,,,,0,3,3,3,1,,,,,,,,,
,,,,,,,,,,,,,,,fifth,3,21,female,right,donders,2021-07-08_11h02.59.595,ImageRatingTask_S1,2021.1.4,Win32,60.07449237,,,,,,,,,,,,,,,,,,,,,0,4,4,4,1,,,,,,,,,
,,,,,,,,,,,,,,,sixth,3,21,female,right,donders,2021-07-08_11h02.59.595,ImageRatingTask_S1,2021.1.4,Win32,60.07449237,,,,,,,,,,,,,,,,,,,,,0,5,5,5,1,,,,,,,,,
,,,,,,,,,,,,,,,seventh,3,21,female,right,donders,2021-07-08_11h02.59.595,ImageRatingTask_S1,2021.1.4,Win32,60.07449237,,,,,,,,,,,,,,,,,,,,,0,6,6,6,1,,,,,,,,,
,,,,,,,,,,,,,,,last,3,21,female,right,donders,2021-07-08_11h02.59.595,ImageRatingTask_S1,2021.1.4,Win32,60.07449237,,,,,,,,,,,,,,,,,,,,,0,7,7,7,1,,,,,,,,,
,,,,,,,,,,,,,,,,3,21,female,right,donders,2021-07-08_11h02.59.595,ImageRatingTask_S1,2021.1.4,Win32,60.07449237,,,,,,,,,,,,,,,,,,,,,,,,,,0,37,37,24,1,DreamStudyImages_rs1000x750g/Vehicles/IAPS7560_traffic.jpg,,,
,,,,,,,,,,,,,,,main,3,21,female,right,donders,2021-07-08_11h02.59.595,ImageRatingTask_S1,2021.1.4,Win32,60.07449237,,,,,,,,,,,5,4.8616,1,0.401,6,1.8249,1,1.5414,6,0.773,0,0,0,0,1,,,,,,,,,
,,,,,,,,,,,,,,,second,3,21,female,right,donders,2021-07-08_11h02.59.595,ImageRatingTask_S1,2021.1.4,Win32,60.07449237,,,,,,,,,,,,,,,,,,,,,0,1,1,1,1,,,,,,,,,
,,,,,,,,,,,,,,,third,3,21,female,right,donders,2021-07-08_11h02.59.595,ImageRatingTask_S1,2021.1.4,Win32,60.07449237,,,,,,,,,,,,,,,,,,,,,0,2,2,2,1,,,,,,,,,
,,,,,,,,,,,,,,,fourth,3,21,female,right,donders,2021-07-08_11h02.59.595,ImageRatingTask_S1,2021.1.4,Win32,60.07449237,,,,,,,,,,,,,,,,,,,,,0,3,3,3,1,,,,,,,,,
,,,,,,,,,,,,,,,fifth,3,21,female,right,donders,2021-07-08_11h02.59.595,ImageRatingTask_S1,2021.1.4,Win32,60.07449237,,,,,,,,,,,,,,,,,,,,,0,4,4,4,1,,,,,,,,,
,,,,,,,,,,,,,,,sixth,3,21,female,right,donders,2021-07-08_11h02.59.595,ImageRatingTask_S1,2021.1.4,Win32,60.07449237,,,,,,,,,,,,,,,,,,,,,0,5,5,5,1,,,,,,,,,
,,,,,,,,,,,,,,,seventh,3,21,female,right,donders,2021-07-08_11h02.59.595,ImageRatingTask_S1,2021.1.4,Win32,60.07449237,,,,,,,,,,,,,,,,,,,,,0,6,6,6,1,,,,,,,,,
,,,,,,,,,,,,,,,last,3,21,female,right,donders,2021-07-08_11h02.59.595,ImageRatingTask_S1,2021.1.4,Win32,60.07449237,,,,,,,,,,,,,,,,,,,,,0,7,7,7,1,,,,,,,,,
,,,,,,,,,,,,,,,,3,21,female,right,donders,2021-07-08_11h02.59.595,ImageRatingTask_S1,2021.1.4,Win32,60.07449237,,,,,,,,,,,,,,,,,,,,,,,,,,0,38,38,73,1,DreamStudyImages_rs1000x750g/Houses/IAPS9471_burntbuilding.jpg,,,
,,,,,,,,,,,,,,,main,3,21,female,right,donders,2021-07-08_11h02.59.595,ImageRatingTask_S1,2021.1.4,Win32,60.07449237,,,,,,,,,,,6,14.8107,2,1.3964,6,1.5013,1,5.9845,2,0.4701,0,0,0,0,1,,,,,,,,,
,,,,,,,,,,,,,,,second,3,21,female,right,donders,2021-07-08_11h02.59.595,ImageRatingTask_S1,2021.1.4,Win32,60.07449237,,,,,,,,,,,,,,,,,,,,,0,1,1,1,1,,,,,,,,,
,,,,,,,,,,,,,,,third,3,21,female,right,donders,2021-07-08_11h02.59.595,ImageRatingTask_S1,2021.1.4,Win32,60.07449237,,,,,,,,,,,,,,,,,,,,,0,2,2,2,1,,,,,,,,,
,,,,,,,,,,,,,,,fourth,3,21,female,right,donders,2021-07-08_11h02.59.595,ImageRatingTask_S1,2021.1.4,Win32,60.07449237,,,,,,,,,,,,,,,,,,,,,0,3,3,3,1,,,,,,,,,
,,,,,,,,,,,,,,,fifth,3,21,female,right,donders,2021-07-08_11h02.59.595,ImageRatingTask_S1,2021.1.4,Win32,60.07449237,,,,,,,,,,,,,,,,,,,,,0,4,4,4,1,,,,,,,,,
,,,,,,,,,,,,,,,sixth,3,21,female,right,donders,2021-07-08_11h02.59.595,ImageRatingTask_S1,2021.1.4,Win32,60.07449237,,,,,,,,,,,,,,,,,,,,,0,5,5,5,1,,,,,,,,,
,,,,,,,,,,,,,,,seventh,3,21,female,right,donders,2021-07-08_11h02.59.595,ImageRatingTask_S1,2021.1.4,Win32,60.07449237,,,,,,,,,,,,,,,,,,,,,0,6,6,6,1,,,,,,,,,
,,,,,,,,,,,,,,,last,3,21,female,right,donders,2021-07-08_11h02.59.595,ImageRatingTask_S1,2021.1.4,Win32,60.07449237,,,,,,,,,,,,,,,,,,,,,0,7,7,7,1,,,,,,,,,
,,,,,,,,,,,,,,,,3,21,female,right,donders,2021-07-08_11h02.59.595,ImageRatingTask_S1,2021.1.4,Win32,60.07449237,,,,,,,,,,,,,,,,,,,,,,,,,,0,39,39,40,1,DreamStudyImages_rs1000x750g/Children/IAPS2341_children9.jpg,,,
,,,,,,,,,,,,,,,main,3,21,female,right,donders,2021-07-08_11h02.59.595,ImageRatingTask_S1,2021.1.4,Win32,60.07449237,,,,,,,,,,,4,9.202,3,1.392,8,2.7872,1,7.3414,3,1.0077,0,0,0,0,1,,,,,,,,,
,,,,,,,,,,,,,,,second,3,21,female,right,donders,2021-07-08_11h02.59.595,ImageRatingTask_S1,2021.1.4,Win32,60.07449237,,,,,,,,,,,,,,,,,,,,,0,1,1,1,1,,,,,,,,,
,,,,,,,,,,,,,,,third,3,21,female,right,donders,2021-07-08_11h02.59.595,ImageRatingTask_S1,2021.1.4,Win32,60.07449237,,,,,,,,,,,,,,,,,,,,,0,2,2,2,1,,,,,,,,,
,,,,,,,,,,,,,,,fourth,3,21,female,right,donders,2021-07-08_11h02.59.595,ImageRatingTask_S1,2021.1.4,Win32,60.07449237,,,,,,,,,,,,,,,,,,,,,0,3,3,3,1,,,,,,,,,
,,,,,,,,,,,,,,,fifth,3,21,female,right,donders,2021-07-08_11h02.59.595,ImageRatingTask_S1,2021.1.4,Win32,60.07449237,,,,,,,,,,,,,,,,,,,,,0,4,4,4,1,,,,,,,,,
,,,,,,,,,,,,,,,sixth,3,21,female,right,donders,2021-07-08_11h02.59.595,ImageRatingTask_S1,2021.1.4,Win32,60.07449237,,,,,,,,,,,,,,,,,,,,,0,5,5,5,1,,,,,,,,,
,,,,,,,,,,,,,,,seventh,3,21,female,right,donders,2021-07-08_11h02.59.595,ImageRatingTask_S1,2021.1.4,Win32,60.07449237,,,,,,,,,,,,,,,,,,,,,0,6,6,6,1,,,,,,,,,
,,,,,,,,,,,,,,,last,3,21,female,right,donders,2021-07-08_11h02.59.595,ImageRatingTask_S1,2021.1.4,Win32,60.07449237,,,,,,,,,,,,,,,,,,,,,0,7,7,7,1,,,,,,,,,
,,,,,,,,,,,,,,,,3,21,female,right,donders,2021-07-08_11h02.59.595,ImageRatingTask_S1,2021.1.4,Win32,60.07449237,,,,,,,,,,,,,,,,,,,,,,,,,,0,40,40,56,1,DreamStudyImages_rs1000x750g/Mammals/Animals_068_h.jpg,,,
,,,,,,,,,,,,,,,main,3,21,female,right,donders,2021-07-08_11h02.59.595,ImageRatingTask_S1,2021.1.4,Win32,60.07449237,,,,,,,,,,,6,2.625,2,1.4745,6,1.5498,1,3.5481,2,0.9062,0,0,0,0,1,,,,,,,,,
,,,,,,,,,,,,,,,second,3,21,female,right,donders,2021-07-08_11h02.59.595,ImageRatingTask_S1,2021.1.4,Win32,60.07449237,,,,,,,,,,,,,,,,,,,,,0,1,1,1,1,,,,,,,,,
,,,,,,,,,,,,,,,third,3,21,female,right,donders,2021-07-08_11h02.59.595,ImageRatingTask_S1,2021.1.4,Win32,60.07449237,,,,,,,,,,,,,,,,,,,,,0,2,2,2,1,,,,,,,,,
,,,,,,,,,,,,,,,fourth,3,21,female,right,donders,2021-07-08_11h02.59.595,ImageRatingTask_S1,2021.1.4,Win32,60.07449237,,,,,,,,,,,,,,,,,,,,,0,3,3,3,1,,,,,,,,,
,,,,,,,,,,,,,,,fifth,3,21,female,right,donders,2021-07-08_11h02.59.595,ImageRatingTask_S1,2021.1.4,Win32,60.07449237,,,,,,,,,,,,,,,,,,,,,0,4,4,4,1,,,,,,,,,
,,,,,,,,,,,,,,,sixth,3,21,female,right,donders,2021-07-08_11h02.59.595,ImageRatingTask_S1,2021.1.4,Win32,60.07449237,,,,,,,,,,,,,,,,,,,,,0,5,5,5,1,,,,,,,,,
,,,,,,,,,,,,,,,seventh,3,21,female,right,donders,2021-07-08_11h02.59.595,ImageRatingTask_S1,2021.1.4,Win32,60.07449237,,,,,,,,,,,,,,,,,,,,,0,6,6,6,1,,,,,,,,,
,,,,,,,,,,,,,,,last,3,21,female,right,donders,2021-07-08_11h02.59.595,ImageRatingTask_S1,2021.1.4,Win32,60.07449237,,,,,,,,,,,,,,,,,,,,,0,7,7,7,1,,,,,,,,,
,,,,,,,,,,,,,,,,3,21,female,right,donders,2021-07-08_11h02.59.595,ImageRatingTask_S1,2021.1.4,Win32,60.07449237,,,,,,,,,,,,,,,,,,,,,,,,,,0,41,41,106,1,DreamStudyImages_rs1000x750g/Children/IAPS2040_baby1.jpg,,,
,,,,,,,,,,,,,,,main,3,21,female,right,donders,2021-07-08_11h02.59.595,ImageRatingTask_S1,2021.1.4,Win32,60.07449237,,,,,,,,,,,4,2.0605,3,2.1092,7,2.1614,1,1.086,3,0.877,0,0,0,0,1,,,,,,,,,
,,,,,,,,,,,,,,,second,3,21,female,right,donders,2021-07-08_11h02.59.595,ImageRatingTask_S1,2021.1.4,Win32,60.07449237,,,,,,,,,,,,,,,,,,,,,0,1,1,1,1,,,,,,,,,
,,,,,,,,,,,,,,,third,3,21,female,right,donders,2021-07-08_11h02.59.595,ImageRatingTask_S1,2021.1.4,Win32,60.07449237,,,,,,,,,,,,,,,,,,,,,0,2,2,2,1,,,,,,,,,
,,,,,,,,,,,,,,,fourth,3,21,female,right,donders,2021-07-08_11h02.59.595,ImageRatingTask_S1,2021.1.4,Win32,60.07449237,,,,,,,,,,,,,,,,,,,,,0,3,3,3,1,,,,,,,,,
,,,,,,,,,,,,,,,fifth,3,21,female,right,donders,2021-07-08_11h02.59.595,ImageRatingTask_S1,2021.1.4,Win32,60.07449237,,,,,,,,,,,,,,,,,,,,,0,4,4,4,1,,,,,,,,,
,,,,,,,,,,,,,,,sixth,3,21,female,right,donders,2021-07-08_11h02.59.595,ImageRatingTask_S1,2021.1.4,Win32,60.07449237,,,,,,,,,,,,,,,,,,,,,0,5,5,5,1,,,,,,,,,
,,,,,,,,,,,,,,,seventh,3,21,female,right,donders,2021-07-08_11h02.59.595,ImageRatingTask_S1,2021.1.4,Win32,60.07449237,,,,,,,,,,,,,,,,,,,,,0,6,6,6,1,,,,,,,,,
,,,,,,,,,,,,,,,last,3,21,female,right,donders,2021-07-08_11h02.59.595,ImageRatingTask_S1,2021.1.4,Win32,60.07449237,,,,,,,,,,,,,,,,,,,,,0,7,7,7,1,,,,,,,,,
,,,,,,,,,,,,,,,,3,21,female,right,donders,2021-07-08_11h02.59.595,ImageRatingTask_S1,2021.1.4,Win32,60.07449237,,,,,,,,,,,,,,,,,,,,,,,,,,0,42,42,11,1,DreamStudyImages_rs1000x750g/Mammals/IAPS1660_gorilla2.jpg,,,
,,,,,,,,,,,,,,,main,3,21,female,right,donders,2021-07-08_11h02.59.595,ImageRatingTask_S1,2021.1.4,Win32,60.07449237,,,,,,,,,,,7,5.9121,3,1.2605,7,1.7602,1,1.0752,2,0.7375,0,0,0,0,1,,,,,,,,,
,,,,,,,,,,,,,,,second,3,21,female,right,donders,2021-07-08_11h02.59.595,ImageRatingTask_S1,2021.1.4,Win32,60.07449237,,,,,,,,,,,,,,,,,,,,,0,1,1,1,1,,,,,,,,,
,,,,,,,,,,,,,,,third,3,21,female,right,donders,2021-07-08_11h02.59.595,ImageRatingTask_S1,2021.1.4,Win32,60.07449237,,,,,,,,,,,,,,,,,,,,,0,2,2,2,1,,,,,,,,,
,,,,,,,,,,,,,,,fourth,3,21,female,right,donders,2021-07-08_11h02.59.595,ImageRatingTask_S1,2021.1.4,Win32,60.07449237,,,,,,,,,,,,,,,,,,,,,0,3,3,3,1,,,,,,,,,
,,,,,,,,,,,,,,,fifth,3,21,female,right,donders,2021-07-08_11h02.59.595,ImageRatingTask_S1,2021.1.4,Win32,60.07449237,,,,,,,,,,,,,,,,,,,,,0,4,4,4,1,,,,,,,,,
,,,,,,,,,,,,,,,sixth,3,21,female,right,donders,2021-07-08_11h02.59.595,ImageRatingTask_S1,2021.1.4,Win32,60.07449237,,,,,,,,,,,,,,,,,,,,,0,5,5,5,1,,,,,,,,,
,,,,,,,,,,,,,,,seventh,3,21,female,right,donders,2021-07-08_11h02.59.595,ImageRatingTask_S1,2021.1.4,Win32,60.07449237,,,,,,,,,,,,,,,,,,,,,0,6,6,6,1,,,,,,,,,
,,,,,,,,,,,,,,,last,3,21,female,right,donders,2021-07-08_11h02.59.595,ImageRatingTask_S1,2021.1.4,Win32,60.07449237,,,,,,,,,,,,,,,,,,,,,0,7,7,7,1,,,,,,,,,
,,,,,,,,,,,,,,,,3,21,female,right,donders,2021-07-08_11h02.59.595,ImageRatingTask_S1,2021.1.4,Win32,60.07449237,,,,,,,,,,,,,,,,,,,,,,,,,,0,43,43,84,1,DreamStudyImages_rs1000x750g/Children/Children 1.jpg,,,
,,,,,,,,,,,,,,,main,3,21,female,right,donders,2021-07-08_11h02.59.595,ImageRatingTask_S1,2021.1.4,Win32,60.07449237,,,,,,,,,,,5,1.6394,1,0.7748,9,5.4657,1,1.0994,6,0.8217,0,0,0,0,1,,,,,,,,,
,,,,,,,,,,,,,,,second,3,21,female,right,donders,2021-07-08_11h02.59.595,ImageRatingTask_S1,2021.1.4,Win32,60.07449237,,,,,,,,,,,,,,,,,,,,,0,1,1,1,1,,,,,,,,,
,,,,,,,,,,,,,,,third,3,21,female,right,donders,2021-07-08_11h02.59.595,ImageRatingTask_S1,2021.1.4,Win32,60.07449237,,,,,,,,,,,,,,,,,,,,,0,2,2,2,1,,,,,,,,,
,,,,,,,,,,,,,,,fourth,3,21,female,right,donders,2021-07-08_11h02.59.595,ImageRatingTask_S1,2021.1.4,Win32,60.07449237,,,,,,,,,,,,,,,,,,,,,0,3,3,3,1,,,,,,,,,
,,,,,,,,,,,,,,,fifth,3,21,female,right,donders,2021-07-08_11h02.59.595,ImageRatingTask_S1,2021.1.4,Win32,60.07449237,,,,,,,,,,,,,,,,,,,,,0,4,4,4,1,,,,,,,,,
,,,,,,,,,,,,,,,sixth,3,21,female,right,donders,2021-07-08_11h02.59.595,ImageRatingTask_S1,2021.1.4,Win32,60.07449237,,,,,,,,,,,,,,,,,,,,,0,5,5,5,1,,,,,,,,,
,,,,,,,,,,,,,,,seventh,3,21,female,right,donders,2021-07-08_11h02.59.595,ImageRatingTask_S1,2021.1.4,Win32,60.07449237,,,,,,,,,,,,,,,,,,,,,0,6,6,6,1,,,,,,,,,
,,,,,,,,,,,,,,,last,3,21,female,right,donders,2021-07-08_11h02.59.595,ImageRatingTask_S1,2021.1.4,Win32,60.07449237,,,,,,,,,,,,,,,,,,,,,0,7,7,7,1,,,,,,,,,
,,,,,,,,,,,,,,,,3,21,female,right,donders,2021-07-08_11h02.59.595,ImageRatingTask_S1,2021.1.4,Win32,60.07449237,,,,,,,,,,,,,,,,,,,,,,,,,,0,44,44,81,1,DreamStudyImages_rs1000x750g/Houses/Landscapes_094_h.jpg,,,
,,,,,,,,,,,,,,,main,3,21,female,right,donders,2021-07-08_11h02.59.595,ImageRatingTask_S1,2021.1.4,Win32,60.07449237,,,,,,,,,,,5,5.144,1,0.6993,9,1.2088,1,1.1758,6,1.0717,0,0,0,0,1,,,,,,,,,
,,,,,,,,,,,,,,,second,3,21,female,right,donders,2021-07-08_11h02.59.595,ImageRatingTask_S1,2021.1.4,Win32,60.07449237,,,,,,,,,,,,,,,,,,,,,0,1,1,1,1,,,,,,,,,
,,,,,,,,,,,,,,,third,3,21,female,right,donders,2021-07-08_11h02.59.595,ImageRatingTask_S1,2021.1.4,Win32,60.07449237,,,,,,,,,,,,,,,,,,,,,0,2,2,2,1,,,,,,,,,
,,,,,,,,,,,,,,,fourth,3,21,female,right,donders,2021-07-08_11h02.59.595,ImageRatingTask_S1,2021.1.4,Win32,60.07449237,,,,,,,,,,,,,,,,,,,,,0,3,3,3,1,,,,,,,,,
,,,,,,,,,,,,,,,fifth,3,21,female,right,donders,2021-07-08_11h02.59.595,ImageRatingTask_S1,2021.1.4,Win32,60.07449237,,,,,,,,,,,,,,,,,,,,,0,4,4,4,1,,,,,,,,,
,,,,,,,,,,,,,,,sixth,3,21,female,right,donders,2021-07-08_11h02.59.595,ImageRatingTask_S1,2021.1.4,Win32,60.07449237,,,,,,,,,,,,,,,,,,,,,0,5,5,5,1,,,,,,,,,
,,,,,,,,,,,,,,,seventh,3,21,female,right,donders,2021-07-08_11h02.59.595,ImageRatingTask_S1,2021.1.4,Win32,60.07449237,,,,,,,,,,,,,,,,,,,,,0,6,6,6,1,,,,,,,,,
,,,,,,,,,,,,,,,last,3,21,female,right,donders,2021-07-08_11h02.59.595,ImageRatingTask_S1,2021.1.4,Win32,60.07449237,,,,,,,,,,,,,,,,,,,,,0,7,7,7,1,,,,,,,,,
,,,,,,,,,,,,,,,,3,21,female,right,donders,2021-07-08_11h02.59.595,ImageRatingTask_S1,2021.1.4,Win32,60.07449237,,,,,,,,,,,,,,,,,,,,,,,,,,0,45,45,129,1,DreamStudyImages_rs1000x750g/Houses/Landscapes_070_h.jpg,,,
,,,,,,,,,,,,,,,main,3,21,female,right,donders,2021-07-08_11h02.59.595,ImageRatingTask_S1,2021.1.4,Win32,60.07449237,,,,,,,,,,,6,11.3914,3,3.3934,9,2.3249,1,2.5147,3,1.1053,0,0,0,0,1,,,,,,,,,
,,,,,,,,,,,,,,,second,3,21,female,right,donders,2021-07-08_11h02.59.595,ImageRatingTask_S1,2021.1.4,Win32,60.07449237,,,,,,,,,,,,,,,,,,,,,0,1,1,1,1,,,,,,,,,
,,,,,,,,,,,,,,,third,3,21,female,right,donders,2021-07-08_11h02.59.595,ImageRatingTask_S1,2021.1.4,Win32,60.07449237,,,,,,,,,,,,,,,,,,,,,0,2,2,2,1,,,,,,,,,
,,,,,,,,,,,,,,,fourth,3,21,female,right,donders,2021-07-08_11h02.59.595,ImageRatingTask_S1,2021.1.4,Win32,60.07449237,,,,,,,,,,,,,,,,,,,,,0,3,3,3,1,,,,,,,,,
,,,,,,,,,,,,,,,fifth,3,21,female,right,donders,2021-07-08_11h02.59.595,ImageRatingTask_S1,2021.1.4,Win32,60.07449237,,,,,,,,,,,,,,,,,,,,,0,4,4,4,1,,,,,,,,,
,,,,,,,,,,,,,,,sixth,3,21,female,right,donders,2021-07-08_11h02.59.595,ImageRatingTask_S1,2021.1.4,Win32,60.07449237,,,,,,,,,,,,,,,,,,,,,0,5,5,5,1,,,,,,,,,
,,,,,,,,,,,,,,,seventh,3,21,female,right,donders,2021-07-08_11h02.59.595,ImageRatingTask_S1,2021.1.4,Win32,60.07449237,,,,,,,,,,,,,,,,,,,,,0,6,6,6,1,,,,,,,,,
,,,,,,,,,,,,,,,last,3,21,female,right,donders,2021-07-08_11h02.59.595,ImageRatingTask_S1,2021.1.4,Win32,60.07449237,,,,,,,,,,,,,,,,,,,,,0,7,7,7,1,,,,,,,,,
,,,,,,,,,,,,,,,,3,21,female,right,donders,2021-07-08_11h02.59.595,ImageRatingTask_S1,2021.1.4,Win32,60.07449237,,,,,,,,,,,,,,,,,,,,,,,,,,0,46,46,37,1,DreamStudyImages_rs1000x750g/Mammals/Animals_137_h.jpg,,,
,,,,,,,,,,,,,,,main,3,21,female,right,donders,2021-07-08_11h02.59.595,ImageRatingTask_S1,2021.1.4,Win32,60.07449237,,,,,,,,,,,7,13.2471,3,1.9891,6,1.958,1,2.8742,5,0.7891,0,0,0,0,1,,,,,,,,,
,,,,,,,,,,,,,,,second,3,21,female,right,donders,2021-07-08_11h02.59.595,ImageRatingTask_S1,2021.1.4,Win32,60.07449237,,,,,,,,,,,,,,,,,,,,,0,1,1,1,1,,,,,,,,,
,,,,,,,,,,,,,,,third,3,21,female,right,donders,2021-07-08_11h02.59.595,ImageRatingTask_S1,2021.1.4,Win32,60.07449237,,,,,,,,,,,,,,,,,,,,,0,2,2,2,1,,,,,,,,,
,,,,,,,,,,,,,,,fourth,3,21,female,right,donders,2021-07-08_11h02.59.595,ImageRatingTask_S1,2021.1.4,Win32,60.07449237,,,,,,,,,,,,,,,,,,,,,0,3,3,3,1,,,,,,,,,
,,,,,,,,,,,,,,,fifth,3,21,female,right,donders,2021-07-08_11h02.59.595,ImageRatingTask_S1,2021.1.4,Win32,60.07449237,,,,,,,,,,,,,,,,,,,,,0,4,4,4,1,,,,,,,,,
,,,,,,,,,,,,,,,sixth,3,21,female,right,donders,2021-07-08_11h02.59.595,ImageRatingTask_S1,2021.1.4,Win32,60.07449237,,,,,,,,,,,,,,,,,,,,,0,5,5,5,1,,,,,,,,,
,,,,,,,,,,,,,,,seventh,3,21,female,right,donders,2021-07-08_11h02.59.595,ImageRatingTask_S1,2021.1.4,Win32,60.07449237,,,,,,,,,,,,,,,,,,,,,0,6,6,6,1,,,,,,,,,
,,,,,,,,,,,,,,,last,3,21,female,right,donders,2021-07-08_11h02.59.595,ImageRatingTask_S1,2021.1.4,Win32,60.07449237,,,,,,,,,,,,,,,,,,,,,0,7,7,7,1,,,,,,,,,
,,,,,,,,,,,,,,,,3,21,female,right,donders,2021-07-08_11h02.59.595,ImageRatingTask_S1,2021.1.4,Win32,60.07449237,,,,,,,,,,,,,,,,,,,,,,,,,,0,47,47,29,1,DreamStudyImages_rs1000x750g/Food/IAPS7281_skewers.jpg,,,
,,,,,,,,,,,,,,,main,3,21,female,right,donders,2021-07-08_11h02.59.595,ImageRatingTask_S1,2021.1.4,Win32,60.07449237,,,,,,,,,,,5,51.9537,1,0.456,9,4.5748,1,1.6498,2,0.833,0,0,0,0,1,,,,,,,,,
,,,,,,,,,,,,,,,second,3,21,female,right,donders,2021-07-08_11h02.59.595,ImageRatingTask_S1,2021.1.4,Win32,60.07449237,,,,,,,,,,,,,,,,,,,,,0,1,1,1,1,,,,,,,,,
,,,,,,,,,,,,,,,third,3,21,female,right,donders,2021-07-08_11h02.59.595,ImageRatingTask_S1,2021.1.4,Win32,60.07449237,,,,,,,,,,,,,,,,,,,,,0,2,2,2,1,,,,,,,,,
,,,,,,,,,,,,,,,fourth,3,21,female,right,donders,2021-07-08_11h02.59.595,ImageRatingTask_S1,2021.1.4,Win32,60.07449237,,,,,,,,,,,,,,,,,,,,,0,3,3,3,1,,,,,,,,,
,,,,,,,,,,,,,,,fifth,3,21,female,right,donders,2021-07-08_11h02.59.595,ImageRatingTask_S1,2021.1.4,Win32,60.07449237,,,,,,,,,,,,,,,,,,,,,0,4,4,4,1,,,,,,,,,
,,,,,,,,,,,,,,,sixth,3,21,female,right,donders,2021-07-08_11h02.59.595,ImageRatingTask_S1,2021.1.4,Win32,60.07449237,,,,,,,,,,,,,,,,,,,,,0,5,5,5,1,,,,,,,,,
,,,,,,,,,,,,,,,seventh,3,21,female,right,donders,2021-07-08_11h02.59.595,ImageRatingTask_S1,2021.1.4,Win32,60.07449237,,,,,,,,,,,,,,,,,,,,,0,6,6,6,1,,,,,,,,,
,,,,,,,,,,,,,,,last,3,21,female,right,donders,2021-07-08_11h02.59.595,ImageRatingTask_S1,2021.1.4,Win32,60.07449237,,,,,,,,,,,,,,,,,,,,,0,7,7,7,1,,,,,,,,,
,,,,,,,,,,,,,,,,3,21,female,right,donders,2021-07-08_11h02.59.595,ImageRatingTask_S1,2021.1.4,Win32,60.07449237,,,,,,,,,,,,,,,,,,,,,,,,,,0,48,48,138,1,DreamStudyImages_rs1000x750g/Children/Faces_029_h.jpg,,,
,,,,,,,,,,,,,,,main,3,21,female,right,donders,2021-07-08_11h02.59.595,ImageRatingTask_S1,2021.1.4,Win32,60.07449237,,,,,,,,,,,6,4.4252,2,3.3499,9,1.9663,1,0.7664,6,1.0371,0,0,0,0,1,,,,,,,,,
,,,,,,,,,,,,,,,second,3,21,female,right,donders,2021-07-08_11h02.59.595,ImageRatingTask_S1,2021.1.4,Win32,60.07449237,,,,,,,,,,,,,,,,,,,,,0,1,1,1,1,,,,,,,,,
,,,,,,,,,,,,,,,third,3,21,female,right,donders,2021-07-08_11h02.59.595,ImageRatingTask_S1,2021.1.4,Win32,60.07449237,,,,,,,,,,,,,,,,,,,,,0,2,2,2,1,,,,,,,,,
,,,,,,,,,,,,,,,fourth,3,21,female,right,donders,2021-07-08_11h02.59.595,ImageRatingTask_S1,2021.1.4,Win32,60.07449237,,,,,,,,,,,,,,,,,,,,,0,3,3,3,1,,,,,,,,,
,,,,,,,,,,,,,,,fifth,3,21,female,right,donders,2021-07-08_11h02.59.595,ImageRatingTask_S1,2021.1.4,Win32,60.07449237,,,,,,,,,,,,,,,,,,,,,0,4,4,4,1,,,,,,,,,
,,,,,,,,,,,,,,,sixth,3,21,female,right,donders,2021-07-08_11h02.59.595,ImageRatingTask_S1,2021.1.4,Win32,60.07449237,,,,,,,,,,,,,,,,,,,,,0,5,5,5,1,,,,,,,,,
,,,,,,,,,,,,,,,seventh,3,21,female,right,donders,2021-07-08_11h02.59.595,ImageRatingTask_S1,2021.1.4,Win32,60.07449237,,,,,,,,,,,,,,,,,,,,,0,6,6,6,1,,,,,,,,,
,,,,,,,,,,,,,,,last,3,21,female,right,donders,2021-07-08_11h02.59.595,ImageRatingTask_S1,2021.1.4,Win32,60.07449237,,,,,,,,,,,,,,,,,,,,,0,7,7,7,1,,,,,,,,,
,,,,,,,,,,,,,,,,3,21,female,right,donders,2021-07-08_11h02.59.595,ImageRatingTask_S1,2021.1.4,Win32,60.07449237,,,,,,,,,,,,,,,,,,,,,,,,,,0,49,49,4,1,DreamStudyImages_rs1000x750g/Water/sydneyopera.jpg,,,
,,,,,,,,,,,,,,,main,3,21,female,right,donders,2021-07-08_11h02.59.595,ImageRatingTask_S1,2021.1.4,Win32,60.07449237,,,,,,,,,,,6,2.4128,2,2.3704,1,3.8573,1,7.032,5,1.3836,0,0,0,0,1,,,,,,,,,
,,,,,,,,,,,,,,,second,3,21,female,right,donders,2021-07-08_11h02.59.595,ImageRatingTask_S1,2021.1.4,Win32,60.07449237,,,,,,,,,,,,,,,,,,,,,0,1,1,1,1,,,,,,,,,
,,,,,,,,,,,,,,,third,3,21,female,right,donders,2021-07-08_11h02.59.595,ImageRatingTask_S1,2021.1.4,Win32,60.07449237,,,,,,,,,,,,,,,,,,,,,0,2,2,2,1,,,,,,,,,
,,,,,,,,,,,,,,,fourth,3,21,female,right,donders,2021-07-08_11h02.59.595,ImageRatingTask_S1,2021.1.4,Win32,60.07449237,,,,,,,,,,,,,,,,,,,,,0,3,3,3,1,,,,,,,,,
,,,,,,,,,,,,,,,fifth,3,21,female,right,donders,2021-07-08_11h02.59.595,ImageRatingTask_S1,2021.1.4,Win32,60.07449237,,,,,,,,,,,,,,,,,,,,,0,4,4,4,1,,,,,,,,,
,,,,,,,,,,,,,,,sixth,3,21,female,right,donders,2021-07-08_11h02.59.595,ImageRatingTask_S1,2021.1.4,Win32,60.07449237,,,,,,,,,,,,,,,,,,,,,0,5,5,5,1,,,,,,,,,
,,,,,,,,,,,,,,,seventh,3,21,female,right,donders,2021-07-08_11h02.59.595,ImageRatingTask_S1,2021.1.4,Win32,60.07449237,,,,,,,,,,,,,,,,,,,,,0,6,6,6,1,,,,,,,,,
,,,,,,,,,,,,,,,last,3,21,female,right,donders,2021-07-08_11h02.59.595,ImageRatingTask_S1,2021.1.4,Win32,60.07449237,,,,,,,,,,,,,,,,,,,,,0,7,7,7,1,,,,,,,,,
,,,,,,,,,,,,,,,,3,21,female,right,donders,2021-07-08_11h02.59.595,ImageRatingTask_S1,2021.1.4,Win32,60.07449237,,,,,,,,,,,,,,,,,,,,,,,,,,0,50,50,68,1,DreamStudyImages_rs1000x750g/Food/Objects_072_v.jpg,,,
,,,,,,,,,,,,,,,main,3,21,female,right,donders,2021-07-08_11h02.59.595,ImageRatingTask_S1,2021.1.4,Win32,60.07449237,,,,,,,,,,,6,6.7203,3,1.5226,9,1.4442,1,1.9939,5,1.4161,0,0,0,0,1,,,,,,,,,
,,,,,,,,,,,,,,,second,3,21,female,right,donders,2021-07-08_11h02.59.595,ImageRatingTask_S1,2021.1.4,Win32,60.07449237,,,,,,,,,,,,,,,,,,,,,0,1,1,1,1,,,,,,,,,
,,,,,,,,,,,,,,,third,3,21,female,right,donders,2021-07-08_11h02.59.595,ImageRatingTask_S1,2021.1.4,Win32,60.07449237,,,,,,,,,,,,,,,,,,,,,0,2,2,2,1,,,,,,,,,
,,,,,,,,,,,,,,,fourth,3,21,female,right,donders,2021-07-08_11h02.59.595,ImageRatingTask_S1,2021.1.4,Win32,60.07449237,,,,,,,,,,,,,,,,,,,,,0,3,3,3,1,,,,,,,,,
,,,,,,,,,,,,,,,fifth,3,21,female,right,donders,2021-07-08_11h02.59.595,ImageRatingTask_S1,2021.1.4,Win32,60.07449237,,,,,,,,,,,,,,,,,,,,,0,4,4,4,1,,,,,,,,,
,,,,,,,,,,,,,,,sixth,3,21,female,right,donders,2021-07-08_11h02.59.595,ImageRatingTask_S1,2021.1.4,Win32,60.07449237,,,,,,,,,,,,,,,,,,,,,0,5,5,5,1,,,,,,,,,
,,,,,,,,,,,,,,,seventh,3,21,female,right,donders,2021-07-08_11h02.59.595,ImageRatingTask_S1,2021.1.4,Win32,60.07449237,,,,,,,,,,,,,,,,,,,,,0,6,6,6,1,,,,,,,,,
,,,,,,,,,,,,,,,last,3,21,female,right,donders,2021-07-08_11h02.59.595,ImageRatingTask_S1,2021.1.4,Win32,60.07449237,,,,,,,,,,,,,,,,,,,,,0,7,7,7,1,,,,,,,,,
,,,,,,,,,,,,,,,,3,21,female,right,donders,2021-07-08_11h02.59.595,ImageRatingTask_S1,2021.1.4,Win32,60.07449237,,,,,,,,,,,,,,,,,,,,,,,,,,0,51,51,61,1,DreamStudyImages_rs1000x750g/Food/Objects_062_h.jpg,,,
,,,,,,,,,,,,,,,main,3,21,female,right,donders,2021-07-08_11h02.59.595,ImageRatingTask_S1,2021.1.4,Win32,60.07449237,,,,,,,,,,,5,3.4437,1,0.6949,4,1.6999,1,1.3872,3,1.8252,0,0,0,0,1,,,,,,,,,
,,,,,,,,,,,,,,,second,3,21,female,right,donders,2021-07-08_11h02.59.595,ImageRatingTask_S1,2021.1.4,Win32,60.07449237,,,,,,,,,,,,,,,,,,,,,0,1,1,1,1,,,,,,,,,
,,,,,,,,,,,,,,,third,3,21,female,right,donders,2021-07-08_11h02.59.595,ImageRatingTask_S1,2021.1.4,Win32,60.07449237,,,,,,,,,,,,,,,,,,,,,0,2,2,2,1,,,,,,,,,
,,,,,,,,,,,,,,,fourth,3,21,female,right,donders,2021-07-08_11h02.59.595,ImageRatingTask_S1,2021.1.4,Win32,60.07449237,,,,,,,,,,,,,,,,,,,,,0,3,3,3,1,,,,,,,,,
,,,,,,,,,,,,,,,fifth,3,21,female,right,donders,2021-07-08_11h02.59.595,ImageRatingTask_S1,2021.1.4,Win32,60.07449237,,,,,,,,,,,,,,,,,,,,,0,4,4,4,1,,,,,,,,,
,,,,,,,,,,,,,,,sixth,3,21,female,right,donders,2021-07-08_11h02.59.595,ImageRatingTask_S1,2021.1.4,Win32,60.07449237,,,,,,,,,,,,,,,,,,,,,0,5,5,5,1,,,,,,,,,
,,,,,,,,,,,,,,,seventh,3,21,female,right,donders,2021-07-08_11h02.59.595,ImageRatingTask_S1,2021.1.4,Win32,60.07449237,,,,,,,,,,,,,,,,,,,,,0,6,6,6,1,,,,,,,,,
,,,,,,,,,,,,,,,last,3,21,female,right,donders,2021-07-08_11h02.59.595,ImageRatingTask_S1,2021.1.4,Win32,60.07449237,,,,,,,,,,,,,,,,,,,,,0,7,7,7,1,,,,,,,,,
,,,,,,,,,,,,,,,,3,21,female,right,donders,2021-07-08_11h02.59.595,ImageRatingTask_S1,2021.1.4,Win32,60.07449237,,,,,,,,,,,,,,,,,,,,,,,,,,0,52,52,13,1,DreamStudyImages_rs1000x750g/Mammals/IAPS1590_horse1.jpg,,,
,,,,,,,,,,,,,,,main,3,21,female,right,donders,2021-07-08_11h02.59.595,ImageRatingTask_S1,2021.1.4,Win32,60.07449237,,,,,,,,,,,5,2.3557,1,0.4154,8,0.7185,1,0.6327,8,0.6582,0,0,0,0,1,,,,,,,,,
,,,,,,,,,,,,,,,second,3,21,female,right,donders,2021-07-08_11h02.59.595,ImageRatingTask_S1,2021.1.4,Win32,60.07449237,,,,,,,,,,,,,,,,,,,,,0,1,1,1,1,,,,,,,,,
,,,,,,,,,,,,,,,third,3,21,female,right,donders,2021-07-08_11h02.59.595,ImageRatingTask_S1,2021.1.4,Win32,60.07449237,,,,,,,,,,,,,,,,,,,,,0,2,2,2,1,,,,,,,,,
,,,,,,,,,,,,,,,fourth,3,21,female,right,donders,2021-07-08_11h02.59.595,ImageRatingTask_S1,2021.1.4,Win32,60.07449237,,,,,,,,,,,,,,,,,,,,,0,3,3,3,1,,,,,,,,,
,,,,,,,,,,,,,,,fifth,3,21,female,right,donders,2021-07-08_11h02.59.595,ImageRatingTask_S1,2021.1.4,Win32,60.07449237,,,,,,,,,,,,,,,,,,,,,0,4,4,4,1,,,,,,,,,
,,,,,,,,,,,,,,,sixth,3,21,female,right,donders,2021-07-08_11h02.59.595,ImageRatingTask_S1,2021.1.4,Win32,60.07449237,,,,,,,,,,,,,,,,,,,,,0,5,5,5,1,,,,,,,,,
,,,,,,,,,,,,,,,seventh,3,21,female,right,donders,2021-07-08_11h02.59.595,ImageRatingTask_S1,2021.1.4,Win32,60.07449237,,,,,,,,,,,,,,,,,,,,,0,6,6,6,1,,,,,,,,,
,,,,,,,,,,,,,,,last,3,21,female,right,donders,2021-07-08_11h02.59.595,ImageRatingTask_S1,2021.1.4,Win32,60.07449237,,,,,,,,,,,,,,,,,,,,,0,7,7,7,1,,,,,,,,,
,,,,,,,,,,,,,,,,3,21,female,right,donders,2021-07-08_11h02.59.595,ImageRatingTask_S1,2021.1.4,Win32,60.07449237,,,,,,,,,,,,,,,,,,,,,,,,,,0,53,53,8,1,DreamStudyImages_rs1000x750g/Water/Landscapes_169_h.jpg,,,
,,,,,,,,,,,,,,,main,3,21,female,right,donders,2021-07-08_11h02.59.595,ImageRatingTask_S1,2021.1.4,Win32,60.07449237,,,,,,,,,,,5,2.0917,1,0.5154,8,4.9252,1,0.614,8,1.0888,0,0,0,0,1,,,,,,,,,
,,,,,,,,,,,,,,,second,3,21,female,right,donders,2021-07-08_11h02.59.595,ImageRatingTask_S1,2021.1.4,Win32,60.07449237,,,,,,,,,,,,,,,,,,,,,0,1,1,1,1,,,,,,,,,
,,,,,,,,,,,,,,,third,3,21,female,right,donders,2021-07-08_11h02.59.595,ImageRatingTask_S1,2021.1.4,Win32,60.07449237,,,,,,,,,,,,,,,,,,,,,0,2,2,2,1,,,,,,,,,
,,,,,,,,,,,,,,,fourth,3,21,female,right,donders,2021-07-08_11h02.59.595,ImageRatingTask_S1,2021.1.4,Win32,60.07449237,,,,,,,,,,,,,,,,,,,,,0,3,3,3,1,,,,,,,,,
,,,,,,,,,,,,,,,fifth,3,21,female,right,donders,2021-07-08_11h02.59.595,ImageRatingTask_S1,2021.1.4,Win32,60.07449237,,,,,,,,,,,,,,,,,,,,,0,4,4,4,1,,,,,,,,,
,,,,,,,,,,,,,,,sixth,3,21,female,right,donders,2021-07-08_11h02.59.595,ImageRatingTask_S1,2021.1.4,Win32,60.07449237,,,,,,,,,,,,,,,,,,,,,0,5,5,5,1,,,,,,,,,
,,,,,,,,,,,,,,,seventh,3,21,female,right,donders,2021-07-08_11h02.59.595,ImageRatingTask_S1,2021.1.4,Win32,60.07449237,,,,,,,,,,,,,,,,,,,,,0,6,6,6,1,,,,,,,,,
,,,,,,,,,,,,,,,last,3,21,female,right,donders,2021-07-08_11h02.59.595,ImageRatingTask_S1,2021.1.4,Win32,60.07449237,,,,,,,,,,,,,,,,,,,,,0,7,7,7,1,,,,,,,,,
,,,,,,,,,,,,,,,,3,21,female,right,donders,2021-07-08_11h02.59.595,ImageRatingTask_S1,2021.1.4,Win32,60.07449237,,,,,,,,,,,,,,,,,,,,,,,,,,0,54,54,6,1,DreamStudyImages_rs1000x750g/Water/97.jpg,,,
,,,,,,,,,,,,,,,main,3,21,female,right,donders,2021-07-08_11h02.59.595,ImageRatingTask_S1,2021.1.4,Win32,60.07449237,,,,,,,,,,,5,1.9964,1,0.3622,6,2.2028,1,7.2738,8,0.7611,0,0,0,0,1,,,,,,,,,
,,,,,,,,,,,,,,,second,3,21,female,right,donders,2021-07-08_11h02.59.595,ImageRatingTask_S1,2021.1.4,Win32,60.07449237,,,,,,,,,,,,,,,,,,,,,0,1,1,1,1,,,,,,,,,
,,,,,,,,,,,,,,,third,3,21,female,right,donders,2021-07-08_11h02.59.595,ImageRatingTask_S1,2021.1.4,Win32,60.07449237,,,,,,,,,,,,,,,,,,,,,0,2,2,2,1,,,,,,,,,
,,,,,,,,,,,,,,,fourth,3,21,female,right,donders,2021-07-08_11h02.59.595,ImageRatingTask_S1,2021.1.4,Win32,60.07449237,,,,,,,,,,,,,,,,,,,,,0,3,3,3,1,,,,,,,,,
,,,,,,,,,,,,,,,fifth,3,21,female,right,donders,2021-07-08_11h02.59.595,ImageRatingTask_S1,2021.1.4,Win32,60.07449237,,,,,,,,,,,,,,,,,,,,,0,4,4,4,1,,,,,,,,,
,,,,,,,,,,,,,,,sixth,3,21,female,right,donders,2021-07-08_11h02.59.595,ImageRatingTask_S1,2021.1.4,Win32,60.07449237,,,,,,,,,,,,,,,,,,,,,0,5,5,5,1,,,,,,,,,
,,,,,,,,,,,,,,,seventh,3,21,female,right,donders,2021-07-08_11h02.59.595,ImageRatingTask_S1,2021.1.4,Win32,60.07449237,,,,,,,,,,,,,,,,,,,,,0,6,6,6,1,,,,,,,,,
,,,,,,,,,,,,,,,last,3,21,female,right,donders,2021-07-08_11h02.59.595,ImageRatingTask_S1,2021.1.4,Win32,60.07449237,,,,,,,,,,,,,,,,,,,,,0,7,7,7,1,,,,,,,,,
,,,,,,,,,,,,,,,,3,21,female,right,donders,2021-07-08_11h02.59.595,ImageRatingTask_S1,2021.1.4,Win32,60.07449237,,,,,,,,,,,,,,,,,,,,,,,,,,0,55,55,140,1,DreamStudyImages_rs1000x750g/Water/IAPS5220_tropicalbridge_CHECK.jpg,,,
,,,,,,,,,,,,,,,main,3,21,female,right,donders,2021-07-08_11h02.59.595,ImageRatingTask_S1,2021.1.4,Win32,60.07449237,,,,,,,,,,,6,2.9429,3,2.5634,8,6.4431,1,1.2718,2,0.8487,0,0,0,0,1,,,,,,,,,
,,,,,,,,,,,,,,,second,3,21,female,right,donders,2021-07-08_11h02.59.595,ImageRatingTask_S1,2021.1.4,Win32,60.07449237,,,,,,,,,,,,,,,,,,,,,0,1,1,1,1,,,,,,,,,
,,,,,,,,,,,,,,,third,3,21,female,right,donders,2021-07-08_11h02.59.595,ImageRatingTask_S1,2021.1.4,Win32,60.07449237,,,,,,,,,,,,,,,,,,,,,0,2,2,2,1,,,,,,,,,
,,,,,,,,,,,,,,,fourth,3,21,female,right,donders,2021-07-08_11h02.59.595,ImageRatingTask_S1,2021.1.4,Win32,60.07449237,,,,,,,,,,,,,,,,,,,,,0,3,3,3,1,,,,,,,,,
,,,,,,,,,,,,,,,fifth,3,21,female,right,donders,2021-07-08_11h02.59.595,ImageRatingTask_S1,2021.1.4,Win32,60.07449237,,,,,,,,,,,,,,,,,,,,,0,4,4,4,1,,,,,,,,,
,,,,,,,,,,,,,,,sixth,3,21,female,right,donders,2021-07-08_11h02.59.595,ImageRatingTask_S1,2021.1.4,Win32,60.07449237,,,,,,,,,,,,,,,,,,,,,0,5,5,5,1,,,,,,,,,
,,,,,,,,,,,,,,,seventh,3,21,female,right,donders,2021-07-08_11h02.59.595,ImageRatingTask_S1,2021.1.4,Win32,60.07449237,,,,,,,,,,,,,,,,,,,,,0,6,6,6,1,,,,,,,,,
,,,,,,,,,,,,,,,last,3,21,female,right,donders,2021-07-08_11h02.59.595,ImageRatingTask_S1,2021.1.4,Win32,60.07449237,,,,,,,,,,,,,,,,,,,,,0,7,7,7,1,,,,,,,,,
,,,,,,,,,,,,,,,,3,21,female,right,donders,2021-07-08_11h02.59.595,ImageRatingTask_S1,2021.1.4,Win32,60.07449237,,,,,,,,,,,,,,,,,,,,,,,,,,0,56,56,34,1,DreamStudyImages_rs1000x750g/Children/Faces_005_h.jpg,,,
,,,,,,,,,,,,,,,main,3,21,female,right,donders,2021-07-08_11h02.59.595,ImageRatingTask_S1,2021.1.4,Win32,60.07449237,,,,,,,,,,,5,4.2256,1,0.31,9,1.5463,1,0.7231,6,1.0704,0,0,0,0,1,,,,,,,,,
,,,,,,,,,,,,,,,second,3,21,female,right,donders,2021-07-08_11h02.59.595,ImageRatingTask_S1,2021.1.4,Win32,60.07449237,,,,,,,,,,,,,,,,,,,,,0,1,1,1,1,,,,,,,,,
,,,,,,,,,,,,,,,third,3,21,female,right,donders,2021-07-08_11h02.59.595,ImageRatingTask_S1,2021.1.4,Win32,60.07449237,,,,,,,,,,,,,,,,,,,,,0,2,2,2,1,,,,,,,,,
,,,,,,,,,,,,,,,fourth,3,21,female,right,donders,2021-07-08_11h02.59.595,ImageRatingTask_S1,2021.1.4,Win32,60.07449237,,,,,,,,,,,,,,,,,,,,,0,3,3,3,1,,,,,,,,,
,,,,,,,,,,,,,,,fifth,3,21,female,right,donders,2021-07-08_11h02.59.595,ImageRatingTask_S1,2021.1.4,Win32,60.07449237,,,,,,,,,,,,,,,,,,,,,0,4,4,4,1,,,,,,,,,
,,,,,,,,,,,,,,,sixth,3,21,female,right,donders,2021-07-08_11h02.59.595,ImageRatingTask_S1,2021.1.4,Win32,60.07449237,,,,,,,,,,,,,,,,,,,,,0,5,5,5,1,,,,,,,,,
,,,,,,,,,,,,,,,seventh,3,21,female,right,donders,2021-07-08_11h02.59.595,ImageRatingTask_S1,2021.1.4,Win32,60.07449237,,,,,,,,,,,,,,,,,,,,,0,6,6,6,1,,,,,,,,,
,,,,,,,,,,,,,,,last,3,21,female,right,donders,2021-07-08_11h02.59.595,ImageRatingTask_S1,2021.1.4,Win32,60.07449237,,,,,,,,,,,,,,,,,,,,,0,7,7,7,1,,,,,,,,,
,,,,,,,,,,,,,,,,3,21,female,right,donders,2021-07-08_11h02.59.595,ImageRatingTask_S1,2021.1.4,Win32,60.07449237,,,,,,,,,,,,,,,,,,,,,,,,,,0,57,57,36,1,DreamStudyImages_rs1000x750g/Houses/7530.jpg,,,
,,,,,,,,,,,,,,,main,3,21,female,right,donders,2021-07-08_11h02.59.595,ImageRatingTask_S1,2021.1.4,Win32,60.07449237,,,,,,,,,,,5,6.3211,1,0.6526,3,1.2756,1,5.0602,7,0.778,0,0,0,0,1,,,,,,,,,
,,,,,,,,,,,,,,,second,3,21,female,right,donders,2021-07-08_11h02.59.595,ImageRatingTask_S1,2021.1.4,Win32,60.07449237,,,,,,,,,,,,,,,,,,,,,0,1,1,1,1,,,,,,,,,
,,,,,,,,,,,,,,,third,3,21,female,right,donders,2021-07-08_11h02.59.595,ImageRatingTask_S1,2021.1.4,Win32,60.07449237,,,,,,,,,,,,,,,,,,,,,0,2,2,2,1,,,,,,,,,
,,,,,,,,,,,,,,,fourth,3,21,female,right,donders,2021-07-08_11h02.59.595,ImageRatingTask_S1,2021.1.4,Win32,60.07449237,,,,,,,,,,,,,,,,,,,,,0,3,3,3,1,,,,,,,,,
,,,,,,,,,,,,,,,fifth,3,21,female,right,donders,2021-07-08_11h02.59.595,ImageRatingTask_S1,2021.1.4,Win32,60.07449237,,,,,,,,,,,,,,,,,,,,,0,4,4,4,1,,,,,,,,,
,,,,,,,,,,,,,,,sixth,3,21,female,right,donders,2021-07-08_11h02.59.595,ImageRatingTask_S1,2021.1.4,Win32,60.07449237,,,,,,,,,,,,,,,,,,,,,0,5,5,5,1,,,,,,,,,
,,,,,,,,,,,,,,,seventh,3,21,female,right,donders,2021-07-08_11h02.59.595,ImageRatingTask_S1,2021.1.4,Win32,60.07449237,,,,,,,,,,,,,,,,,,,,,0,6,6,6,1,,,,,,,,,
,,,,,,,,,,,,,,,last,3,21,female,right,donders,2021-07-08_11h02.59.595,ImageRatingTask_S1,2021.1.4,Win32,60.07449237,,,,,,,,,,,,,,,,,,,,,0,7,7,7,1,,,,,,,,,
,,,,,,,,,,,,,,,,3,21,female,right,donders,2021-07-08_11h02.59.595,ImageRatingTask_S1,2021.1.4,Win32,60.07449237,,,,,,,,,,,,,,,,,,,,,,,,,,0,58,58,139,1,DreamStudyImages_rs1000x750g/Water/IAPS7036_harbour_CROPPED.jpg,,,
,,,,,,,,,,,,,,,main,3,21,female,right,donders,2021-07-08_11h02.59.595,ImageRatingTask_S1,2021.1.4,Win32,60.07449237,,,,,,,,,,,6,1.629,3,1.0579,8,1.4083,1,0.8895,3,1.3203,0,0,0,0,1,,,,,,,,,
,,,,,,,,,,,,,,,second,3,21,female,right,donders,2021-07-08_11h02.59.595,ImageRatingTask_S1,2021.1.4,Win32,60.07449237,,,,,,,,,,,,,,,,,,,,,0,1,1,1,1,,,,,,,,,
,,,,,,,,,,,,,,,third,3,21,female,right,donders,2021-07-08_11h02.59.595,ImageRatingTask_S1,2021.1.4,Win32,60.07449237,,,,,,,,,,,,,,,,,,,,,0,2,2,2,1,,,,,,,,,
,,,,,,,,,,,,,,,fourth,3,21,female,right,donders,2021-07-08_11h02.59.595,ImageRatingTask_S1,2021.1.4,Win32,60.07449237,,,,,,,,,,,,,,,,,,,,,0,3,3,3,1,,,,,,,,,
,,,,,,,,,,,,,,,fifth,3,21,female,right,donders,2021-07-08_11h02.59.595,ImageRatingTask_S1,2021.1.4,Win32,60.07449237,,,,,,,,,,,,,,,,,,,,,0,4,4,4,1,,,,,,,,,
,,,,,,,,,,,,,,,sixth,3,21,female,right,donders,2021-07-08_11h02.59.595,ImageRatingTask_S1,2021.1.4,Win32,60.07449237,,,,,,,,,,,,,,,,,,,,,0,5,5,5,1,,,,,,,,,
,,,,,,,,,,,,,,,seventh,3,21,female,right,donders,2021-07-08_11h02.59.595,ImageRatingTask_S1,2021.1.4,Win32,60.07449237,,,,,,,,,,,,,,,,,,,,,0,6,6,6,1,,,,,,,,,
,,,,,,,,,,,,,,,last,3,21,female,right,donders,2021-07-08_11h02.59.595,ImageRatingTask_S1,2021.1.4,Win32,60.07449237,,,,,,,,,,,,,,,,,,,,,0,7,7,7,1,,,,,,,,,
,,,,,,,,,,,,,,,,3,21,female,right,donders,2021-07-08_11h02.59.595,ImageRatingTask_S1,2021.1.4,Win32,60.07449237,,,,,,,,,,,,,,,,,,,,,,,,,,0,59,59,63,1,DreamStudyImages_rs1000x750g/Mammals/Animals_210_v.jpg,,,
,,,,,,,,,,,,,,,main,3,21,female,right,donders,2021-07-08_11h02.59.595,ImageRatingTask_S1,2021.1.4,Win32,60.07449237,,,,,,,,,,,6,1.8256,3,0.946,9,2.5608,1,0.6984,3,1.3896,0,0,0,0,1,,,,,,,,,
,,,,,,,,,,,,,,,second,3,21,female,right,donders,2021-07-08_11h02.59.595,ImageRatingTask_S1,2021.1.4,Win32,60.07449237,,,,,,,,,,,,,,,,,,,,,0,1,1,1,1,,,,,,,,,
