slider_pre.response,slider_pre.rt,key_val.keys,key_val.rt,key_aro.keys,key_aro.rt,key_qual.keys,key_qual.rt,key_ncat.keys,key_ncat.rt,key_cats.keys,key_cats.rt,ncat_order.thisRepN,ncat_order.thisTrialN,ncat_order.thisN,ncat_order.thisIndex,ncat_order.ran,cond_cat,participant,age,gender,handedness (L/R),site (IMT/Donders),date,expName,psychopyVersion,OS,frameRate,img_trials.thisRepN,img_trials.thisTrialN,img_trials.thisN,img_trials.thisIndex,img_trials.ran,filename,slider_post.response,slider_post.rt,textbox_openfb.text
4,5.1846,4,5.0765,3,3.4982,6,2.3945,1,1.1427,2,0.1404,0,0,0,0,1,main,4,22,Female,R,Donders,2021-07-06_17h05.56.841,ImageRatingTask_S2,2021.1.4,Win32,60.11060351,,,,,,,,,
,,,,,,,,,,,,0,1,1,1,1,second,4,22,Female,R,Donders,2021-07-06_17h05.56.841,ImageRatingTask_S2,2021.1.4,Win32,60.11060351,,,,,,,,,
,,,,,,,,,,,,0,2,2,2,1,third,4,22,Female,R,Donders,2021-07-06_17h05.56.841,ImageRatingTask_S2,2021.1.4,Win32,60.11060351,,,,,,,,,
,,,,,,,,,,,,0,3,3,3,1,fourth,4,22,Female,R,Donders,2021-07-06_17h05.56.841,ImageRatingTask_S2,2021.1.4,Win32,60.11060351,,,,,,,,,
,,,,,,,,,,,,0,4,4,4,1,fifth,4,22,Female,R,Donders,2021-07-06_17h05.56.841,ImageRatingTask_S2,2021.1.4,Win32,60.11060351,,,,,,,,,
,,,,,,,,,,,,0,5,5,5,1,sixth,4,22,Female,R,Donders,2021-07-06_17h05.56.841,ImageRatingTask_S2,2021.1.4,Win32,60.11060351,,,,,,,,,
,,,,,,,,,,,,0,6,6,6,1,seventh,4,22,Female,R,Donders,2021-07-06_17h05.56.841,ImageRatingTask_S2,2021.1.4,Win32,60.11060351,,,,,,,,,
,,,,,,,,,,,,0,7,7,7,1,last,4,22,Female,R,Donders,2021-07-06_17h05.56.841,ImageRatingTask_S2,2021.1.4,Win32,60.11060351,,,,,,,,,
,,,,,,,,,,,,,,,,,,4,22,Female,R,Donders,2021-07-06_17h05.56.841,ImageRatingTask_S2,2021.1.4,Win32,60.11060351,0,0,0,16,1,DreamStudyImages_rs1000x750g/Children/Gazing 3.jpg,,,
,,3,2.2383,2,2.197,5,2.1879,1,2.4525,6,0.8261,0,0,0,0,1,main,4,22,Female,R,Donders,2021-07-06_17h05.56.841,ImageRatingTask_S2,2021.1.4,Win32,60.11060351,,,,,,,,,
,,,,,,,,,,,,0,1,1,1,1,second,4,22,Female,R,Donders,2021-07-06_17h05.56.841,ImageRatingTask_S2,2021.1.4,Win32,60.11060351,,,,,,,,,
,,,,,,,,,,,,0,2,2,2,1,third,4,22,Female,R,Donders,2021-07-06_17h05.56.841,ImageRatingTask_S2,2021.1.4,Win32,60.11060351,,,,,,,,,
,,,,,,,,,,,,0,3,3,3,1,fourth,4,22,Female,R,Donders,2021-07-06_17h05.56.841,ImageRatingTask_S2,2021.1.4,Win32,60.11060351,,,,,,,,,
,,,,,,,,,,,,0,4,4,4,1,fifth,4,22,Female,R,Donders,2021-07-06_17h05.56.841,ImageRatingTask_S2,2021.1.4,Win32,60.11060351,,,,,,,,,
,,,,,,,,,,,,0,5,5,5,1,sixth,4,22,Female,R,Donders,2021-07-06_17h05.56.841,ImageRatingTask_S2,2021.1.4,Win32,60.11060351,,,,,,,,,
,,,,,,,,,,,,0,6,6,6,1,seventh,4,22,Female,R,Donders,2021-07-06_17h05.56.841,ImageRatingTask_S2,2021.1.4,Win32,60.11060351,,,,,,,,,
,,,,,,,,,,,,0,7,7,7,1,last,4,22,Female,R,Donders,2021-07-06_17h05.56.841,ImageRatingTask_S2,2021.1.4,Win32,60.11060351,,,,,,,,,
,,,,,,,,,,,,,,,,,,4,22,Female,R,Donders,2021-07-06_17h05.56.841,ImageRatingTask_S2,2021.1.4,Win32,60.11060351,0,1,1,94,1,DreamStudyImages_rs1000x750g/Houses/Landscapes_010_h.jpg,,,
,,1,2.1249,6,4.838,5,3.5874,1,0.763,7,0.5835,0,0,0,0,1,main,4,22,Female,R,Donders,2021-07-06_17h05.56.841,ImageRatingTask_S2,2021.1.4,Win32,60.11060351,,,,,,,,,
,,,,,,,,,,,,0,1,1,1,1,second,4,22,Female,R,Donders,2021-07-06_17h05.56.841,ImageRatingTask_S2,2021.1.4,Win32,60.11060351,,,,,,,,,
,,,,,,,,,,,,0,2,2,2,1,third,4,22,Female,R,Donders,2021-07-06_17h05.56.841,ImageRatingTask_S2,2021.1.4,Win32,60.11060351,,,,,,,,,
,,,,,,,,,,,,0,3,3,3,1,fourth,4,22,Female,R,Donders,2021-07-06_17h05.56.841,ImageRatingTask_S2,2021.1.4,Win32,60.11060351,,,,,,,,,
,,,,,,,,,,,,0,4,4,4,1,fifth,4,22,Female,R,Donders,2021-07-06_17h05.56.841,ImageRatingTask_S2,2021.1.4,Win32,60.11060351,,,,,,,,,
,,,,,,,,,,,,0,5,5,5,1,sixth,4,22,Female,R,Donders,2021-07-06_17h05.56.841,ImageRatingTask_S2,2021.1.4,Win32,60.11060351,,,,,,,,,
,,,,,,,,,,,,0,6,6,6,1,seventh,4,22,Female,R,Donders,2021-07-06_17h05.56.841,ImageRatingTask_S2,2021.1.4,Win32,60.11060351,,,,,,,,,
,,,,,,,,,,,,0,7,7,7,1,last,4,22,Female,R,Donders,2021-07-06_17h05.56.841,ImageRatingTask_S2,2021.1.4,Win32,60.11060351,,,,,,,,,
,,,,,,,,,,,,,,,,,,4,22,Female,R,Donders,2021-07-06_17h05.56.841,ImageRatingTask_S2,2021.1.4,Win32,60.11060351,0,2,2,63,1,DreamStudyImages_rs1000x750g/Vehicles/Objects_003_h.jpg,,,
,,4,3.6265,4,1.5449,7,3.7088,1,0.8861,2,0.7332,0,0,0,0,1,main,4,22,Female,R,Donders,2021-07-06_17h05.56.841,ImageRatingTask_S2,2021.1.4,Win32,60.11060351,,,,,,,,,
,,,,,,,,,,,,0,1,1,1,1,second,4,22,Female,R,Donders,2021-07-06_17h05.56.841,ImageRatingTask_S2,2021.1.4,Win32,60.11060351,,,,,,,,,
,,,,,,,,,,,,0,2,2,2,1,third,4,22,Female,R,Donders,2021-07-06_17h05.56.841,ImageRatingTask_S2,2021.1.4,Win32,60.11060351,,,,,,,,,
,,,,,,,,,,,,0,3,3,3,1,fourth,4,22,Female,R,Donders,2021-07-06_17h05.56.841,ImageRatingTask_S2,2021.1.4,Win32,60.11060351,,,,,,,,,
,,,,,,,,,,,,0,4,4,4,1,fifth,4,22,Female,R,Donders,2021-07-06_17h05.56.841,ImageRatingTask_S2,2021.1.4,Win32,60.11060351,,,,,,,,,
,,,,,,,,,,,,0,5,5,5,1,sixth,4,22,Female,R,Donders,2021-07-06_17h05.56.841,ImageRatingTask_S2,2021.1.4,Win32,60.11060351,,,,,,,,,
,,,,,,,,,,,,0,6,6,6,1,seventh,4,22,Female,R,Donders,2021-07-06_17h05.56.841,ImageRatingTask_S2,2021.1.4,Win32,60.11060351,,,,,,,,,
,,,,,,,,,,,,0,7,7,7,1,last,4,22,Female,R,Donders,2021-07-06_17h05.56.841,ImageRatingTask_S2,2021.1.4,Win32,60.11060351,,,,,,,,,
,,,,,,,,,,,,,,,,,,4,22,Female,R,Donders,2021-07-06_17h05.56.841,ImageRatingTask_S2,2021.1.4,Win32,60.11060351,0,3,3,0,1,DreamStudyImages_rs1000x750g/Children/Faces_007_h.jpg,,,
,,6,3.8593,1,2.2935,7,1.6464,1,1.0109,5,0.6176,0,0,0,0,1,main,4,22,Female,R,Donders,2021-07-06_17h05.56.841,ImageRatingTask_S2,2021.1.4,Win32,60.11060351,,,,,,,,,
,,,,,,,,,,,,0,1,1,1,1,second,4,22,Female,R,Donders,2021-07-06_17h05.56.841,ImageRatingTask_S2,2021.1.4,Win32,60.11060351,,,,,,,,,
,,,,,,,,,,,,0,2,2,2,1,third,4,22,Female,R,Donders,2021-07-06_17h05.56.841,ImageRatingTask_S2,2021.1.4,Win32,60.11060351,,,,,,,,,
,,,,,,,,,,,,0,3,3,3,1,fourth,4,22,Female,R,Donders,2021-07-06_17h05.56.841,ImageRatingTask_S2,2021.1.4,Win32,60.11060351,,,,,,,,,
,,,,,,,,,,,,0,4,4,4,1,fifth,4,22,Female,R,Donders,2021-07-06_17h05.56.841,ImageRatingTask_S2,2021.1.4,Win32,60.11060351,,,,,,,,,
,,,,,,,,,,,,0,5,5,5,1,sixth,4,22,Female,R,Donders,2021-07-06_17h05.56.841,ImageRatingTask_S2,2021.1.4,Win32,60.11060351,,,,,,,,,
,,,,,,,,,,,,0,6,6,6,1,seventh,4,22,Female,R,Donders,2021-07-06_17h05.56.841,ImageRatingTask_S2,2021.1.4,Win32,60.11060351,,,,,,,,,
,,,,,,,,,,,,0,7,7,7,1,last,4,22,Female,R,Donders,2021-07-06_17h05.56.841,ImageRatingTask_S2,2021.1.4,Win32,60.11060351,,,,,,,,,
,,,,,,,,,,,,,,,,,,4,22,Female,R,Donders,2021-07-06_17h05.56.841,ImageRatingTask_S2,2021.1.4,Win32,60.11060351,0,4,4,23,1,DreamStudyImages_rs1000x750g/Food/Dessert 7.jpg,,,
,,4,7.636,1,1.3722,6,1.8074,1,0.9656,6,0.9181,0,0,0,0,1,main,4,22,Female,R,Donders,2021-07-06_17h05.56.841,ImageRatingTask_S2,2021.1.4,Win32,60.11060351,,,,,,,,,
,,,,,,,,,,,,0,1,1,1,1,second,4,22,Female,R,Donders,2021-07-06_17h05.56.841,ImageRatingTask_S2,2021.1.4,Win32,60.11060351,,,,,,,,,
,,,,,,,,,,,,0,2,2,2,1,third,4,22,Female,R,Donders,2021-07-06_17h05.56.841,ImageRatingTask_S2,2021.1.4,Win32,60.11060351,,,,,,,,,
,,,,,,,,,,,,0,3,3,3,1,fourth,4,22,Female,R,Donders,2021-07-06_17h05.56.841,ImageRatingTask_S2,2021.1.4,Win32,60.11060351,,,,,,,,,
,,,,,,,,,,,,0,4,4,4,1,fifth,4,22,Female,R,Donders,2021-07-06_17h05.56.841,ImageRatingTask_S2,2021.1.4,Win32,60.11060351,,,,,,,,,
,,,,,,,,,,,,0,5,5,5,1,sixth,4,22,Female,R,Donders,2021-07-06_17h05.56.841,ImageRatingTask_S2,2021.1.4,Win32,60.11060351,,,,,,,,,
,,,,,,,,,,,,0,6,6,6,1,seventh,4,22,Female,R,Donders,2021-07-06_17h05.56.841,ImageRatingTask_S2,2021.1.4,Win32,60.11060351,,,,,,,,,
,,,,,,,,,,,,0,7,7,7,1,last,4,22,Female,R,Donders,2021-07-06_17h05.56.841,ImageRatingTask_S2,2021.1.4,Win32,60.11060351,,,,,,,,,
,,,,,,,,,,,,,,,,,,4,22,Female,R,Donders,2021-07-06_17h05.56.841,ImageRatingTask_S2,2021.1.4,Win32,60.11060351,0,5,5,144,1,DreamStudyImages_rs1000x750g/Houses/Landscapes_050_h.jpg,,,
,,3,2.559,3,1.0442,6,2.6091,1,1.5613,6,0.9759,0,0,0,0,1,main,4,22,Female,R,Donders,2021-07-06_17h05.56.841,ImageRatingTask_S2,2021.1.4,Win32,60.11060351,,,,,,,,,
,,,,,,,,,,,,0,1,1,1,1,second,4,22,Female,R,Donders,2021-07-06_17h05.56.841,ImageRatingTask_S2,2021.1.4,Win32,60.11060351,,,,,,,,,
,,,,,,,,,,,,0,2,2,2,1,third,4,22,Female,R,Donders,2021-07-06_17h05.56.841,ImageRatingTask_S2,2021.1.4,Win32,60.11060351,,,,,,,,,
,,,,,,,,,,,,0,3,3,3,1,fourth,4,22,Female,R,Donders,2021-07-06_17h05.56.841,ImageRatingTask_S2,2021.1.4,Win32,60.11060351,,,,,,,,,
,,,,,,,,,,,,0,4,4,4,1,fifth,4,22,Female,R,Donders,2021-07-06_17h05.56.841,ImageRatingTask_S2,2021.1.4,Win32,60.11060351,,,,,,,,,
,,,,,,,,,,,,0,5,5,5,1,sixth,4,22,Female,R,Donders,2021-07-06_17h05.56.841,ImageRatingTask_S2,2021.1.4,Win32,60.11060351,,,,,,,,,
,,,,,,,,,,,,0,6,6,6,1,seventh,4,22,Female,R,Donders,2021-07-06_17h05.56.841,ImageRatingTask_S2,2021.1.4,Win32,60.11060351,,,,,,,,,
,,,,,,,,,,,,0,7,7,7,1,last,4,22,Female,R,Donders,2021-07-06_17h05.56.841,ImageRatingTask_S2,2021.1.4,Win32,60.11060351,,,,,,,,,
,,,,,,,,,,,,,,,,,,4,22,Female,R,Donders,2021-07-06_17h05.56.841,ImageRatingTask_S2,2021.1.4,Win32,60.11060351,0,6,6,10,1,DreamStudyImages_rs1000x750g/Houses/NDPS6_buildings3.jpg,,,
,,6,3.3937,1,1.2476,7,1.8982,1,0.8583,5,0.8713,0,0,0,0,1,main,4,22,Female,R,Donders,2021-07-06_17h05.56.841,ImageRatingTask_S2,2021.1.4,Win32,60.11060351,,,,,,,,,
,,,,,,,,,,,,0,1,1,1,1,second,4,22,Female,R,Donders,2021-07-06_17h05.56.841,ImageRatingTask_S2,2021.1.4,Win32,60.11060351,,,,,,,,,
,,,,,,,,,,,,0,2,2,2,1,third,4,22,Female,R,Donders,2021-07-06_17h05.56.841,ImageRatingTask_S2,2021.1.4,Win32,60.11060351,,,,,,,,,
,,,,,,,,,,,,0,3,3,3,1,fourth,4,22,Female,R,Donders,2021-07-06_17h05.56.841,ImageRatingTask_S2,2021.1.4,Win32,60.11060351,,,,,,,,,
,,,,,,,,,,,,0,4,4,4,1,fifth,4,22,Female,R,Donders,2021-07-06_17h05.56.841,ImageRatingTask_S2,2021.1.4,Win32,60.11060351,,,,,,,,,
,,,,,,,,,,,,0,5,5,5,1,sixth,4,22,Female,R,Donders,2021-07-06_17h05.56.841,ImageRatingTask_S2,2021.1.4,Win32,60.11060351,,,,,,,,,
,,,,,,,,,,,,0,6,6,6,1,seventh,4,22,Female,R,Donders,2021-07-06_17h05.56.841,ImageRatingTask_S2,2021.1.4,Win32,60.11060351,,,,,,,,,
,,,,,,,,,,,,0,7,7,7,1,last,4,22,Female,R,Donders,2021-07-06_17h05.56.841,ImageRatingTask_S2,2021.1.4,Win32,60.11060351,,,,,,,,,
,,,,,,,,,,,,,,,,,,4,22,Female,R,Donders,2021-07-06_17h05.56.841,ImageRatingTask_S2,2021.1.4,Win32,60.11060351,0,7,7,41,1,DreamStudyImages_rs1000x750g/Food/Objects_104_v.jpg,,,
,,5,2.4189,1,1.069,6,2.152,0,2.1402,,,0,0,0,0,1,main,4,22,Female,R,Donders,2021-07-06_17h05.56.841,ImageRatingTask_S2,2021.1.4,Win32,60.11060351,,,,,,,,,
,,,,,,,,,,,,0,1,1,1,1,second,4,22,Female,R,Donders,2021-07-06_17h05.56.841,ImageRatingTask_S2,2021.1.4,Win32,60.11060351,,,,,,,,,
,,,,,,,,,,,,0,2,2,2,1,third,4,22,Female,R,Donders,2021-07-06_17h05.56.841,ImageRatingTask_S2,2021.1.4,Win32,60.11060351,,,,,,,,,
,,,,,,,,,,,,0,3,3,3,1,fourth,4,22,Female,R,Donders,2021-07-06_17h05.56.841,ImageRatingTask_S2,2021.1.4,Win32,60.11060351,,,,,,,,,
,,,,,,,,,,,,0,4,4,4,1,fifth,4,22,Female,R,Donders,2021-07-06_17h05.56.841,ImageRatingTask_S2,2021.1.4,Win32,60.11060351,,,,,,,,,
,,,,,,,,,,,,0,5,5,5,1,sixth,4,22,Female,R,Donders,2021-07-06_17h05.56.841,ImageRatingTask_S2,2021.1.4,Win32,60.11060351,,,,,,,,,
,,,,,,,,,,,,0,6,6,6,1,seventh,4,22,Female,R,Donders,2021-07-06_17h05.56.841,ImageRatingTask_S2,2021.1.4,Win32,60.11060351,,,,,,,,,
,,,,,,,,,,,,0,7,7,7,1,last,4,22,Female,R,Donders,2021-07-06_17h05.56.841,ImageRatingTask_S2,2021.1.4,Win32,60.11060351,,,,,,,,,
,,,,,,,,,,,,,,,,,,4,22,Female,R,Donders,2021-07-06_17h05.56.841,ImageRatingTask_S2,2021.1.4,Win32,60.11060351,0,8,8,120,1,DreamStudyImages_rs1000x750g/Houses/Objects_162_h.jpg,,,
,,5,2.4628,1,1.0541,7,1.9163,1,1.9169,7,0.7592,0,0,0,0,1,main,4,22,Female,R,Donders,2021-07-06_17h05.56.841,ImageRatingTask_S2,2021.1.4,Win32,60.11060351,,,,,,,,,
,,,,,,,,,,,,0,1,1,1,1,second,4,22,Female,R,Donders,2021-07-06_17h05.56.841,ImageRatingTask_S2,2021.1.4,Win32,60.11060351,,,,,,,,,
,,,,,,,,,,,,0,2,2,2,1,third,4,22,Female,R,Donders,2021-07-06_17h05.56.841,ImageRatingTask_S2,2021.1.4,Win32,60.11060351,,,,,,,,,
,,,,,,,,,,,,0,3,3,3,1,fourth,4,22,Female,R,Donders,2021-07-06_17h05.56.841,ImageRatingTask_S2,2021.1.4,Win32,60.11060351,,,,,,,,,
,,,,,,,,,,,,0,4,4,4,1,fifth,4,22,Female,R,Donders,2021-07-06_17h05.56.841,ImageRatingTask_S2,2021.1.4,Win32,60.11060351,,,,,,,,,
,,,,,,,,,,,,0,5,5,5,1,sixth,4,22,Female,R,Donders,2021-07-06_17h05.56.841,ImageRatingTask_S2,2021.1.4,Win32,60.11060351,,,,,,,,,
,,,,,,,,,,,,0,6,6,6,1,seventh,4,22,Female,R,Donders,2021-07-06_17h05.56.841,ImageRatingTask_S2,2021.1.4,Win32,60.11060351,,,,,,,,,
,,,,,,,,,,,,0,7,7,7,1,last,4,22,Female,R,Donders,2021-07-06_17h05.56.841,ImageRatingTask_S2,2021.1.4,Win32,60.11060351,,,,,,,,,
,,,,,,,,,,,,,,,,,,4,22,Female,R,Donders,2021-07-06_17h05.56.841,ImageRatingTask_S2,2021.1.4,Win32,60.11060351,0,9,9,47,1,DreamStudyImages_rs1000x750g/Vehicles/truckfleet.jpg,,,
,,2,5.8313,6,2.1834,6,2.4071,1,0.7579,2,0.6761,0,0,0,0,1,main,4,22,Female,R,Donders,2021-07-06_17h05.56.841,ImageRatingTask_S2,2021.1.4,Win32,60.11060351,,,,,,,,,
,,,,,,,,,,,,0,1,1,1,1,second,4,22,Female,R,Donders,2021-07-06_17h05.56.841,ImageRatingTask_S2,2021.1.4,Win32,60.11060351,,,,,,,,,
,,,,,,,,,,,,0,2,2,2,1,third,4,22,Female,R,Donders,2021-07-06_17h05.56.841,ImageRatingTask_S2,2021.1.4,Win32,60.11060351,,,,,,,,,
,,,,,,,,,,,,0,3,3,3,1,fourth,4,22,Female,R,Donders,2021-07-06_17h05.56.841,ImageRatingTask_S2,2021.1.4,Win32,60.11060351,,,,,,,,,
,,,,,,,,,,,,0,4,4,4,1,fifth,4,22,Female,R,Donders,2021-07-06_17h05.56.841,ImageRatingTask_S2,2021.1.4,Win32,60.11060351,,,,,,,,,
,,,,,,,,,,,,0,5,5,5,1,sixth,4,22,Female,R,Donders,2021-07-06_17h05.56.841,ImageRatingTask_S2,2021.1.4,Win32,60.11060351,,,,,,,,,
,,,,,,,,,,,,0,6,6,6,1,seventh,4,22,Female,R,Donders,2021-07-06_17h05.56.841,ImageRatingTask_S2,2021.1.4,Win32,60.11060351,,,,,,,,,
,,,,,,,,,,,,0,7,7,7,1,last,4,22,Female,R,Donders,2021-07-06_17h05.56.841,ImageRatingTask_S2,2021.1.4,Win32,60.11060351,,,,,,,,,
,,,,,,,,,,,,,,,,,,4,22,Female,R,Donders,2021-07-06_17h05.56.841,ImageRatingTask_S2,2021.1.4,Win32,60.11060351,0,10,10,56,1,DreamStudyImages_rs1000x750g/Children/People_034_h.jpg,,,
,,4,3.817,2,1.4544,6,2.1498,1,0.9037,5,0.9211,0,0,0,0,1,main,4,22,Female,R,Donders,2021-07-06_17h05.56.841,ImageRatingTask_S2,2021.1.4,Win32,60.11060351,,,,,,,,,
,,,,,,,,,,,,0,1,1,1,1,second,4,22,Female,R,Donders,2021-07-06_17h05.56.841,ImageRatingTask_S2,2021.1.4,Win32,60.11060351,,,,,,,,,
,,,,,,,,,,,,0,2,2,2,1,third,4,22,Female,R,Donders,2021-07-06_17h05.56.841,ImageRatingTask_S2,2021.1.4,Win32,60.11060351,,,,,,,,,
,,,,,,,,,,,,0,3,3,3,1,fourth,4,22,Female,R,Donders,2021-07-06_17h05.56.841,ImageRatingTask_S2,2021.1.4,Win32,60.11060351,,,,,,,,,
,,,,,,,,,,,,0,4,4,4,1,fifth,4,22,Female,R,Donders,2021-07-06_17h05.56.841,ImageRatingTask_S2,2021.1.4,Win32,60.11060351,,,,,,,,,
,,,,,,,,,,,,0,5,5,5,1,sixth,4,22,Female,R,Donders,2021-07-06_17h05.56.841,ImageRatingTask_S2,2021.1.4,Win32,60.11060351,,,,,,,,,
,,,,,,,,,,,,0,6,6,6,1,seventh,4,22,Female,R,Donders,2021-07-06_17h05.56.841,ImageRatingTask_S2,2021.1.4,Win32,60.11060351,,,,,,,,,
,,,,,,,,,,,,0,7,7,7,1,last,4,22,Female,R,Donders,2021-07-06_17h05.56.841,ImageRatingTask_S2,2021.1.4,Win32,60.11060351,,,,,,,,,
,,,,,,,,,,,,,,,,,,4,22,Female,R,Donders,2021-07-06_17h05.56.841,ImageRatingTask_S2,2021.1.4,Win32,60.11060351,0,11,11,108,1,DreamStudyImages_rs1000x750g/Food/Objects_036_v.jpg,,,
,,4,3.9747,1,3.5707,3,2.4514,1,4.7087,8,0.6047,0,0,0,0,1,main,4,22,Female,R,Donders,2021-07-06_17h05.56.841,ImageRatingTask_S2,2021.1.4,Win32,60.11060351,,,,,,,,,
,,,,,,,,,,,,0,1,1,1,1,second,4,22,Female,R,Donders,2021-07-06_17h05.56.841,ImageRatingTask_S2,2021.1.4,Win32,60.11060351,,,,,,,,,
,,,,,,,,,,,,0,2,2,2,1,third,4,22,Female,R,Donders,2021-07-06_17h05.56.841,ImageRatingTask_S2,2021.1.4,Win32,60.11060351,,,,,,,,,
,,,,,,,,,,,,0,3,3,3,1,fourth,4,22,Female,R,Donders,2021-07-06_17h05.56.841,ImageRatingTask_S2,2021.1.4,Win32,60.11060351,,,,,,,,,
,,,,,,,,,,,,0,4,4,4,1,fifth,4,22,Female,R,Donders,2021-07-06_17h05.56.841,ImageRatingTask_S2,2021.1.4,Win32,60.11060351,,,,,,,,,
,,,,,,,,,,,,0,5,5,5,1,sixth,4,22,Female,R,Donders,2021-07-06_17h05.56.841,ImageRatingTask_S2,2021.1.4,Win32,60.11060351,,,,,,,,,
,,,,,,,,,,,,0,6,6,6,1,seventh,4,22,Female,R,Donders,2021-07-06_17h05.56.841,ImageRatingTask_S2,2021.1.4,Win32,60.11060351,,,,,,,,,
,,,,,,,,,,,,0,7,7,7,1,last,4,22,Female,R,Donders,2021-07-06_17h05.56.841,ImageRatingTask_S2,2021.1.4,Win32,60.11060351,,,,,,,,,
,,,,,,,,,,,,,,,,,,4,22,Female,R,Donders,2021-07-06_17h05.56.841,ImageRatingTask_S2,2021.1.4,Win32,60.11060351,0,12,12,79,1,DreamStudyImages_rs1000x750g/Water/Flood 2.jpg,,,
,,7,2.8755,1,1.4522,8,2.2349,1,0.9641,3,1.3324,0,0,0,0,1,main,4,22,Female,R,Donders,2021-07-06_17h05.56.841,ImageRatingTask_S2,2021.1.4,Win32,60.11060351,,,,,,,,,
,,,,,,,,,,,,0,1,1,1,1,second,4,22,Female,R,Donders,2021-07-06_17h05.56.841,ImageRatingTask_S2,2021.1.4,Win32,60.11060351,,,,,,,,,
,,,,,,,,,,,,0,2,2,2,1,third,4,22,Female,R,Donders,2021-07-06_17h05.56.841,ImageRatingTask_S2,2021.1.4,Win32,60.11060351,,,,,,,,,
,,,,,,,,,,,,0,3,3,3,1,fourth,4,22,Female,R,Donders,2021-07-06_17h05.56.841,ImageRatingTask_S2,2021.1.4,Win32,60.11060351,,,,,,,,,
,,,,,,,,,,,,0,4,4,4,1,fifth,4,22,Female,R,Donders,2021-07-06_17h05.56.841,ImageRatingTask_S2,2021.1.4,Win32,60.11060351,,,,,,,,,
,,,,,,,,,,,,0,5,5,5,1,sixth,4,22,Female,R,Donders,2021-07-06_17h05.56.841,ImageRatingTask_S2,2021.1.4,Win32,60.11060351,,,,,,,,,
,,,,,,,,,,,,0,6,6,6,1,seventh,4,22,Female,R,Donders,2021-07-06_17h05.56.841,ImageRatingTask_S2,2021.1.4,Win32,60.11060351,,,,,,,,,
,,,,,,,,,,,,0,7,7,7,1,last,4,22,Female,R,Donders,2021-07-06_17h05.56.841,ImageRatingTask_S2,2021.1.4,Win32,60.11060351,,,,,,,,,
,,,,,,,,,,,,,,,,,,4,22,Female,R,Donders,2021-07-06_17h05.56.841,ImageRatingTask_S2,2021.1.4,Win32,60.11060351,0,13,13,83,1,DreamStudyImages_rs1000x750g/Mammals/Animals_210_v.jpg,,,
,,6,3.2023,1,2.8502,7,2.1831,1,0.8107,7,0.6319,0,0,0,0,1,main,4,22,Female,R,Donders,2021-07-06_17h05.56.841,ImageRatingTask_S2,2021.1.4,Win32,60.11060351,,,,,,,,,
,,,,,,,,,,,,0,1,1,1,1,second,4,22,Female,R,Donders,2021-07-06_17h05.56.841,ImageRatingTask_S2,2021.1.4,Win32,60.11060351,,,,,,,,,
,,,,,,,,,,,,0,2,2,2,1,third,4,22,Female,R,Donders,2021-07-06_17h05.56.841,ImageRatingTask_S2,2021.1.4,Win32,60.11060351,,,,,,,,,
,,,,,,,,,,,,0,3,3,3,1,fourth,4,22,Female,R,Donders,2021-07-06_17h05.56.841,ImageRatingTask_S2,2021.1.4,Win32,60.11060351,,,,,,,,,
,,,,,,,,,,,,0,4,4,4,1,fifth,4,22,Female,R,Donders,2021-07-06_17h05.56.841,ImageRatingTask_S2,2021.1.4,Win32,60.11060351,,,,,,,,,
,,,,,,,,,,,,0,5,5,5,1,sixth,4,22,Female,R,Donders,2021-07-06_17h05.56.841,ImageRatingTask_S2,2021.1.4,Win32,60.11060351,,,,,,,,,
,,,,,,,,,,,,0,6,6,6,1,seventh,4,22,Female,R,Donders,2021-07-06_17h05.56.841,ImageRatingTask_S2,2021.1.4,Win32,60.11060351,,,,,,,,,
,,,,,,,,,,,,0,7,7,7,1,last,4,22,Female,R,Donders,2021-07-06_17h05.56.841,ImageRatingTask_S2,2021.1.4,Win32,60.11060351,,,,,,,,,
,,,,,,,,,,,,,,,,,,4,22,Female,R,Donders,2021-07-06_17h05.56.841,ImageRatingTask_S2,2021.1.4,Win32,60.11060351,0,14,14,15,1,DreamStudyImages_rs1000x750g/Vehicles/vespa.jpg,,,
,,2,3.3643,4,1.3536,7,1.7461,1,0.6952,3,1.0803,0,0,0,0,1,main,4,22,Female,R,Donders,2021-07-06_17h05.56.841,ImageRatingTask_S2,2021.1.4,Win32,60.11060351,,,,,,,,,
,,,,,,,,,,,,0,1,1,1,1,second,4,22,Female,R,Donders,2021-07-06_17h05.56.841,ImageRatingTask_S2,2021.1.4,Win32,60.11060351,,,,,,,,,
,,,,,,,,,,,,0,2,2,2,1,third,4,22,Female,R,Donders,2021-07-06_17h05.56.841,ImageRatingTask_S2,2021.1.4,Win32,60.11060351,,,,,,,,,
,,,,,,,,,,,,0,3,3,3,1,fourth,4,22,Female,R,Donders,2021-07-06_17h05.56.841,ImageRatingTask_S2,2021.1.4,Win32,60.11060351,,,,,,,,,
,,,,,,,,,,,,0,4,4,4,1,fifth,4,22,Female,R,Donders,2021-07-06_17h05.56.841,ImageRatingTask_S2,2021.1.4,Win32,60.11060351,,,,,,,,,
,,,,,,,,,,,,0,5,5,5,1,sixth,4,22,Female,R,Donders,2021-07-06_17h05.56.841,ImageRatingTask_S2,2021.1.4,Win32,60.11060351,,,,,,,,,
,,,,,,,,,,,,0,6,6,6,1,seventh,4,22,Female,R,Donders,2021-07-06_17h05.56.841,ImageRatingTask_S2,2021.1.4,Win32,60.11060351,,,,,,,,,
,,,,,,,,,,,,0,7,7,7,1,last,4,22,Female,R,Donders,2021-07-06_17h05.56.841,ImageRatingTask_S2,2021.1.4,Win32,60.11060351,,,,,,,,,
,,,,,,,,,,,,,,,,,,4,22,Female,R,Donders,2021-07-06_17h05.56.841,ImageRatingTask_S2,2021.1.4,Win32,60.11060351,0,15,15,99,1,DreamStudyImages_rs1000x750g/Mammals/Monkey 4.jpg,,,
,,4,2.808,3,6.5592,5,2.2338,1,1.1363,6,0.6319,0,0,0,0,1,main,4,22,Female,R,Donders,2021-07-06_17h05.56.841,ImageRatingTask_S2,2021.1.4,Win32,60.11060351,,,,,,,,,
,,,,,,,,,,,,0,1,1,1,1,second,4,22,Female,R,Donders,2021-07-06_17h05.56.841,ImageRatingTask_S2,2021.1.4,Win32,60.11060351,,,,,,,,,
,,,,,,,,,,,,0,2,2,2,1,third,4,22,Female,R,Donders,2021-07-06_17h05.56.841,ImageRatingTask_S2,2021.1.4,Win32,60.11060351,,,,,,,,,
,,,,,,,,,,,,0,3,3,3,1,fourth,4,22,Female,R,Donders,2021-07-06_17h05.56.841,ImageRatingTask_S2,2021.1.4,Win32,60.11060351,,,,,,,,,
,,,,,,,,,,,,0,4,4,4,1,fifth,4,22,Female,R,Donders,2021-07-06_17h05.56.841,ImageRatingTask_S2,2021.1.4,Win32,60.11060351,,,,,,,,,
,,,,,,,,,,,,0,5,5,5,1,sixth,4,22,Female,R,Donders,2021-07-06_17h05.56.841,ImageRatingTask_S2,2021.1.4,Win32,60.11060351,,,,,,,,,
,,,,,,,,,,,,0,6,6,6,1,seventh,4,22,Female,R,Donders,2021-07-06_17h05.56.841,ImageRatingTask_S2,2021.1.4,Win32,60.11060351,,,,,,,,,
,,,,,,,,,,,,0,7,7,7,1,last,4,22,Female,R,Donders,2021-07-06_17h05.56.841,ImageRatingTask_S2,2021.1.4,Win32,60.11060351,,,,,,,,,
,,,,,,,,,,,,,,,,,,4,22,Female,R,Donders,2021-07-06_17h05.56.841,ImageRatingTask_S2,2021.1.4,Win32,60.11060351,0,16,16,48,1,DreamStudyImages_rs1000x750g/Houses/Landscapes_018_h_CROPPED.jpg,,,
,,4,6.7513,6,1.5585,6,2.8393,0,1.4012,,,0,0,0,0,1,main,4,22,Female,R,Donders,2021-07-06_17h05.56.841,ImageRatingTask_S2,2021.1.4,Win32,60.11060351,,,,,,,,,
,,,,,,,,,,,,0,1,1,1,1,second,4,22,Female,R,Donders,2021-07-06_17h05.56.841,ImageRatingTask_S2,2021.1.4,Win32,60.11060351,,,,,,,,,
,,,,,,,,,,,,0,2,2,2,1,third,4,22,Female,R,Donders,2021-07-06_17h05.56.841,ImageRatingTask_S2,2021.1.4,Win32,60.11060351,,,,,,,,,
,,,,,,,,,,,,0,3,3,3,1,fourth,4,22,Female,R,Donders,2021-07-06_17h05.56.841,ImageRatingTask_S2,2021.1.4,Win32,60.11060351,,,,,,,,,
,,,,,,,,,,,,0,4,4,4,1,fifth,4,22,Female,R,Donders,2021-07-06_17h05.56.841,ImageRatingTask_S2,2021.1.4,Win32,60.11060351,,,,,,,,,
,,,,,,,,,,,,0,5,5,5,1,sixth,4,22,Female,R,Donders,2021-07-06_17h05.56.841,ImageRatingTask_S2,2021.1.4,Win32,60.11060351,,,,,,,,,
,,,,,,,,,,,,0,6,6,6,1,seventh,4,22,Female,R,Donders,2021-07-06_17h05.56.841,ImageRatingTask_S2,2021.1.4,Win32,60.11060351,,,,,,,,,
,,,,,,,,,,,,0,7,7,7,1,last,4,22,Female,R,Donders,2021-07-06_17h05.56.841,ImageRatingTask_S2,2021.1.4,Win32,60.11060351,,,,,,,,,
,,,,,,,,,,,,,,,,,,4,22,Female,R,Donders,2021-07-06_17h05.56.841,ImageRatingTask_S2,2021.1.4,Win32,60.11060351,0,17,17,97,1,DreamStudyImages_rs1000x750g/Houses/Landscapes_002_h.jpg,,,
,,5,2.2932,1,1.3143,7,3.9919,1,2.0805,6,0.5601,0,0,0,0,1,main,4,22,Female,R,Donders,2021-07-06_17h05.56.841,ImageRatingTask_S2,2021.1.4,Win32,60.11060351,,,,,,,,,
,,,,,,,,,,,,0,1,1,1,1,second,4,22,Female,R,Donders,2021-07-06_17h05.56.841,ImageRatingTask_S2,2021.1.4,Win32,60.11060351,,,,,,,,,
,,,,,,,,,,,,0,2,2,2,1,third,4,22,Female,R,Donders,2021-07-06_17h05.56.841,ImageRatingTask_S2,2021.1.4,Win32,60.11060351,,,,,,,,,
,,,,,,,,,,,,0,3,3,3,1,fourth,4,22,Female,R,Donders,2021-07-06_17h05.56.841,ImageRatingTask_S2,2021.1.4,Win32,60.11060351,,,,,,,,,
,,,,,,,,,,,,0,4,4,4,1,fifth,4,22,Female,R,Donders,2021-07-06_17h05.56.841,ImageRatingTask_S2,2021.1.4,Win32,60.11060351,,,,,,,,,
,,,,,,,,,,,,0,5,5,5,1,sixth,4,22,Female,R,Donders,2021-07-06_17h05.56.841,ImageRatingTask_S2,2021.1.4,Win32,60.11060351,,,,,,,,,
,,,,,,,,,,,,0,6,6,6,1,seventh,4,22,Female,R,Donders,2021-07-06_17h05.56.841,ImageRatingTask_S2,2021.1.4,Win32,60.11060351,,,,,,,,,
,,,,,,,,,,,,0,7,7,7,1,last,4,22,Female,R,Donders,2021-07-06_17h05.56.841,ImageRatingTask_S2,2021.1.4,Win32,60.11060351,,,,,,,,,
,,,,,,,,,,,,,,,,,,4,22,Female,R,Donders,2021-07-06_17h05.56.841,ImageRatingTask_S2,2021.1.4,Win32,60.11060351,0,18,18,123,1,DreamStudyImages_rs1000x750g/Houses/Landscapes_065_h.jpg,,,
,,5,5.312,1,1.9097,8,1.6612,1,1.8399,7,0.4304,0,0,0,0,1,main,4,22,Female,R,Donders,2021-07-06_17h05.56.841,ImageRatingTask_S2,2021.1.4,Win32,60.11060351,,,,,,,,,
,,,,,,,,,,,,0,1,1,1,1,second,4,22,Female,R,Donders,2021-07-06_17h05.56.841,ImageRatingTask_S2,2021.1.4,Win32,60.11060351,,,,,,,,,
,,,,,,,,,,,,0,2,2,2,1,third,4,22,Female,R,Donders,2021-07-06_17h05.56.841,ImageRatingTask_S2,2021.1.4,Win32,60.11060351,,,,,,,,,
,,,,,,,,,,,,0,3,3,3,1,fourth,4,22,Female,R,Donders,2021-07-06_17h05.56.841,ImageRatingTask_S2,2021.1.4,Win32,60.11060351,,,,,,,,,
,,,,,,,,,,,,0,4,4,4,1,fifth,4,22,Female,R,Donders,2021-07-06_17h05.56.841,ImageRatingTask_S2,2021.1.4,Win32,60.11060351,,,,,,,,,
,,,,,,,,,,,,0,5,5,5,1,sixth,4,22,Female,R,Donders,2021-07-06_17h05.56.841,ImageRatingTask_S2,2021.1.4,Win32,60.11060351,,,,,,,,,
,,,,,,,,,,,,0,6,6,6,1,seventh,4,22,Female,R,Donders,2021-07-06_17h05.56.841,ImageRatingTask_S2,2021.1.4,Win32,60.11060351,,,,,,,,,
,,,,,,,,,,,,0,7,7,7,1,last,4,22,Female,R,Donders,2021-07-06_17h05.56.841,ImageRatingTask_S2,2021.1.4,Win32,60.11060351,,,,,,,,,
,,,,,,,,,,,,,,,,,,4,22,Female,R,Donders,2021-07-06_17h05.56.841,ImageRatingTask_S2,2021.1.4,Win32,60.11060351,0,19,19,66,1,DreamStudyImages_rs1000x750g/Vehicles/Objects_250_h.jpg,,,
,,5,4.0683,1,0.8748,7,1.4247,1,0.8228,7,0.5118,0,0,0,0,1,main,4,22,Female,R,Donders,2021-07-06_17h05.56.841,ImageRatingTask_S2,2021.1.4,Win32,60.11060351,,,,,,,,,
,,,,,,,,,,,,0,1,1,1,1,second,4,22,Female,R,Donders,2021-07-06_17h05.56.841,ImageRatingTask_S2,2021.1.4,Win32,60.11060351,,,,,,,,,
,,,,,,,,,,,,0,2,2,2,1,third,4,22,Female,R,Donders,2021-07-06_17h05.56.841,ImageRatingTask_S2,2021.1.4,Win32,60.11060351,,,,,,,,,
,,,,,,,,,,,,0,3,3,3,1,fourth,4,22,Female,R,Donders,2021-07-06_17h05.56.841,ImageRatingTask_S2,2021.1.4,Win32,60.11060351,,,,,,,,,
,,,,,,,,,,,,0,4,4,4,1,fifth,4,22,Female,R,Donders,2021-07-06_17h05.56.841,ImageRatingTask_S2,2021.1.4,Win32,60.11060351,,,,,,,,,
,,,,,,,,,,,,0,5,5,5,1,sixth,4,22,Female,R,Donders,2021-07-06_17h05.56.841,ImageRatingTask_S2,2021.1.4,Win32,60.11060351,,,,,,,,,
,,,,,,,,,,,,0,6,6,6,1,seventh,4,22,Female,R,Donders,2021-07-06_17h05.56.841,ImageRatingTask_S2,2021.1.4,Win32,60.11060351,,,,,,,,,
,,,,,,,,,,,,0,7,7,7,1,last,4,22,Female,R,Donders,2021-07-06_17h05.56.841,ImageRatingTask_S2,2021.1.4,Win32,60.11060351,,,,,,,,,
,,,,,,,,,,,,,,,,,,4,22,Female,R,Donders,2021-07-06_17h05.56.841,ImageRatingTask_S2,2021.1.4,Win32,60.11060351,0,20,20,57,1,DreamStudyImages_rs1000x750g/Vehicles/toytruck.jpg,,,
,,5,2.5299,2,6.2314,5,1.8824,0,2.3286,,,0,0,0,0,1,main,4,22,Female,R,Donders,2021-07-06_17h05.56.841,ImageRatingTask_S2,2021.1.4,Win32,60.11060351,,,,,,,,,
,,,,,,,,,,,,0,1,1,1,1,second,4,22,Female,R,Donders,2021-07-06_17h05.56.841,ImageRatingTask_S2,2021.1.4,Win32,60.11060351,,,,,,,,,
,,,,,,,,,,,,0,2,2,2,1,third,4,22,Female,R,Donders,2021-07-06_17h05.56.841,ImageRatingTask_S2,2021.1.4,Win32,60.11060351,,,,,,,,,
,,,,,,,,,,,,0,3,3,3,1,fourth,4,22,Female,R,Donders,2021-07-06_17h05.56.841,ImageRatingTask_S2,2021.1.4,Win32,60.11060351,,,,,,,,,
,,,,,,,,,,,,0,4,4,4,1,fifth,4,22,Female,R,Donders,2021-07-06_17h05.56.841,ImageRatingTask_S2,2021.1.4,Win32,60.11060351,,,,,,,,,
,,,,,,,,,,,,0,5,5,5,1,sixth,4,22,Female,R,Donders,2021-07-06_17h05.56.841,ImageRatingTask_S2,2021.1.4,Win32,60.11060351,,,,,,,,,
,,,,,,,,,,,,0,6,6,6,1,seventh,4,22,Female,R,Donders,2021-07-06_17h05.56.841,ImageRatingTask_S2,2021.1.4,Win32,60.11060351,,,,,,,,,
,,,,,,,,,,,,0,7,7,7,1,last,4,22,Female,R,Donders,2021-07-06_17h05.56.841,ImageRatingTask_S2,2021.1.4,Win32,60.11060351,,,,,,,,,
,,,,,,,,,,,,,,,,,,4,22,Female,R,Donders,2021-07-06_17h05.56.841,ImageRatingTask_S2,2021.1.4,Win32,60.11060351,0,21,21,73,1,DreamStudyImages_rs1000x750g/Water/IAPS5781_mistylake.jpg,,,
,,4,2.2411,4,3.8873,6,1.5749,1,0.9921,2,0.561,0,0,0,0,1,main,4,22,Female,R,Donders,2021-07-06_17h05.56.841,ImageRatingTask_S2,2021.1.4,Win32,60.11060351,,,,,,,,,
,,,,,,,,,,,,0,1,1,1,1,second,4,22,Female,R,Donders,2021-07-06_17h05.56.841,ImageRatingTask_S2,2021.1.4,Win32,60.11060351,,,,,,,,,
,,,,,,,,,,,,0,2,2,2,1,third,4,22,Female,R,Donders,2021-07-06_17h05.56.841,ImageRatingTask_S2,2021.1.4,Win32,60.11060351,,,,,,,,,
,,,,,,,,,,,,0,3,3,3,1,fourth,4,22,Female,R,Donders,2021-07-06_17h05.56.841,ImageRatingTask_S2,2021.1.4,Win32,60.11060351,,,,,,,,,
,,,,,,,,,,,,0,4,4,4,1,fifth,4,22,Female,R,Donders,2021-07-06_17h05.56.841,ImageRatingTask_S2,2021.1.4,Win32,60.11060351,,,,,,,,,
,,,,,,,,,,,,0,5,5,5,1,sixth,4,22,Female,R,Donders,2021-07-06_17h05.56.841,ImageRatingTask_S2,2021.1.4,Win32,60.11060351,,,,,,,,,
,,,,,,,,,,,,0,6,6,6,1,seventh,4,22,Female,R,Donders,2021-07-06_17h05.56.841,ImageRatingTask_S2,2021.1.4,Win32,60.11060351,,,,,,,,,
,,,,,,,,,,,,0,7,7,7,1,last,4,22,Female,R,Donders,2021-07-06_17h05.56.841,ImageRatingTask_S2,2021.1.4,Win32,60.11060351,,,,,,,,,
,,,,,,,,,,,,,,,,,,4,22,Female,R,Donders,2021-07-06_17h05.56.841,ImageRatingTask_S2,2021.1.4,Win32,60.11060351,0,22,22,51,1,DreamStudyImages_rs1000x750g/Children/Faces_029_h.jpg,,,
,,5,1.9281,2,2.1225,5,1.566,1,1.0339,3,1.2556,0,0,0,0,1,main,4,22,Female,R,Donders,2021-07-06_17h05.56.841,ImageRatingTask_S2,2021.1.4,Win32,60.11060351,,,,,,,,,
,,,,,,,,,,,,0,1,1,1,1,second,4,22,Female,R,Donders,2021-07-06_17h05.56.841,ImageRatingTask_S2,2021.1.4,Win32,60.11060351,,,,,,,,,
,,,,,,,,,,,,0,2,2,2,1,third,4,22,Female,R,Donders,2021-07-06_17h05.56.841,ImageRatingTask_S2,2021.1.4,Win32,60.11060351,,,,,,,,,
,,,,,,,,,,,,0,3,3,3,1,fourth,4,22,Female,R,Donders,2021-07-06_17h05.56.841,ImageRatingTask_S2,2021.1.4,Win32,60.11060351,,,,,,,,,
,,,,,,,,,,,,0,4,4,4,1,fifth,4,22,Female,R,Donders,2021-07-06_17h05.56.841,ImageRatingTask_S2,2021.1.4,Win32,60.11060351,,,,,,,,,
,,,,,,,,,,,,0,5,5,5,1,sixth,4,22,Female,R,Donders,2021-07-06_17h05.56.841,ImageRatingTask_S2,2021.1.4,Win32,60.11060351,,,,,,,,,
,,,,,,,,,,,,0,6,6,6,1,seventh,4,22,Female,R,Donders,2021-07-06_17h05.56.841,ImageRatingTask_S2,2021.1.4,Win32,60.11060351,,,,,,,,,
,,,,,,,,,,,,0,7,7,7,1,last,4,22,Female,R,Donders,2021-07-06_17h05.56.841,ImageRatingTask_S2,2021.1.4,Win32,60.11060351,,,,,,,,,
,,,,,,,,,,,,,,,,,,4,22,Female,R,Donders,2021-07-06_17h05.56.841,ImageRatingTask_S2,2021.1.4,Win32,60.11060351,0,23,23,142,1,DreamStudyImages_rs1000x750g/Mammals/IAPS1640_fox.jpg,,,
,,4,3.7191,5,3.328,5,1.5966,1,1.0502,2,1.2029,0,0,0,0,1,main,4,22,Female,R,Donders,2021-07-06_17h05.56.841,ImageRatingTask_S2,2021.1.4,Win32,60.11060351,,,,,,,,,
,,,,,,,,,,,,0,1,1,1,1,second,4,22,Female,R,Donders,2021-07-06_17h05.56.841,ImageRatingTask_S2,2021.1.4,Win32,60.11060351,,,,,,,,,
,,,,,,,,,,,,0,2,2,2,1,third,4,22,Female,R,Donders,2021-07-06_17h05.56.841,ImageRatingTask_S2,2021.1.4,Win32,60.11060351,,,,,,,,,
,,,,,,,,,,,,0,3,3,3,1,fourth,4,22,Female,R,Donders,2021-07-06_17h05.56.841,ImageRatingTask_S2,2021.1.4,Win32,60.11060351,,,,,,,,,
,,,,,,,,,,,,0,4,4,4,1,fifth,4,22,Female,R,Donders,2021-07-06_17h05.56.841,ImageRatingTask_S2,2021.1.4,Win32,60.11060351,,,,,,,,,
,,,,,,,,,,,,0,5,5,5,1,sixth,4,22,Female,R,Donders,2021-07-06_17h05.56.841,ImageRatingTask_S2,2021.1.4,Win32,60.11060351,,,,,,,,,
,,,,,,,,,,,,0,6,6,6,1,seventh,4,22,Female,R,Donders,2021-07-06_17h05.56.841,ImageRatingTask_S2,2021.1.4,Win32,60.11060351,,,,,,,,,
,,,,,,,,,,,,0,7,7,7,1,last,4,22,Female,R,Donders,2021-07-06_17h05.56.841,ImageRatingTask_S2,2021.1.4,Win32,60.11060351,,,,,,,,,
,,,,,,,,,,,,,,,,,,4,22,Female,R,Donders,2021-07-06_17h05.56.841,ImageRatingTask_S2,2021.1.4,Win32,60.11060351,0,24,24,21,1,DreamStudyImages_rs1000x750g/Children/IAPS3280_boy14_humans.jpg,,,
,,4,2.4884,4,2.8849,7,1.5819,1,1.0919,2,0.6047,0,0,0,0,1,main,4,22,Female,R,Donders,2021-07-06_17h05.56.841,ImageRatingTask_S2,2021.1.4,Win32,60.11060351,,,,,,,,,
,,,,,,,,,,,,0,1,1,1,1,second,4,22,Female,R,Donders,2021-07-06_17h05.56.841,ImageRatingTask_S2,2021.1.4,Win32,60.11060351,,,,,,,,,
,,,,,,,,,,,,0,2,2,2,1,third,4,22,Female,R,Donders,2021-07-06_17h05.56.841,ImageRatingTask_S2,2021.1.4,Win32,60.11060351,,,,,,,,,
,,,,,,,,,,,,0,3,3,3,1,fourth,4,22,Female,R,Donders,2021-07-06_17h05.56.841,ImageRatingTask_S2,2021.1.4,Win32,60.11060351,,,,,,,,,
,,,,,,,,,,,,0,4,4,4,1,fifth,4,22,Female,R,Donders,2021-07-06_17h05.56.841,ImageRatingTask_S2,2021.1.4,Win32,60.11060351,,,,,,,,,
,,,,,,,,,,,,0,5,5,5,1,sixth,4,22,Female,R,Donders,2021-07-06_17h05.56.841,ImageRatingTask_S2,2021.1.4,Win32,60.11060351,,,,,,,,,
,,,,,,,,,,,,0,6,6,6,1,seventh,4,22,Female,R,Donders,2021-07-06_17h05.56.841,ImageRatingTask_S2,2021.1.4,Win32,60.11060351,,,,,,,,,
,,,,,,,,,,,,0,7,7,7,1,last,4,22,Female,R,Donders,2021-07-06_17h05.56.841,ImageRatingTask_S2,2021.1.4,Win32,60.11060351,,,,,,,,,
,,,,,,,,,,,,,,,,,,4,22,Female,R,Donders,2021-07-06_17h05.56.841,ImageRatingTask_S2,2021.1.4,Win32,60.11060351,0,25,25,81,1,DreamStudyImages_rs1000x750g/Children/Faces_085_h.jpg,,,
,,5,2.2676,1,1.083,7,2.9618,1,1.056,7,0.4157,0,0,0,0,1,main,4,22,Female,R,Donders,2021-07-06_17h05.56.841,ImageRatingTask_S2,2021.1.4,Win32,60.11060351,,,,,,,,,
,,,,,,,,,,,,0,1,1,1,1,second,4,22,Female,R,Donders,2021-07-06_17h05.56.841,ImageRatingTask_S2,2021.1.4,Win32,60.11060351,,,,,,,,,
,,,,,,,,,,,,0,2,2,2,1,third,4,22,Female,R,Donders,2021-07-06_17h05.56.841,ImageRatingTask_S2,2021.1.4,Win32,60.11060351,,,,,,,,,
,,,,,,,,,,,,0,3,3,3,1,fourth,4,22,Female,R,Donders,2021-07-06_17h05.56.841,ImageRatingTask_S2,2021.1.4,Win32,60.11060351,,,,,,,,,
,,,,,,,,,,,,0,4,4,4,1,fifth,4,22,Female,R,Donders,2021-07-06_17h05.56.841,ImageRatingTask_S2,2021.1.4,Win32,60.11060351,,,,,,,,,
,,,,,,,,,,,,0,5,5,5,1,sixth,4,22,Female,R,Donders,2021-07-06_17h05.56.841,ImageRatingTask_S2,2021.1.4,Win32,60.11060351,,,,,,,,,
,,,,,,,,,,,,0,6,6,6,1,seventh,4,22,Female,R,Donders,2021-07-06_17h05.56.841,ImageRatingTask_S2,2021.1.4,Win32,60.11060351,,,,,,,,,
,,,,,,,,,,,,0,7,7,7,1,last,4,22,Female,R,Donders,2021-07-06_17h05.56.841,ImageRatingTask_S2,2021.1.4,Win32,60.11060351,,,,,,,,,
,,,,,,,,,,,,,,,,,,4,22,Female,R,Donders,2021-07-06_17h05.56.841,ImageRatingTask_S2,2021.1.4,Win32,60.11060351,0,26,26,45,1,DreamStudyImages_rs1000x750g/Vehicles/retrolocomotive.jpg,,,
,,5,4.5056,4,1.9101,7,3.4351,1,1.2585,2,1.2073,0,0,0,0,1,main,4,22,Female,R,Donders,2021-07-06_17h05.56.841,ImageRatingTask_S2,2021.1.4,Win32,60.11060351,,,,,,,,,
,,,,,,,,,,,,0,1,1,1,1,second,4,22,Female,R,Donders,2021-07-06_17h05.56.841,ImageRatingTask_S2,2021.1.4,Win32,60.11060351,,,,,,,,,
,,,,,,,,,,,,0,2,2,2,1,third,4,22,Female,R,Donders,2021-07-06_17h05.56.841,ImageRatingTask_S2,2021.1.4,Win32,60.11060351,,,,,,,,,
,,,,,,,,,,,,0,3,3,3,1,fourth,4,22,Female,R,Donders,2021-07-06_17h05.56.841,ImageRatingTask_S2,2021.1.4,Win32,60.11060351,,,,,,,,,
,,,,,,,,,,,,0,4,4,4,1,fifth,4,22,Female,R,Donders,2021-07-06_17h05.56.841,ImageRatingTask_S2,2021.1.4,Win32,60.11060351,,,,,,,,,
,,,,,,,,,,,,0,5,5,5,1,sixth,4,22,Female,R,Donders,2021-07-06_17h05.56.841,ImageRatingTask_S2,2021.1.4,Win32,60.11060351,,,,,,,,,
,,,,,,,,,,,,0,6,6,6,1,seventh,4,22,Female,R,Donders,2021-07-06_17h05.56.841,ImageRatingTask_S2,2021.1.4,Win32,60.11060351,,,,,,,,,
,,,,,,,,,,,,0,7,7,7,1,last,4,22,Female,R,Donders,2021-07-06_17h05.56.841,ImageRatingTask_S2,2021.1.4,Win32,60.11060351,,,,,,,,,
,,,,,,,,,,,,,,,,,,4,22,Female,R,Donders,2021-07-06_17h05.56.841,ImageRatingTask_S2,2021.1.4,Win32,60.11060351,0,27,27,121,1,DreamStudyImages_rs1000x750g/Children/Faces_003_h.jpg,,,
,,5,2.6439,1,0.7911,6,1.7261,1,1.2735,5,0.7158,0,0,0,0,1,main,4,22,Female,R,Donders,2021-07-06_17h05.56.841,ImageRatingTask_S2,2021.1.4,Win32,60.11060351,,,,,,,,,
,,,,,,,,,,,,0,1,1,1,1,second,4,22,Female,R,Donders,2021-07-06_17h05.56.841,ImageRatingTask_S2,2021.1.4,Win32,60.11060351,,,,,,,,,
,,,,,,,,,,,,0,2,2,2,1,third,4,22,Female,R,Donders,2021-07-06_17h05.56.841,ImageRatingTask_S2,2021.1.4,Win32,60.11060351,,,,,,,,,
,,,,,,,,,,,,0,3,3,3,1,fourth,4,22,Female,R,Donders,2021-07-06_17h05.56.841,ImageRatingTask_S2,2021.1.4,Win32,60.11060351,,,,,,,,,
,,,,,,,,,,,,0,4,4,4,1,fifth,4,22,Female,R,Donders,2021-07-06_17h05.56.841,ImageRatingTask_S2,2021.1.4,Win32,60.11060351,,,,,,,,,
,,,,,,,,,,,,0,5,5,5,1,sixth,4,22,Female,R,Donders,2021-07-06_17h05.56.841,ImageRatingTask_S2,2021.1.4,Win32,60.11060351,,,,,,,,,
,,,,,,,,,,,,0,6,6,6,1,seventh,4,22,Female,R,Donders,2021-07-06_17h05.56.841,ImageRatingTask_S2,2021.1.4,Win32,60.11060351,,,,,,,,,
,,,,,,,,,,,,0,7,7,7,1,last,4,22,Female,R,Donders,2021-07-06_17h05.56.841,ImageRatingTask_S2,2021.1.4,Win32,60.11060351,,,,,,,,,
,,,,,,,,,,,,,,,,,,4,22,Female,R,Donders,2021-07-06_17h05.56.841,ImageRatingTask_S2,2021.1.4,Win32,60.11060351,0,28,28,38,1,DreamStudyImages_rs1000x750g/Food/Objects_043_h.jpg,,,
,,5,2.2106,1,1.4052,5,1.6602,1,0.7108,7,0.6199,0,0,0,0,1,main,4,22,Female,R,Donders,2021-07-06_17h05.56.841,ImageRatingTask_S2,2021.1.4,Win32,60.11060351,,,,,,,,,
,,,,,,,,,,,,0,1,1,1,1,second,4,22,Female,R,Donders,2021-07-06_17h05.56.841,ImageRatingTask_S2,2021.1.4,Win32,60.11060351,,,,,,,,,
,,,,,,,,,,,,0,2,2,2,1,third,4,22,Female,R,Donders,2021-07-06_17h05.56.841,ImageRatingTask_S2,2021.1.4,Win32,60.11060351,,,,,,,,,
,,,,,,,,,,,,0,3,3,3,1,fourth,4,22,Female,R,Donders,2021-07-06_17h05.56.841,ImageRatingTask_S2,2021.1.4,Win32,60.11060351,,,,,,,,,
,,,,,,,,,,,,0,4,4,4,1,fifth,4,22,Female,R,Donders,2021-07-06_17h05.56.841,ImageRatingTask_S2,2021.1.4,Win32,60.11060351,,,,,,,,,
,,,,,,,,,,,,0,5,5,5,1,sixth,4,22,Female,R,Donders,2021-07-06_17h05.56.841,ImageRatingTask_S2,2021.1.4,Win32,60.11060351,,,,,,,,,
,,,,,,,,,,,,0,6,6,6,1,seventh,4,22,Female,R,Donders,2021-07-06_17h05.56.841,ImageRatingTask_S2,2021.1.4,Win32,60.11060351,,,,,,,,,
,,,,,,,,,,,,0,7,7,7,1,last,4,22,Female,R,Donders,2021-07-06_17h05.56.841,ImageRatingTask_S2,2021.1.4,Win32,60.11060351,,,,,,,,,
,,,,,,,,,,,,,,,,,,4,22,Female,R,Donders,2021-07-06_17h05.56.841,ImageRatingTask_S2,2021.1.4,Win32,60.11060351,0,29,29,139,1,DreamStudyImages_rs1000x750g/Vehicles/Car race 3.jpg,,,
,,5,4.3127,1,1.3381,5,1.6574,1,0.8834,3,1.0663,0,0,0,0,1,main,4,22,Female,R,Donders,2021-07-06_17h05.56.841,ImageRatingTask_S2,2021.1.4,Win32,60.11060351,,,,,,,,,
,,,,,,,,,,,,0,1,1,1,1,second,4,22,Female,R,Donders,2021-07-06_17h05.56.841,ImageRatingTask_S2,2021.1.4,Win32,60.11060351,,,,,,,,,
,,,,,,,,,,,,0,2,2,2,1,third,4,22,Female,R,Donders,2021-07-06_17h05.56.841,ImageRatingTask_S2,2021.1.4,Win32,60.11060351,,,,,,,,,
,,,,,,,,,,,,0,3,3,3,1,fourth,4,22,Female,R,Donders,2021-07-06_17h05.56.841,ImageRatingTask_S2,2021.1.4,Win32,60.11060351,,,,,,,,,
,,,,,,,,,,,,0,4,4,4,1,fifth,4,22,Female,R,Donders,2021-07-06_17h05.56.841,ImageRatingTask_S2,2021.1.4,Win32,60.11060351,,,,,,,,,
,,,,,,,,,,,,0,5,5,5,1,sixth,4,22,Female,R,Donders,2021-07-06_17h05.56.841,ImageRatingTask_S2,2021.1.4,Win32,60.11060351,,,,,,,,,
,,,,,,,,,,,,0,6,6,6,1,seventh,4,22,Female,R,Donders,2021-07-06_17h05.56.841,ImageRatingTask_S2,2021.1.4,Win32,60.11060351,,,,,,,,,
,,,,,,,,,,,,0,7,7,7,1,last,4,22,Female,R,Donders,2021-07-06_17h05.56.841,ImageRatingTask_S2,2021.1.4,Win32,60.11060351,,,,,,,,,
,,,,,,,,,,,,,,,,,,4,22,Female,R,Donders,2021-07-06_17h05.56.841,ImageRatingTask_S2,2021.1.4,Win32,60.11060351,0,30,30,7,1,DreamStudyImages_rs1000x750g/Mammals/Lamb 1.jpg,,,
,,3,2.4366,1,0.9551,7,2.8408,0,2.5201,,,0,0,0,0,1,main,4,22,Female,R,Donders,2021-07-06_17h05.56.841,ImageRatingTask_S2,2021.1.4,Win32,60.11060351,,,,,,,,,
,,,,,,,,,,,,0,1,1,1,1,second,4,22,Female,R,Donders,2021-07-06_17h05.56.841,ImageRatingTask_S2,2021.1.4,Win32,60.11060351,,,,,,,,,
,,,,,,,,,,,,0,2,2,2,1,third,4,22,Female,R,Donders,2021-07-06_17h05.56.841,ImageRatingTask_S2,2021.1.4,Win32,60.11060351,,,,,,,,,
,,,,,,,,,,,,0,3,3,3,1,fourth,4,22,Female,R,Donders,2021-07-06_17h05.56.841,ImageRatingTask_S2,2021.1.4,Win32,60.11060351,,,,,,,,,
,,,,,,,,,,,,0,4,4,4,1,fifth,4,22,Female,R,Donders,2021-07-06_17h05.56.841,ImageRatingTask_S2,2021.1.4,Win32,60.11060351,,,,,,,,,
,,,,,,,,,,,,0,5,5,5,1,sixth,4,22,Female,R,Donders,2021-07-06_17h05.56.841,ImageRatingTask_S2,2021.1.4,Win32,60.11060351,,,,,,,,,
,,,,,,,,,,,,0,6,6,6,1,seventh,4,22,Female,R,Donders,2021-07-06_17h05.56.841,ImageRatingTask_S2,2021.1.4,Win32,60.11060351,,,,,,,,,
,,,,,,,,,,,,0,7,7,7,1,last,4,22,Female,R,Donders,2021-07-06_17h05.56.841,ImageRatingTask_S2,2021.1.4,Win32,60.11060351,,,,,,,,,
,,,,,,,,,,,,,,,,,,4,22,Female,R,Donders,2021-07-06_17h05.56.841,ImageRatingTask_S2,2021.1.4,Win32,60.11060351,0,31,31,116,1,DreamStudyImages_rs1000x750g/Vehicles/Landscapes_028_h.jpg,,,
,,4,3.0136,4,1.3034,6,1.782,1,1.1947,3,0.8449,0,0,0,0,1,main,4,22,Female,R,Donders,2021-07-06_17h05.56.841,ImageRatingTask_S2,2021.1.4,Win32,60.11060351,,,,,,,,,
,,,,,,,,,,,,0,1,1,1,1,second,4,22,Female,R,Donders,2021-07-06_17h05.56.841,ImageRatingTask_S2,2021.1.4,Win32,60.11060351,,,,,,,,,
,,,,,,,,,,,,0,2,2,2,1,third,4,22,Female,R,Donders,2021-07-06_17h05.56.841,ImageRatingTask_S2,2021.1.4,Win32,60.11060351,,,,,,,,,
,,,,,,,,,,,,0,3,3,3,1,fourth,4,22,Female,R,Donders,2021-07-06_17h05.56.841,ImageRatingTask_S2,2021.1.4,Win32,60.11060351,,,,,,,,,
,,,,,,,,,,,,0,4,4,4,1,fifth,4,22,Female,R,Donders,2021-07-06_17h05.56.841,ImageRatingTask_S2,2021.1.4,Win32,60.11060351,,,,,,,,,
,,,,,,,,,,,,0,5,5,5,1,sixth,4,22,Female,R,Donders,2021-07-06_17h05.56.841,ImageRatingTask_S2,2021.1.4,Win32,60.11060351,,,,,,,,,
,,,,,,,,,,,,0,6,6,6,1,seventh,4,22,Female,R,Donders,2021-07-06_17h05.56.841,ImageRatingTask_S2,2021.1.4,Win32,60.11060351,,,,,,,,,
,,,,,,,,,,,,0,7,7,7,1,last,4,22,Female,R,Donders,2021-07-06_17h05.56.841,ImageRatingTask_S2,2021.1.4,Win32,60.11060351,,,,,,,,,
,,,,,,,,,,,,,,,,,,4,22,Female,R,Donders,2021-07-06_17h05.56.841,ImageRatingTask_S2,2021.1.4,Win32,60.11060351,0,32,32,109,1,DreamStudyImages_rs1000x750g/Mammals/IAPS1310_bigcat.jpg,,,
,,4,2.7519,2,1.8732,3,1.8405,0,2.345,,,0,0,0,0,1,main,4,22,Female,R,Donders,2021-07-06_17h05.56.841,ImageRatingTask_S2,2021.1.4,Win32,60.11060351,,,,,,,,,
,,,,,,,,,,,,0,1,1,1,1,second,4,22,Female,R,Donders,2021-07-06_17h05.56.841,ImageRatingTask_S2,2021.1.4,Win32,60.11060351,,,,,,,,,
,,,,,,,,,,,,0,2,2,2,1,third,4,22,Female,R,Donders,2021-07-06_17h05.56.841,ImageRatingTask_S2,2021.1.4,Win32,60.11060351,,,,,,,,,
,,,,,,,,,,,,0,3,3,3,1,fourth,4,22,Female,R,Donders,2021-07-06_17h05.56.841,ImageRatingTask_S2,2021.1.4,Win32,60.11060351,,,,,,,,,
,,,,,,,,,,,,0,4,4,4,1,fifth,4,22,Female,R,Donders,2021-07-06_17h05.56.841,ImageRatingTask_S2,2021.1.4,Win32,60.11060351,,,,,,,,,
,,,,,,,,,,,,0,5,5,5,1,sixth,4,22,Female,R,Donders,2021-07-06_17h05.56.841,ImageRatingTask_S2,2021.1.4,Win32,60.11060351,,,,,,,,,
,,,,,,,,,,,,0,6,6,6,1,seventh,4,22,Female,R,Donders,2021-07-06_17h05.56.841,ImageRatingTask_S2,2021.1.4,Win32,60.11060351,,,,,,,,,
,,,,,,,,,,,,0,7,7,7,1,last,4,22,Female,R,Donders,2021-07-06_17h05.56.841,ImageRatingTask_S2,2021.1.4,Win32,60.11060351,,,,,,,,,
,,,,,,,,,,,,,,,,,,4,22,Female,R,Donders,2021-07-06_17h05.56.841,ImageRatingTask_S2,2021.1.4,Win32,60.11060351,0,33,33,103,1,DreamStudyImages_rs1000x750g/Houses/IAPS7490_window.jpg,,,
,,5,2.2836,1,1.0136,6,3.1767,1,0.7882,7,0.7219,0,0,0,0,1,main,4,22,Female,R,Donders,2021-07-06_17h05.56.841,ImageRatingTask_S2,2021.1.4,Win32,60.11060351,,,,,,,,,
,,,,,,,,,,,,0,1,1,1,1,second,4,22,Female,R,Donders,2021-07-06_17h05.56.841,ImageRatingTask_S2,2021.1.4,Win32,60.11060351,,,,,,,,,
,,,,,,,,,,,,0,2,2,2,1,third,4,22,Female,R,Donders,2021-07-06_17h05.56.841,ImageRatingTask_S2,2021.1.4,Win32,60.11060351,,,,,,,,,
,,,,,,,,,,,,0,3,3,3,1,fourth,4,22,Female,R,Donders,2021-07-06_17h05.56.841,ImageRatingTask_S2,2021.1.4,Win32,60.11060351,,,,,,,,,
,,,,,,,,,,,,0,4,4,4,1,fifth,4,22,Female,R,Donders,2021-07-06_17h05.56.841,ImageRatingTask_S2,2021.1.4,Win32,60.11060351,,,,,,,,,
,,,,,,,,,,,,0,5,5,5,1,sixth,4,22,Female,R,Donders,2021-07-06_17h05.56.841,ImageRatingTask_S2,2021.1.4,Win32,60.11060351,,,,,,,,,
,,,,,,,,,,,,0,6,6,6,1,seventh,4,22,Female,R,Donders,2021-07-06_17h05.56.841,ImageRatingTask_S2,2021.1.4,Win32,60.11060351,,,,,,,,,
,,,,,,,,,,,,0,7,7,7,1,last,4,22,Female,R,Donders,2021-07-06_17h05.56.841,ImageRatingTask_S2,2021.1.4,Win32,60.11060351,,,,,,,,,
,,,,,,,,,,,,,,,,,,4,22,Female,R,Donders,2021-07-06_17h05.56.841,ImageRatingTask_S2,2021.1.4,Win32,60.11060351,0,34,34,101,1,DreamStudyImages_rs1000x750g/Vehicles/desertroad.jpg,,,
,,5,2.6334,1,0.6948,7,1.4653,1,0.9497,7,0.1612,0,0,0,0,1,main,4,22,Female,R,Donders,2021-07-06_17h05.56.841,ImageRatingTask_S2,2021.1.4,Win32,60.11060351,,,,,,,,,
,,,,,,,,,,,,0,1,1,1,1,second,4,22,Female,R,Donders,2021-07-06_17h05.56.841,ImageRatingTask_S2,2021.1.4,Win32,60.11060351,,,,,,,,,
,,,,,,,,,,,,0,2,2,2,1,third,4,22,Female,R,Donders,2021-07-06_17h05.56.841,ImageRatingTask_S2,2021.1.4,Win32,60.11060351,,,,,,,,,
,,,,,,,,,,,,0,3,3,3,1,fourth,4,22,Female,R,Donders,2021-07-06_17h05.56.841,ImageRatingTask_S2,2021.1.4,Win32,60.11060351,,,,,,,,,
,,,,,,,,,,,,0,4,4,4,1,fifth,4,22,Female,R,Donders,2021-07-06_17h05.56.841,ImageRatingTask_S2,2021.1.4,Win32,60.11060351,,,,,,,,,
,,,,,,,,,,,,0,5,5,5,1,sixth,4,22,Female,R,Donders,2021-07-06_17h05.56.841,ImageRatingTask_S2,2021.1.4,Win32,60.11060351,,,,,,,,,
,,,,,,,,,,,,0,6,6,6,1,seventh,4,22,Female,R,Donders,2021-07-06_17h05.56.841,ImageRatingTask_S2,2021.1.4,Win32,60.11060351,,,,,,,,,
,,,,,,,,,,,,0,7,7,7,1,last,4,22,Female,R,Donders,2021-07-06_17h05.56.841,ImageRatingTask_S2,2021.1.4,Win32,60.11060351,,,,,,,,,
,,,,,,,,,,,,,,,,,,4,22,Female,R,Donders,2021-07-06_17h05.56.841,ImageRatingTask_S2,2021.1.4,Win32,60.11060351,0,35,35,106,1,DreamStudyImages_rs1000x750g/Vehicles/quad.jpg,,,
,,7,4.0995,3,1.4254,7,3.3866,1,1.0229,5,0.8667,0,0,0,0,1,main,4,22,Female,R,Donders,2021-07-06_17h05.56.841,ImageRatingTask_S2,2021.1.4,Win32,60.11060351,,,,,,,,,
,,,,,,,,,,,,0,1,1,1,1,second,4,22,Female,R,Donders,2021-07-06_17h05.56.841,ImageRatingTask_S2,2021.1.4,Win32,60.11060351,,,,,,,,,
,,,,,,,,,,,,0,2,2,2,1,third,4,22,Female,R,Donders,2021-07-06_17h05.56.841,ImageRatingTask_S2,2021.1.4,Win32,60.11060351,,,,,,,,,
,,,,,,,,,,,,0,3,3,3,1,fourth,4,22,Female,R,Donders,2021-07-06_17h05.56.841,ImageRatingTask_S2,2021.1.4,Win32,60.11060351,,,,,,,,,
,,,,,,,,,,,,0,4,4,4,1,fifth,4,22,Female,R,Donders,2021-07-06_17h05.56.841,ImageRatingTask_S2,2021.1.4,Win32,60.11060351,,,,,,,,,
,,,,,,,,,,,,0,5,5,5,1,sixth,4,22,Female,R,Donders,2021-07-06_17h05.56.841,ImageRatingTask_S2,2021.1.4,Win32,60.11060351,,,,,,,,,
,,,,,,,,,,,,0,6,6,6,1,seventh,4,22,Female,R,Donders,2021-07-06_17h05.56.841,ImageRatingTask_S2,2021.1.4,Win32,60.11060351,,,,,,,,,
,,,,,,,,,,,,0,7,7,7,1,last,4,22,Female,R,Donders,2021-07-06_17h05.56.841,ImageRatingTask_S2,2021.1.4,Win32,60.11060351,,,,,,,,,
,,,,,,,,,,,,,,,,,,4,22,Female,R,Donders,2021-07-06_17h05.56.841,ImageRatingTask_S2,2021.1.4,Win32,60.11060351,0,36,36,151,1,DreamStudyImages_rs1000x750g/Food/Objects_085_h.jpg,,,
,,7,2.581,3,1.3343,7,5.0246,1,1.9901,8,0.5733,0,0,0,0,1,main,4,22,Female,R,Donders,2021-07-06_17h05.56.841,ImageRatingTask_S2,2021.1.4,Win32,60.11060351,,,,,,,,,
,,,,,,,,,,,,0,1,1,1,1,second,4,22,Female,R,Donders,2021-07-06_17h05.56.841,ImageRatingTask_S2,2021.1.4,Win32,60.11060351,,,,,,,,,
,,,,,,,,,,,,0,2,2,2,1,third,4,22,Female,R,Donders,2021-07-06_17h05.56.841,ImageRatingTask_S2,2021.1.4,Win32,60.11060351,,,,,,,,,
,,,,,,,,,,,,0,3,3,3,1,fourth,4,22,Female,R,Donders,2021-07-06_17h05.56.841,ImageRatingTask_S2,2021.1.4,Win32,60.11060351,,,,,,,,,
,,,,,,,,,,,,0,4,4,4,1,fifth,4,22,Female,R,Donders,2021-07-06_17h05.56.841,ImageRatingTask_S2,2021.1.4,Win32,60.11060351,,,,,,,,,
,,,,,,,,,,,,0,5,5,5,1,sixth,4,22,Female,R,Donders,2021-07-06_17h05.56.841,ImageRatingTask_S2,2021.1.4,Win32,60.11060351,,,,,,,,,
,,,,,,,,,,,,0,6,6,6,1,seventh,4,22,Female,R,Donders,2021-07-06_17h05.56.841,ImageRatingTask_S2,2021.1.4,Win32,60.11060351,,,,,,,,,
,,,,,,,,,,,,0,7,7,7,1,last,4,22,Female,R,Donders,2021-07-06_17h05.56.841,ImageRatingTask_S2,2021.1.4,Win32,60.11060351,,,,,,,,,
,,,,,,,,,,,,,,,,,,4,22,Female,R,Donders,2021-07-06_17h05.56.841,ImageRatingTask_S2,2021.1.4,Win32,60.11060351,0,37,37,143,1,DreamStudyImages_rs1000x750g/Water/Landscapes_140_v_CHECK.jpg,,,
,,5,2.3474,2,1.6869,6,3.5736,2,1.9933,2,0.8153,0,0,0,0,1,main,4,22,Female,R,Donders,2021-07-06_17h05.56.841,ImageRatingTask_S2,2021.1.4,Win32,60.11060351,,,,,,,,,
,,,,,,,,,,1,0.2856,0,1,1,1,1,second,4,22,Female,R,Donders,2021-07-06_17h05.56.841,ImageRatingTask_S2,2021.1.4,Win32,60.11060351,,,,,,,,,
,,,,,,,,,,,,0,2,2,2,1,third,4,22,Female,R,Donders,2021-07-06_17h05.56.841,ImageRatingTask_S2,2021.1.4,Win32,60.11060351,,,,,,,,,
,,,,,,,,,,,,0,3,3,3,1,fourth,4,22,Female,R,Donders,2021-07-06_17h05.56.841,ImageRatingTask_S2,2021.1.4,Win32,60.11060351,,,,,,,,,
,,,,,,,,,,,,0,4,4,4,1,fifth,4,22,Female,R,Donders,2021-07-06_17h05.56.841,ImageRatingTask_S2,2021.1.4,Win32,60.11060351,,,,,,,,,
,,,,,,,,,,,,0,5,5,5,1,sixth,4,22,Female,R,Donders,2021-07-06_17h05.56.841,ImageRatingTask_S2,2021.1.4,Win32,60.11060351,,,,,,,,,
,,,,,,,,,,,,0,6,6,6,1,seventh,4,22,Female,R,Donders,2021-07-06_17h05.56.841,ImageRatingTask_S2,2021.1.4,Win32,60.11060351,,,,,,,,,
,,,,,,,,,,,,0,7,7,7,1,last,4,22,Female,R,Donders,2021-07-06_17h05.56.841,ImageRatingTask_S2,2021.1.4,Win32,60.11060351,,,,,,,,,
,,,,,,,,,,,,,,,,,,4,22,Female,R,Donders,2021-07-06_17h05.56.841,ImageRatingTask_S2,2021.1.4,Win32,60.11060351,0,38,38,69,1,DreamStudyImages_rs1000x750g/Children/Faces_076_h.jpg,,,
,,7,2.0311,2,1.5156,8,2.0348,1,1.8937,5,0.3796,0,0,0,0,1,main,4,22,Female,R,Donders,2021-07-06_17h05.56.841,ImageRatingTask_S2,2021.1.4,Win32,60.11060351,,,,,,,,,
,,,,,,,,,,,,0,1,1,1,1,second,4,22,Female,R,Donders,2021-07-06_17h05.56.841,ImageRatingTask_S2,2021.1.4,Win32,60.11060351,,,,,,,,,
,,,,,,,,,,,,0,2,2,2,1,third,4,22,Female,R,Donders,2021-07-06_17h05.56.841,ImageRatingTask_S2,2021.1.4,Win32,60.11060351,,,,,,,,,
,,,,,,,,,,,,0,3,3,3,1,fourth,4,22,Female,R,Donders,2021-07-06_17h05.56.841,ImageRatingTask_S2,2021.1.4,Win32,60.11060351,,,,,,,,,
,,,,,,,,,,,,0,4,4,4,1,fifth,4,22,Female,R,Donders,2021-07-06_17h05.56.841,ImageRatingTask_S2,2021.1.4,Win32,60.11060351,,,,,,,,,
,,,,,,,,,,,,0,5,5,5,1,sixth,4,22,Female,R,Donders,2021-07-06_17h05.56.841,ImageRatingTask_S2,2021.1.4,Win32,60.11060351,,,,,,,,,
,,,,,,,,,,,,0,6,6,6,1,seventh,4,22,Female,R,Donders,2021-07-06_17h05.56.841,ImageRatingTask_S2,2021.1.4,Win32,60.11060351,,,,,,,,,
,,,,,,,,,,,,0,7,7,7,1,last,4,22,Female,R,Donders,2021-07-06_17h05.56.841,ImageRatingTask_S2,2021.1.4,Win32,60.11060351,,,,,,,,,
,,,,,,,,,,,,,,,,,,4,22,Female,R,Donders,2021-07-06_17h05.56.841,ImageRatingTask_S2,2021.1.4,Win32,60.11060351,0,39,39,3,1,DreamStudyImages_rs1000x750g/Food/Objects_100_v.jpg,,,
,,3,2.6702,2,1.8889,4,3.5498,1,1.499,8,0.6897,0,0,0,0,1,main,4,22,Female,R,Donders,2021-07-06_17h05.56.841,ImageRatingTask_S2,2021.1.4,Win32,60.11060351,,,,,,,,,
,,,,,,,,,,,,0,1,1,1,1,second,4,22,Female,R,Donders,2021-07-06_17h05.56.841,ImageRatingTask_S2,2021.1.4,Win32,60.11060351,,,,,,,,,
,,,,,,,,,,,,0,2,2,2,1,third,4,22,Female,R,Donders,2021-07-06_17h05.56.841,ImageRatingTask_S2,2021.1.4,Win32,60.11060351,,,,,,,,,
,,,,,,,,,,,,0,3,3,3,1,fourth,4,22,Female,R,Donders,2021-07-06_17h05.56.841,ImageRatingTask_S2,2021.1.4,Win32,60.11060351,,,,,,,,,
,,,,,,,,,,,,0,4,4,4,1,fifth,4,22,Female,R,Donders,2021-07-06_17h05.56.841,ImageRatingTask_S2,2021.1.4,Win32,60.11060351,,,,,,,,,
,,,,,,,,,,,,0,5,5,5,1,sixth,4,22,Female,R,Donders,2021-07-06_17h05.56.841,ImageRatingTask_S2,2021.1.4,Win32,60.11060351,,,,,,,,,
,,,,,,,,,,,,0,6,6,6,1,seventh,4,22,Female,R,Donders,2021-07-06_17h05.56.841,ImageRatingTask_S2,2021.1.4,Win32,60.11060351,,,,,,,,,
,,,,,,,,,,,,0,7,7,7,1,last,4,22,Female,R,Donders,2021-07-06_17h05.56.841,ImageRatingTask_S2,2021.1.4,Win32,60.11060351,,,,,,,,,
,,,,,,,,,,,,,,,,,,4,22,Female,R,Donders,2021-07-06_17h05.56.841,ImageRatingTask_S2,2021.1.4,Win32,60.11060351,0,40,40,127,1,DreamStudyImages_rs1000x750g/Water/15.jpg,,,
,,6,2.2725,1,2.036,5,3.0311,1,1.2634,2,0.8071,0,0,0,0,1,main,4,22,Female,R,Donders,2021-07-06_17h05.56.841,ImageRatingTask_S2,2021.1.4,Win32,60.11060351,,,,,,,,,
,,,,,,,,,,,,0,1,1,1,1,second,4,22,Female,R,Donders,2021-07-06_17h05.56.841,ImageRatingTask_S2,2021.1.4,Win32,60.11060351,,,,,,,,,
,,,,,,,,,,,,0,2,2,2,1,third,4,22,Female,R,Donders,2021-07-06_17h05.56.841,ImageRatingTask_S2,2021.1.4,Win32,60.11060351,,,,,,,,,
,,,,,,,,,,,,0,3,3,3,1,fourth,4,22,Female,R,Donders,2021-07-06_17h05.56.841,ImageRatingTask_S2,2021.1.4,Win32,60.11060351,,,,,,,,,
,,,,,,,,,,,,0,4,4,4,1,fifth,4,22,Female,R,Donders,2021-07-06_17h05.56.841,ImageRatingTask_S2,2021.1.4,Win32,60.11060351,,,,,,,,,
,,,,,,,,,,,,0,5,5,5,1,sixth,4,22,Female,R,Donders,2021-07-06_17h05.56.841,ImageRatingTask_S2,2021.1.4,Win32,60.11060351,,,,,,,,,
,,,,,,,,,,,,0,6,6,6,1,seventh,4,22,Female,R,Donders,2021-07-06_17h05.56.841,ImageRatingTask_S2,2021.1.4,Win32,60.11060351,,,,,,,,,
,,,,,,,,,,,,0,7,7,7,1,last,4,22,Female,R,Donders,2021-07-06_17h05.56.841,ImageRatingTask_S2,2021.1.4,Win32,60.11060351,,,,,,,,,
,,,,,,,,,,,,,,,,,,4,22,Female,R,Donders,2021-07-06_17h05.56.841,ImageRatingTask_S2,2021.1.4,Win32,60.11060351,0,41,41,90,1,DreamStudyImages_rs1000x750g/Children/Excited face 2.jpg,,,
,,5,2.481,1,1.0503,6,2.1068,1,0.893,3,0.795,0,0,0,0,1,main,4,22,Female,R,Donders,2021-07-06_17h05.56.841,ImageRatingTask_S2,2021.1.4,Win32,60.11060351,,,,,,,,,
,,,,,,,,,,,,0,1,1,1,1,second,4,22,Female,R,Donders,2021-07-06_17h05.56.841,ImageRatingTask_S2,2021.1.4,Win32,60.11060351,,,,,,,,,
,,,,,,,,,,,,0,2,2,2,1,third,4,22,Female,R,Donders,2021-07-06_17h05.56.841,ImageRatingTask_S2,2021.1.4,Win32,60.11060351,,,,,,,,,
,,,,,,,,,,,,0,3,3,3,1,fourth,4,22,Female,R,Donders,2021-07-06_17h05.56.841,ImageRatingTask_S2,2021.1.4,Win32,60.11060351,,,,,,,,,
,,,,,,,,,,,,0,4,4,4,1,fifth,4,22,Female,R,Donders,2021-07-06_17h05.56.841,ImageRatingTask_S2,2021.1.4,Win32,60.11060351,,,,,,,,,
,,,,,,,,,,,,0,5,5,5,1,sixth,4,22,Female,R,Donders,2021-07-06_17h05.56.841,ImageRatingTask_S2,2021.1.4,Win32,60.11060351,,,,,,,,,
,,,,,,,,,,,,0,6,6,6,1,seventh,4,22,Female,R,Donders,2021-07-06_17h05.56.841,ImageRatingTask_S2,2021.1.4,Win32,60.11060351,,,,,,,,,
,,,,,,,,,,,,0,7,7,7,1,last,4,22,Female,R,Donders,2021-07-06_17h05.56.841,ImageRatingTask_S2,2021.1.4,Win32,60.11060351,,,,,,,,,
,,,,,,,,,,,,,,,,,,4,22,Female,R,Donders,2021-07-06_17h05.56.841,ImageRatingTask_S2,2021.1.4,Win32,60.11060351,0,42,42,92,1,DreamStudyImages_rs1000x750g/Mammals/IAPS1500_dog6.jpg,,,
,,4,4.0232,1,1.7473,4,1.6502,1,1.7131,6,0.9957,0,0,0,0,1,main,4,22,Female,R,Donders,2021-07-06_17h05.56.841,ImageRatingTask_S2,2021.1.4,Win32,60.11060351,,,,,,,,,
,,,,,,,,,,,,0,1,1,1,1,second,4,22,Female,R,Donders,2021-07-06_17h05.56.841,ImageRatingTask_S2,2021.1.4,Win32,60.11060351,,,,,,,,,
,,,,,,,,,,,,0,2,2,2,1,third,4,22,Female,R,Donders,2021-07-06_17h05.56.841,ImageRatingTask_S2,2021.1.4,Win32,60.11060351,,,,,,,,,
,,,,,,,,,,,,0,3,3,3,1,fourth,4,22,Female,R,Donders,2021-07-06_17h05.56.841,ImageRatingTask_S2,2021.1.4,Win32,60.11060351,,,,,,,,,
,,,,,,,,,,,,0,4,4,4,1,fifth,4,22,Female,R,Donders,2021-07-06_17h05.56.841,ImageRatingTask_S2,2021.1.4,Win32,60.11060351,,,,,,,,,
,,,,,,,,,,,,0,5,5,5,1,sixth,4,22,Female,R,Donders,2021-07-06_17h05.56.841,ImageRatingTask_S2,2021.1.4,Win32,60.11060351,,,,,,,,,
,,,,,,,,,,,,0,6,6,6,1,seventh,4,22,Female,R,Donders,2021-07-06_17h05.56.841,ImageRatingTask_S2,2021.1.4,Win32,60.11060351,,,,,,,,,
,,,,,,,,,,,,0,7,7,7,1,last,4,22,Female,R,Donders,2021-07-06_17h05.56.841,ImageRatingTask_S2,2021.1.4,Win32,60.11060351,,,,,,,,,
,,,,,,,,,,,,,,,,,,4,22,Female,R,Donders,2021-07-06_17h05.56.841,ImageRatingTask_S2,2021.1.4,Win32,60.11060351,0,43,43,43,1,DreamStudyImages_rs1000x750g/Houses/House 1.jpg,,,
,,4,3.2086,2,1.1659,7,2.5835,1,0.978,2,0.6549,0,0,0,0,1,main,4,22,Female,R,Donders,2021-07-06_17h05.56.841,ImageRatingTask_S2,2021.1.4,Win32,60.11060351,,,,,,,,,
,,,,,,,,,,,,0,1,1,1,1,second,4,22,Female,R,Donders,2021-07-06_17h05.56.841,ImageRatingTask_S2,2021.1.4,Win32,60.11060351,,,,,,,,,
,,,,,,,,,,,,0,2,2,2,1,third,4,22,Female,R,Donders,2021-07-06_17h05.56.841,ImageRatingTask_S2,2021.1.4,Win32,60.11060351,,,,,,,,,
,,,,,,,,,,,,0,3,3,3,1,fourth,4,22,Female,R,Donders,2021-07-06_17h05.56.841,ImageRatingTask_S2,2021.1.4,Win32,60.11060351,,,,,,,,,
,,,,,,,,,,,,0,4,4,4,1,fifth,4,22,Female,R,Donders,2021-07-06_17h05.56.841,ImageRatingTask_S2,2021.1.4,Win32,60.11060351,,,,,,,,,
,,,,,,,,,,,,0,5,5,5,1,sixth,4,22,Female,R,Donders,2021-07-06_17h05.56.841,ImageRatingTask_S2,2021.1.4,Win32,60.11060351,,,,,,,,,
,,,,,,,,,,,,0,6,6,6,1,seventh,4,22,Female,R,Donders,2021-07-06_17h05.56.841,ImageRatingTask_S2,2021.1.4,Win32,60.11060351,,,,,,,,,
,,,,,,,,,,,,0,7,7,7,1,last,4,22,Female,R,Donders,2021-07-06_17h05.56.841,ImageRatingTask_S2,2021.1.4,Win32,60.11060351,,,,,,,,,
,,,,,,,,,,,,,,,,,,4,22,Female,R,Donders,2021-07-06_17h05.56.841,ImageRatingTask_S2,2021.1.4,Win32,60.11060351,0,44,44,95,1,DreamStudyImages_rs1000x750g/Children/Faces_004_h.jpg,,,
,,3,5.739,3,1.0416,6,2.5675,1,1.2875,6,0.7847,0,0,0,0,1,main,4,22,Female,R,Donders,2021-07-06_17h05.56.841,ImageRatingTask_S2,2021.1.4,Win32,60.11060351,,,,,,,,,
,,,,,,,,,,,,0,1,1,1,1,second,4,22,Female,R,Donders,2021-07-06_17h05.56.841,ImageRatingTask_S2,2021.1.4,Win32,60.11060351,,,,,,,,,
,,,,,,,,,,,,0,2,2,2,1,third,4,22,Female,R,Donders,2021-07-06_17h05.56.841,ImageRatingTask_S2,2021.1.4,Win32,60.11060351,,,,,,,,,
,,,,,,,,,,,,0,3,3,3,1,fourth,4,22,Female,R,Donders,2021-07-06_17h05.56.841,ImageRatingTask_S2,2021.1.4,Win32,60.11060351,,,,,,,,,
,,,,,,,,,,,,0,4,4,4,1,fifth,4,22,Female,R,Donders,2021-07-06_17h05.56.841,ImageRatingTask_S2,2021.1.4,Win32,60.11060351,,,,,,,,,
,,,,,,,,,,,,0,5,5,5,1,sixth,4,22,Female,R,Donders,2021-07-06_17h05.56.841,ImageRatingTask_S2,2021.1.4,Win32,60.11060351,,,,,,,,,
,,,,,,,,,,,,0,6,6,6,1,seventh,4,22,Female,R,Donders,2021-07-06_17h05.56.841,ImageRatingTask_S2,2021.1.4,Win32,60.11060351,,,,,,,,,
,,,,,,,,,,,,0,7,7,7,1,last,4,22,Female,R,Donders,2021-07-06_17h05.56.841,ImageRatingTask_S2,2021.1.4,Win32,60.11060351,,,,,,,,,
,,,,,,,,,,,,,,,,,,4,22,Female,R,Donders,2021-07-06_17h05.56.841,ImageRatingTask_S2,2021.1.4,Win32,60.11060351,0,45,45,111,1,DreamStudyImages_rs1000x750g/Houses/Landscapes_056_h.jpg,,,
,,5,4.7844,1,2.3483,4,2.991,0,2.3237,,,0,0,0,0,1,main,4,22,Female,R,Donders,2021-07-06_17h05.56.841,ImageRatingTask_S2,2021.1.4,Win32,60.11060351,,,,,,,,,
,,,,,,,,,,,,0,1,1,1,1,second,4,22,Female,R,Donders,2021-07-06_17h05.56.841,ImageRatingTask_S2,2021.1.4,Win32,60.11060351,,,,,,,,,
,,,,,,,,,,,,0,2,2,2,1,third,4,22,Female,R,Donders,2021-07-06_17h05.56.841,ImageRatingTask_S2,2021.1.4,Win32,60.11060351,,,,,,,,,
,,,,,,,,,,,,0,3,3,3,1,fourth,4,22,Female,R,Donders,2021-07-06_17h05.56.841,ImageRatingTask_S2,2021.1.4,Win32,60.11060351,,,,,,,,,
,,,,,,,,,,,,0,4,4,4,1,fifth,4,22,Female,R,Donders,2021-07-06_17h05.56.841,ImageRatingTask_S2,2021.1.4,Win32,60.11060351,,,,,,,,,
,,,,,,,,,,,,0,5,5,5,1,sixth,4,22,Female,R,Donders,2021-07-06_17h05.56.841,ImageRatingTask_S2,2021.1.4,Win32,60.11060351,,,,,,,,,
,,,,,,,,,,,,0,6,6,6,1,seventh,4,22,Female,R,Donders,2021-07-06_17h05.56.841,ImageRatingTask_S2,2021.1.4,Win32,60.11060351,,,,,,,,,
,,,,,,,,,,,,0,7,7,7,1,last,4,22,Female,R,Donders,2021-07-06_17h05.56.841,ImageRatingTask_S2,2021.1.4,Win32,60.11060351,,,,,,,,,
,,,,,,,,,,,,,,,,,,4,22,Female,R,Donders,2021-07-06_17h05.56.841,ImageRatingTask_S2,2021.1.4,Win32,60.11060351,0,46,46,158,1,DreamStudyImages_rs1000x750g/Water/Lake 6.jpg,,,
,,4,3.243,3,1.314,6,2.2293,1,1.2755,5,0.6904,0,0,0,0,1,main,4,22,Female,R,Donders,2021-07-06_17h05.56.841,ImageRatingTask_S2,2021.1.4,Win32,60.11060351,,,,,,,,,
,,,,,,,,,,,,0,1,1,1,1,second,4,22,Female,R,Donders,2021-07-06_17h05.56.841,ImageRatingTask_S2,2021.1.4,Win32,60.11060351,,,,,,,,,
,,,,,,,,,,,,0,2,2,2,1,third,4,22,Female,R,Donders,2021-07-06_17h05.56.841,ImageRatingTask_S2,2021.1.4,Win32,60.11060351,,,,,,,,,
,,,,,,,,,,,,0,3,3,3,1,fourth,4,22,Female,R,Donders,2021-07-06_17h05.56.841,ImageRatingTask_S2,2021.1.4,Win32,60.11060351,,,,,,,,,
,,,,,,,,,,,,0,4,4,4,1,fifth,4,22,Female,R,Donders,2021-07-06_17h05.56.841,ImageRatingTask_S2,2021.1.4,Win32,60.11060351,,,,,,,,,
,,,,,,,,,,,,0,5,5,5,1,sixth,4,22,Female,R,Donders,2021-07-06_17h05.56.841,ImageRatingTask_S2,2021.1.4,Win32,60.11060351,,,,,,,,,
,,,,,,,,,,,,0,6,6,6,1,seventh,4,22,Female,R,Donders,2021-07-06_17h05.56.841,ImageRatingTask_S2,2021.1.4,Win32,60.11060351,,,,,,,,,
,,,,,,,,,,,,0,7,7,7,1,last,4,22,Female,R,Donders,2021-07-06_17h05.56.841,ImageRatingTask_S2,2021.1.4,Win32,60.11060351,,,,,,,,,
,,,,,,,,,,,,,,,,,,4,22,Female,R,Donders,2021-07-06_17h05.56.841,ImageRatingTask_S2,2021.1.4,Win32,60.11060351,0,47,47,115,1,DreamStudyImages_rs1000x750g/Food/Objects_083_h.jpg,,,
,,5,3.5494,3,1.4432,6,2.0547,1,1.2931,7,0.6684,0,0,0,0,1,main,4,22,Female,R,Donders,2021-07-06_17h05.56.841,ImageRatingTask_S2,2021.1.4,Win32,60.11060351,,,,,,,,,
,,,,,,,,,,,,0,1,1,1,1,second,4,22,Female,R,Donders,2021-07-06_17h05.56.841,ImageRatingTask_S2,2021.1.4,Win32,60.11060351,,,,,,,,,
,,,,,,,,,,,,0,2,2,2,1,third,4,22,Female,R,Donders,2021-07-06_17h05.56.841,ImageRatingTask_S2,2021.1.4,Win32,60.11060351,,,,,,,,,
,,,,,,,,,,,,0,3,3,3,1,fourth,4,22,Female,R,Donders,2021-07-06_17h05.56.841,ImageRatingTask_S2,2021.1.4,Win32,60.11060351,,,,,,,,,
,,,,,,,,,,,,0,4,4,4,1,fifth,4,22,Female,R,Donders,2021-07-06_17h05.56.841,ImageRatingTask_S2,2021.1.4,Win32,60.11060351,,,,,,,,,
,,,,,,,,,,,,0,5,5,5,1,sixth,4,22,Female,R,Donders,2021-07-06_17h05.56.841,ImageRatingTask_S2,2021.1.4,Win32,60.11060351,,,,,,,,,
,,,,,,,,,,,,0,6,6,6,1,seventh,4,22,Female,R,Donders,2021-07-06_17h05.56.841,ImageRatingTask_S2,2021.1.4,Win32,60.11060351,,,,,,,,,
,,,,,,,,,,,,0,7,7,7,1,last,4,22,Female,R,Donders,2021-07-06_17h05.56.841,ImageRatingTask_S2,2021.1.4,Win32,60.11060351,,,,,,,,,
,,,,,,,,,,,,,,,,,,4,22,Female,R,Donders,2021-07-06_17h05.56.841,ImageRatingTask_S2,2021.1.4,Win32,60.11060351,0,48,48,148,1,DreamStudyImages_rs1000x750g/Vehicles/Objects_287_h.jpg,,,
,,5,2.9773,1,1.4071,4,1.6665,0,1.9334,,,0,0,0,0,1,main,4,22,Female,R,Donders,2021-07-06_17h05.56.841,ImageRatingTask_S2,2021.1.4,Win32,60.11060351,,,,,,,,,
,,,,,,,,,,,,0,1,1,1,1,second,4,22,Female,R,Donders,2021-07-06_17h05.56.841,ImageRatingTask_S2,2021.1.4,Win32,60.11060351,,,,,,,,,
,,,,,,,,,,,,0,2,2,2,1,third,4,22,Female,R,Donders,2021-07-06_17h05.56.841,ImageRatingTask_S2,2021.1.4,Win32,60.11060351,,,,,,,,,
,,,,,,,,,,,,0,3,3,3,1,fourth,4,22,Female,R,Donders,2021-07-06_17h05.56.841,ImageRatingTask_S2,2021.1.4,Win32,60.11060351,,,,,,,,,
,,,,,,,,,,,,0,4,4,4,1,fifth,4,22,Female,R,Donders,2021-07-06_17h05.56.841,ImageRatingTask_S2,2021.1.4,Win32,60.11060351,,,,,,,,,
,,,,,,,,,,,,0,5,5,5,1,sixth,4,22,Female,R,Donders,2021-07-06_17h05.56.841,ImageRatingTask_S2,2021.1.4,Win32,60.11060351,,,,,,,,,
,,,,,,,,,,,,0,6,6,6,1,seventh,4,22,Female,R,Donders,2021-07-06_17h05.56.841,ImageRatingTask_S2,2021.1.4,Win32,60.11060351,,,,,,,,,
,,,,,,,,,,,,0,7,7,7,1,last,4,22,Female,R,Donders,2021-07-06_17h05.56.841,ImageRatingTask_S2,2021.1.4,Win32,60.11060351,,,,,,,,,
,,,,,,,,,,,,,,,,,,4,22,Female,R,Donders,2021-07-06_17h05.56.841,ImageRatingTask_S2,2021.1.4,Win32,60.11060351,0,49,49,134,1,DreamStudyImages_rs1000x750g/Houses/Skyscraper 1.jpg,,,
,,7,2.9056,1,1.1938,7,2.2827,1,1.1269,2,0.9168,0,0,0,0,1,main,4,22,Female,R,Donders,2021-07-06_17h05.56.841,ImageRatingTask_S2,2021.1.4,Win32,60.11060351,,,,,,,,,
,,,,,,,,,,,,0,1,1,1,1,second,4,22,Female,R,Donders,2021-07-06_17h05.56.841,ImageRatingTask_S2,2021.1.4,Win32,60.11060351,,,,,,,,,
,,,,,,,,,,,,0,2,2,2,1,third,4,22,Female,R,Donders,2021-07-06_17h05.56.841,ImageRatingTask_S2,2021.1.4,Win32,60.11060351,,,,,,,,,
,,,,,,,,,,,,0,3,3,3,1,fourth,4,22,Female,R,Donders,2021-07-06_17h05.56.841,ImageRatingTask_S2,2021.1.4,Win32,60.11060351,,,,,,,,,
,,,,,,,,,,,,0,4,4,4,1,fifth,4,22,Female,R,Donders,2021-07-06_17h05.56.841,ImageRatingTask_S2,2021.1.4,Win32,60.11060351,,,,,,,,,
,,,,,,,,,,,,0,5,5,5,1,sixth,4,22,Female,R,Donders,2021-07-06_17h05.56.841,ImageRatingTask_S2,2021.1.4,Win32,60.11060351,,,,,,,,,
,,,,,,,,,,,,0,6,6,6,1,seventh,4,22,Female,R,Donders,2021-07-06_17h05.56.841,ImageRatingTask_S2,2021.1.4,Win32,60.11060351,,,,,,,,,
,,,,,,,,,,,,0,7,7,7,1,last,4,22,Female,R,Donders,2021-07-06_17h05.56.841,ImageRatingTask_S2,2021.1.4,Win32,60.11060351,,,,,,,,,
,,,,,,,,,,,,,,,,,,4,22,Female,R,Donders,2021-07-06_17h05.56.841,ImageRatingTask_S2,2021.1.4,Win32,60.11060351,0,50,50,155,1,DreamStudyImages_rs1000x750g/Children/Faces_115_h.jpg,,,
,,1,5.9407,8,1.0826,7,2.0424,0,2.2309,,,0,0,0,0,1,main,4,22,Female,R,Donders,2021-07-06_17h05.56.841,ImageRatingTask_S2,2021.1.4,Win32,60.11060351,,,,,,,,,
,,,,,,,,,,,,0,1,1,1,1,second,4,22,Female,R,Donders,2021-07-06_17h05.56.841,ImageRatingTask_S2,2021.1.4,Win32,60.11060351,,,,,,,,,
,,,,,,,,,,,,0,2,2,2,1,third,4,22,Female,R,Donders,2021-07-06_17h05.56.841,ImageRatingTask_S2,2021.1.4,Win32,60.11060351,,,,,,,,,
,,,,,,,,,,,,0,3,3,3,1,fourth,4,22,Female,R,Donders,2021-07-06_17h05.56.841,ImageRatingTask_S2,2021.1.4,Win32,60.11060351,,,,,,,,,
,,,,,,,,,,,,0,4,4,4,1,fifth,4,22,Female,R,Donders,2021-07-06_17h05.56.841,ImageRatingTask_S2,2021.1.4,Win32,60.11060351,,,,,,,,,
,,,,,,,,,,,,0,5,5,5,1,sixth,4,22,Female,R,Donders,2021-07-06_17h05.56.841,ImageRatingTask_S2,2021.1.4,Win32,60.11060351,,,,,,,,,
,,,,,,,,,,,,0,6,6,6,1,seventh,4,22,Female,R,Donders,2021-07-06_17h05.56.841,ImageRatingTask_S2,2021.1.4,Win32,60.11060351,,,,,,,,,
,,,,,,,,,,,,0,7,7,7,1,last,4,22,Female,R,Donders,2021-07-06_17h05.56.841,ImageRatingTask_S2,2021.1.4,Win32,60.11060351,,,,,,,,,
,,,,,,,,,,,,,,,,,,4,22,Female,R,Donders,2021-07-06_17h05.56.841,ImageRatingTask_S2,2021.1.4,Win32,60.11060351,0,51,51,96,1,DreamStudyImages_rs1000x750g/Food/Objects_022_h.jpg,,,
,,2,2.3083,6,1.5417,6,1.9241,1,1.0009,2,0.3498,0,0,0,0,1,main,4,22,Female,R,Donders,2021-07-06_17h05.56.841,ImageRatingTask_S2,2021.1.4,Win32,60.11060351,,,,,,,,,
,,,,,,,,,,,,0,1,1,1,1,second,4,22,Female,R,Donders,2021-07-06_17h05.56.841,ImageRatingTask_S2,2021.1.4,Win32,60.11060351,,,,,,,,,
,,,,,,,,,,,,0,2,2,2,1,third,4,22,Female,R,Donders,2021-07-06_17h05.56.841,ImageRatingTask_S2,2021.1.4,Win32,60.11060351,,,,,,,,,
,,,,,,,,,,,,0,3,3,3,1,fourth,4,22,Female,R,Donders,2021-07-06_17h05.56.841,ImageRatingTask_S2,2021.1.4,Win32,60.11060351,,,,,,,,,
,,,,,,,,,,,,0,4,4,4,1,fifth,4,22,Female,R,Donders,2021-07-06_17h05.56.841,ImageRatingTask_S2,2021.1.4,Win32,60.11060351,,,,,,,,,
,,,,,,,,,,,,0,5,5,5,1,sixth,4,22,Female,R,Donders,2021-07-06_17h05.56.841,ImageRatingTask_S2,2021.1.4,Win32,60.11060351,,,,,,,,,
,,,,,,,,,,,,0,6,6,6,1,seventh,4,22,Female,R,Donders,2021-07-06_17h05.56.841,ImageRatingTask_S2,2021.1.4,Win32,60.11060351,,,,,,,,,
,,,,,,,,,,,,0,7,7,7,1,last,4,22,Female,R,Donders,2021-07-06_17h05.56.841,ImageRatingTask_S2,2021.1.4,Win32,60.11060351,,,,,,,,,
,,,,,,,,,,,,,,,,,,4,22,Female,R,Donders,2021-07-06_17h05.56.841,ImageRatingTask_S2,2021.1.4,Win32,60.11060351,0,52,52,50,1,DreamStudyImages_rs1000x750g/Children/IAPS3301_babyaccident2.jpg,,,
,,5,2.1124,1,5.4453,6,1.8064,1,1.1832,5,0.5367,0,0,0,0,1,main,4,22,Female,R,Donders,2021-07-06_17h05.56.841,ImageRatingTask_S2,2021.1.4,Win32,60.11060351,,,,,,,,,
,,,,,,,,,,,,0,1,1,1,1,second,4,22,Female,R,Donders,2021-07-06_17h05.56.841,ImageRatingTask_S2,2021.1.4,Win32,60.11060351,,,,,,,,,
,,,,,,,,,,,,0,2,2,2,1,third,4,22,Female,R,Donders,2021-07-06_17h05.56.841,ImageRatingTask_S2,2021.1.4,Win32,60.11060351,,,,,,,,,
,,,,,,,,,,,,0,3,3,3,1,fourth,4,22,Female,R,Donders,2021-07-06_17h05.56.841,ImageRatingTask_S2,2021.1.4,Win32,60.11060351,,,,,,,,,
,,,,,,,,,,,,0,4,4,4,1,fifth,4,22,Female,R,Donders,2021-07-06_17h05.56.841,ImageRatingTask_S2,2021.1.4,Win32,60.11060351,,,,,,,,,
,,,,,,,,,,,,0,5,5,5,1,sixth,4,22,Female,R,Donders,2021-07-06_17h05.56.841,ImageRatingTask_S2,2021.1.4,Win32,60.11060351,,,,,,,,,
,,,,,,,,,,,,0,6,6,6,1,seventh,4,22,Female,R,Donders,2021-07-06_17h05.56.841,ImageRatingTask_S2,2021.1.4,Win32,60.11060351,,,,,,,,,
,,,,,,,,,,,,0,7,7,7,1,last,4,22,Female,R,Donders,2021-07-06_17h05.56.841,ImageRatingTask_S2,2021.1.4,Win32,60.11060351,,,,,,,,,
,,,,,,,,,,,,,,,,,,4,22,Female,R,Donders,2021-07-06_17h05.56.841,ImageRatingTask_S2,2021.1.4,Win32,60.11060351,0,53,53,46,1,DreamStudyImages_rs1000x750g/Food/Dessert 6.jpg,,,
,,5,1.8643,1,2.0097,7,1.7025,1,1.052,3,0.8334,0,0,0,0,1,main,4,22,Female,R,Donders,2021-07-06_17h05.56.841,ImageRatingTask_S2,2021.1.4,Win32,60.11060351,,,,,,,,,
,,,,,,,,,,,,0,1,1,1,1,second,4,22,Female,R,Donders,2021-07-06_17h05.56.841,ImageRatingTask_S2,2021.1.4,Win32,60.11060351,,,,,,,,,
,,,,,,,,,,,,0,2,2,2,1,third,4,22,Female,R,Donders,2021-07-06_17h05.56.841,ImageRatingTask_S2,2021.1.4,Win32,60.11060351,,,,,,,,,
,,,,,,,,,,,,0,3,3,3,1,fourth,4,22,Female,R,Donders,2021-07-06_17h05.56.841,ImageRatingTask_S2,2021.1.4,Win32,60.11060351,,,,,,,,,
,,,,,,,,,,,,0,4,4,4,1,fifth,4,22,Female,R,Donders,2021-07-06_17h05.56.841,ImageRatingTask_S2,2021.1.4,Win32,60.11060351,,,,,,,,,
,,,,,,,,,,,,0,5,5,5,1,sixth,4,22,Female,R,Donders,2021-07-06_17h05.56.841,ImageRatingTask_S2,2021.1.4,Win32,60.11060351,,,,,,,,,
,,,,,,,,,,,,0,6,6,6,1,seventh,4,22,Female,R,Donders,2021-07-06_17h05.56.841,ImageRatingTask_S2,2021.1.4,Win32,60.11060351,,,,,,,,,
,,,,,,,,,,,,0,7,7,7,1,last,4,22,Female,R,Donders,2021-07-06_17h05.56.841,ImageRatingTask_S2,2021.1.4,Win32,60.11060351,,,,,,,,,
,,,,,,,,,,,,,,,,,,4,22,Female,R,Donders,2021-07-06_17h05.56.841,ImageRatingTask_S2,2021.1.4,Win32,60.11060351,0,54,54,117,1,DreamStudyImages_rs1000x750g/Mammals/Orangutan 1.jpg,,,
,,4,104.255,3,1.9053,4,2.1196,1,1.2212,7,0.6404,0,0,0,0,1,main,4,22,Female,R,Donders,2021-07-06_17h05.56.841,ImageRatingTask_S2,2021.1.4,Win32,60.11060351,,,,,,,,,
,,,,,,,,,,,,0,1,1,1,1,second,4,22,Female,R,Donders,2021-07-06_17h05.56.841,ImageRatingTask_S2,2021.1.4,Win32,60.11060351,,,,,,,,,
,,,,,,,,,,,,0,2,2,2,1,third,4,22,Female,R,Donders,2021-07-06_17h05.56.841,ImageRatingTask_S2,2021.1.4,Win32,60.11060351,,,,,,,,,
,,,,,,,,,,,,0,3,3,3,1,fourth,4,22,Female,R,Donders,2021-07-06_17h05.56.841,ImageRatingTask_S2,2021.1.4,Win32,60.11060351,,,,,,,,,
,,,,,,,,,,,,0,4,4,4,1,fifth,4,22,Female,R,Donders,2021-07-06_17h05.56.841,ImageRatingTask_S2,2021.1.4,Win32,60.11060351,,,,,,,,,
,,,,,,,,,,,,0,5,5,5,1,sixth,4,22,Female,R,Donders,2021-07-06_17h05.56.841,ImageRatingTask_S2,2021.1.4,Win32,60.11060351,,,,,,,,,
,,,,,,,,,,,,0,6,6,6,1,seventh,4,22,Female,R,Donders,2021-07-06_17h05.56.841,ImageRatingTask_S2,2021.1.4,Win32,60.11060351,,,,,,,,,
,,,,,,,,,,,,0,7,7,7,1,last,4,22,Female,R,Donders,2021-07-06_17h05.56.841,ImageRatingTask_S2,2021.1.4,Win32,60.11060351,,,,,,,,,
,,,,,,,,,,,,,,,,,,4,22,Female,R,Donders,2021-07-06_17h05.56.841,ImageRatingTask_S2,2021.1.4,Win32,60.11060351,0,55,55,89,1,DreamStudyImages_rs1000x750g/Vehicles/Explosion 3.jpg,,,
,,5,2.5063,1,1.8926,7,1.9164,1,0.7665,7,0.5969,0,0,0,0,1,main,4,22,Female,R,Donders,2021-07-06_17h05.56.841,ImageRatingTask_S2,2021.1.4,Win32,60.11060351,,,,,,,,,
,,,,,,,,,,,,0,1,1,1,1,second,4,22,Female,R,Donders,2021-07-06_17h05.56.841,ImageRatingTask_S2,2021.1.4,Win32,60.11060351,,,,,,,,,
,,,,,,,,,,,,0,2,2,2,1,third,4,22,Female,R,Donders,2021-07-06_17h05.56.841,ImageRatingTask_S2,2021.1.4,Win32,60.11060351,,,,,,,,,
,,,,,,,,,,,,0,3,3,3,1,fourth,4,22,Female,R,Donders,2021-07-06_17h05.56.841,ImageRatingTask_S2,2021.1.4,Win32,60.11060351,,,,,,,,,
,,,,,,,,,,,,0,4,4,4,1,fifth,4,22,Female,R,Donders,2021-07-06_17h05.56.841,ImageRatingTask_S2,2021.1.4,Win32,60.11060351,,,,,,,,,
,,,,,,,,,,,,0,5,5,5,1,sixth,4,22,Female,R,Donders,2021-07-06_17h05.56.841,ImageRatingTask_S2,2021.1.4,Win32,60.11060351,,,,,,,,,
,,,,,,,,,,,,0,6,6,6,1,seventh,4,22,Female,R,Donders,2021-07-06_17h05.56.841,ImageRatingTask_S2,2021.1.4,Win32,60.11060351,,,,,,,,,
,,,,,,,,,,,,0,7,7,7,1,last,4,22,Female,R,Donders,2021-07-06_17h05.56.841,ImageRatingTask_S2,2021.1.4,Win32,60.11060351,,,,,,,,,
,,,,,,,,,,,,,,,,,,4,22,Female,R,Donders,2021-07-06_17h05.56.841,ImageRatingTask_S2,2021.1.4,Win32,60.11060351,0,56,56,35,1,DreamStudyImages_rs1000x750g/Vehicles/militarytruck.jpg,,,
,,5,5.6571,3,1.3464,5,3.1199,1,0.9319,2,0.1761,0,0,0,0,1,main,4,22,Female,R,Donders,2021-07-06_17h05.56.841,ImageRatingTask_S2,2021.1.4,Win32,60.11060351,,,,,,,,,
,,,,,,,,,,,,0,1,1,1,1,second,4,22,Female,R,Donders,2021-07-06_17h05.56.841,ImageRatingTask_S2,2021.1.4,Win32,60.11060351,,,,,,,,,
,,,,,,,,,,,,0,2,2,2,1,third,4,22,Female,R,Donders,2021-07-06_17h05.56.841,ImageRatingTask_S2,2021.1.4,Win32,60.11060351,,,,,,,,,
,,,,,,,,,,,,0,3,3,3,1,fourth,4,22,Female,R,Donders,2021-07-06_17h05.56.841,ImageRatingTask_S2,2021.1.4,Win32,60.11060351,,,,,,,,,
,,,,,,,,,,,,0,4,4,4,1,fifth,4,22,Female,R,Donders,2021-07-06_17h05.56.841,ImageRatingTask_S2,2021.1.4,Win32,60.11060351,,,,,,,,,
,,,,,,,,,,,,0,5,5,5,1,sixth,4,22,Female,R,Donders,2021-07-06_17h05.56.841,ImageRatingTask_S2,2021.1.4,Win32,60.11060351,,,,,,,,,
,,,,,,,,,,,,0,6,6,6,1,seventh,4,22,Female,R,Donders,2021-07-06_17h05.56.841,ImageRatingTask_S2,2021.1.4,Win32,60.11060351,,,,,,,,,
,,,,,,,,,,,,0,7,7,7,1,last,4,22,Female,R,Donders,2021-07-06_17h05.56.841,ImageRatingTask_S2,2021.1.4,Win32,60.11060351,,,,,,,,,
,,,,,,,,,,,,,,,,,,4,22,Female,R,Donders,2021-07-06_17h05.56.841,ImageRatingTask_S2,2021.1.4,Win32,60.11060351,0,57,57,42,1,DreamStudyImages_rs1000x750g/Children/IAPS2080_baby11.jpg,,,
,,7,1.7298,3,1.56,1,0.3592,1,2.0147,2,0.5039,0,0,0,0,1,main,4,22,Female,R,Donders,2021-07-06_17h05.56.841,ImageRatingTask_S2,2021.1.4,Win32,60.11060351,,,,,,,,,
,,,,,,,,,,,,0,1,1,1,1,second,4,22,Female,R,Donders,2021-07-06_17h05.56.841,ImageRatingTask_S2,2021.1.4,Win32,60.11060351,,,,,,,,,
,,,,,,,,,,,,0,2,2,2,1,third,4,22,Female,R,Donders,2021-07-06_17h05.56.841,ImageRatingTask_S2,2021.1.4,Win32,60.11060351,,,,,,,,,
,,,,,,,,,,,,0,3,3,3,1,fourth,4,22,Female,R,Donders,2021-07-06_17h05.56.841,ImageRatingTask_S2,2021.1.4,Win32,60.11060351,,,,,,,,,
,,,,,,,,,,,,0,4,4,4,1,fifth,4,22,Female,R,Donders,2021-07-06_17h05.56.841,ImageRatingTask_S2,2021.1.4,Win32,60.11060351,,,,,,,,,
,,,,,,,,,,,,0,5,5,5,1,sixth,4,22,Female,R,Donders,2021-07-06_17h05.56.841,ImageRatingTask_S2,2021.1.4,Win32,60.11060351,,,,,,,,,
,,,,,,,,,,,,0,6,6,6,1,seventh,4,22,Female,R,Donders,2021-07-06_17h05.56.841,ImageRatingTask_S2,2021.1.4,Win32,60.11060351,,,,,,,,,
,,,,,,,,,,,,0,7,7,7,1,last,4,22,Female,R,Donders,2021-07-06_17h05.56.841,ImageRatingTask_S2,2021.1.4,Win32,60.11060351,,,,,,,,,
,,,,,,,,,,,,,,,,,,4,22,Female,R,Donders,2021-07-06_17h05.56.841,ImageRatingTask_S2,2021.1.4,Win32,60.11060351,0,58,58,114,1,DreamStudyImages_rs1000x750g/Children/2071.jpg,,,
,,4,2.71,2,1.5351,4,2.1595,1,1.9509,3,1.7784,0,0,0,0,1,main,4,22,Female,R,Donders,2021-07-06_17h05.56.841,ImageRatingTask_S2,2021.1.4,Win32,60.11060351,,,,,,,,,
,,,,,,,,,,,,0,1,1,1,1,second,4,22,Female,R,Donders,2021-07-06_17h05.56.841,ImageRatingTask_S2,2021.1.4,Win32,60.11060351,,,,,,,,,
,,,,,,,,,,,,0,2,2,2,1,third,4,22,Female,R,Donders,2021-07-06_17h05.56.841,ImageRatingTask_S2,2021.1.4,Win32,60.11060351,,,,,,,,,
,,,,,,,,,,,,0,3,3,3,1,fourth,4,22,Female,R,Donders,2021-07-06_17h05.56.841,ImageRatingTask_S2,2021.1.4,Win32,60.11060351,,,,,,,,,
,,,,,,,,,,,,0,4,4,4,1,fifth,4,22,Female,R,Donders,2021-07-06_17h05.56.841,ImageRatingTask_S2,2021.1.4,Win32,60.11060351,,,,,,,,,
,,,,,,,,,,,,0,5,5,5,1,sixth,4,22,Female,R,Donders,2021-07-06_17h05.56.841,ImageRatingTask_S2,2021.1.4,Win32,60.11060351,,,,,,,,,
,,,,,,,,,,,,0,6,6,6,1,seventh,4,22,Female,R,Donders,2021-07-06_17h05.56.841,ImageRatingTask_S2,2021.1.4,Win32,60.11060351,,,,,,,,,
,,,,,,,,,,,,0,7,7,7,1,last,4,22,Female,R,Donders,2021-07-06_17h05.56.841,ImageRatingTask_S2,2021.1.4,Win32,60.11060351,,,,,,,,,
,,,,,,,,,,,,,,,,,,4,22,Female,R,Donders,2021-07-06_17h05.56.841,ImageRatingTask_S2,2021.1.4,Win32,60.11060351,0,59,59,60,1,DreamStudyImages_rs1000x750g/Mammals/Scared cat 1.jpg,,,
,,7,4.5009,1,1.1289,7,2.0663,1,1.0536,5,0.5669,0,0,0,0,1,main,4,22,Female,R,Donders,2021-07-06_17h05.56.841,ImageRatingTask_S2,2021.1.4,Win32,60.11060351,,,,,,,,,
,,,,,,,,,,,,0,1,1,1,1,second,4,22,Female,R,Donders,2021-07-06_17h05.56.841,ImageRatingTask_S2,2021.1.4,Win32,60.11060351,,,,,,,,,
,,,,,,,,,,,,0,2,2,2,1,third,4,22,Female,R,Donders,2021-07-06_17h05.56.841,ImageRatingTask_S2,2021.1.4,Win32,60.11060351,,,,,,,,,
,,,,,,,,,,,,0,3,3,3,1,fourth,4,22,Female,R,Donders,2021-07-06_17h05.56.841,ImageRatingTask_S2,2021.1.4,Win32,60.11060351,,,,,,,,,
,,,,,,,,,,,,0,4,4,4,1,fifth,4,22,Female,R,Donders,2021-07-06_17h05.56.841,ImageRatingTask_S2,2021.1.4,Win32,60.11060351,,,,,,,,,
,,,,,,,,,,,,0,5,5,5,1,sixth,4,22,Female,R,Donders,2021-07-06_17h05.56.841,ImageRatingTask_S2,2021.1.4,Win32,60.11060351,,,,,,,,,
,,,,,,,,,,,,0,6,6,6,1,seventh,4,22,Female,R,Donders,2021-07-06_17h05.56.841,ImageRatingTask_S2,2021.1.4,Win32,60.11060351,,,,,,,,,
,,,,,,,,,,,,0,7,7,7,1,last,4,22,Female,R,Donders,2021-07-06_17h05.56.841,ImageRatingTask_S2,2021.1.4,Win32,60.11060351,,,,,,,,,
,,,,,,,,,,,,,,,,,,4,22,Female,R,Donders,2021-07-06_17h05.56.841,ImageRatingTask_S2,2021.1.4,Win32,60.11060351,0,60,60,119,1,DreamStudyImages_rs1000x750g/Food/Objects_080_h.jpg,,,
,,3,4.5161,3,1.0446,5,2.0831,1,1.0336,7,0.6369,0,0,0,0,1,main,4,22,Female,R,Donders,2021-07-06_17h05.56.841,ImageRatingTask_S2,2021.1.4,Win32,60.11060351,,,,,,,,,
,,,,,,,,,,,,0,1,1,1,1,second,4,22,Female,R,Donders,2021-07-06_17h05.56.841,ImageRatingTask_S2,2021.1.4,Win32,60.11060351,,,,,,,,,
,,,,,,,,,,,,0,2,2,2,1,third,4,22,Female,R,Donders,2021-07-06_17h05.56.841,ImageRatingTask_S2,2021.1.4,Win32,60.11060351,,,,,,,,,
,,,,,,,,,,,,0,3,3,3,1,fourth,4,22,Female,R,Donders,2021-07-06_17h05.56.841,ImageRatingTask_S2,2021.1.4,Win32,60.11060351,,,,,,,,,
,,,,,,,,,,,,0,4,4,4,1,fifth,4,22,Female,R,Donders,2021-07-06_17h05.56.841,ImageRatingTask_S2,2021.1.4,Win32,60.11060351,,,,,,,,,
,,,,,,,,,,,,0,5,5,5,1,sixth,4,22,Female,R,Donders,2021-07-06_17h05.56.841,ImageRatingTask_S2,2021.1.4,Win32,60.11060351,,,,,,,,,
,,,,,,,,,,,,0,6,6,6,1,seventh,4,22,Female,R,Donders,2021-07-06_17h05.56.841,ImageRatingTask_S2,2021.1.4,Win32,60.11060351,,,,,,,,,
,,,,,,,,,,,,0,7,7,7,1,last,4,22,Female,R,Donders,2021-07-06_17h05.56.841,ImageRatingTask_S2,2021.1.4,Win32,60.11060351,,,,,,,,,
,,,,,,,,,,,,,,,,,,4,22,Female,R,Donders,2021-07-06_17h05.56.841,ImageRatingTask_S2,2021.1.4,Win32,60.11060351,0,61,61,150,1,DreamStudyImages_rs1000x750g/Vehicles/trainseats.jpg,,,
,,5,4.4599,1,1.6779,5,1.9697,1,1.0499,5,0.6503,0,0,0,0,1,main,4,22,Female,R,Donders,2021-07-06_17h05.56.841,ImageRatingTask_S2,2021.1.4,Win32,60.11060351,,,,,,,,,
,,,,,,,,,,,,0,1,1,1,1,second,4,22,Female,R,Donders,2021-07-06_17h05.56.841,ImageRatingTask_S2,2021.1.4,Win32,60.11060351,,,,,,,,,
,,,,,,,,,,,,0,2,2,2,1,third,4,22,Female,R,Donders,2021-07-06_17h05.56.841,ImageRatingTask_S2,2021.1.4,Win32,60.11060351,,,,,,,,,
,,,,,,,,,,,,0,3,3,3,1,fourth,4,22,Female,R,Donders,2021-07-06_17h05.56.841,ImageRatingTask_S2,2021.1.4,Win32,60.11060351,,,,,,,,,
,,,,,,,,,,,,0,4,4,4,1,fifth,4,22,Female,R,Donders,2021-07-06_17h05.56.841,ImageRatingTask_S2,2021.1.4,Win32,60.11060351,,,,,,,,,
,,,,,,,,,,,,0,5,5,5,1,sixth,4,22,Female,R,Donders,2021-07-06_17h05.56.841,ImageRatingTask_S2,2021.1.4,Win32,60.11060351,,,,,,,,,
,,,,,,,,,,,,0,6,6,6,1,seventh,4,22,Female,R,Donders,2021-07-06_17h05.56.841,ImageRatingTask_S2,2021.1.4,Win32,60.11060351,,,,,,,,,
,,,,,,,,,,,,0,7,7,7,1,last,4,22,Female,R,Donders,2021-07-06_17h05.56.841,ImageRatingTask_S2,2021.1.4,Win32,60.11060351,,,,,,,,,
,,,,,,,,,,,,,,,,,,4,22,Female,R,Donders,2021-07-06_17h05.56.841,ImageRatingTask_S2,2021.1.4,Win32,60.11060351,0,62,62,9,1,DreamStudyImages_rs1000x750g/Food/IAPS7472_fruitbasket3.jpg,,,
,,5,2.4549,1,1.008,5,2.4505,1,1.0884,6,1.8996,0,0,0,0,1,main,4,22,Female,R,Donders,2021-07-06_17h05.56.841,ImageRatingTask_S2,2021.1.4,Win32,60.11060351,,,,,,,,,
,,,,,,,,,,,,0,1,1,1,1,second,4,22,Female,R,Donders,2021-07-06_17h05.56.841,ImageRatingTask_S2,2021.1.4,Win32,60.11060351,,,,,,,,,
,,,,,,,,,,,,0,2,2,2,1,third,4,22,Female,R,Donders,2021-07-06_17h05.56.841,ImageRatingTask_S2,2021.1.4,Win32,60.11060351,,,,,,,,,
,,,,,,,,,,,,0,3,3,3,1,fourth,4,22,Female,R,Donders,2021-07-06_17h05.56.841,ImageRatingTask_S2,2021.1.4,Win32,60.11060351,,,,,,,,,
,,,,,,,,,,,,0,4,4,4,1,fifth,4,22,Female,R,Donders,2021-07-06_17h05.56.841,ImageRatingTask_S2,2021.1.4,Win32,60.11060351,,,,,,,,,
,,,,,,,,,,,,0,5,5,5,1,sixth,4,22,Female,R,Donders,2021-07-06_17h05.56.841,ImageRatingTask_S2,2021.1.4,Win32,60.11060351,,,,,,,,,
,,,,,,,,,,,,0,6,6,6,1,seventh,4,22,Female,R,Donders,2021-07-06_17h05.56.841,ImageRatingTask_S2,2021.1.4,Win32,60.11060351,,,,,,,,,
,,,,,,,,,,,,0,7,7,7,1,last,4,22,Female,R,Donders,2021-07-06_17h05.56.841,ImageRatingTask_S2,2021.1.4,Win32,60.11060351,,,,,,,,,
,,,,,,,,,,,,,,,,,,4,22,Female,R,Donders,2021-07-06_17h05.56.841,ImageRatingTask_S2,2021.1.4,Win32,60.11060351,0,63,63,113,1,DreamStudyImages_rs1000x750g/Houses/Landscapes_082_v_CROPPED.jpg,,,
,,4,2.8721,5,1.9386,4,2.1766,1,1.1506,5,0.6722,0,0,0,0,1,main,4,22,Female,R,Donders,2021-07-06_17h05.56.841,ImageRatingTask_S2,2021.1.4,Win32,60.11060351,,,,,,,,,
,,,,,,,,,,,,0,1,1,1,1,second,4,22,Female,R,Donders,2021-07-06_17h05.56.841,ImageRatingTask_S2,2021.1.4,Win32,60.11060351,,,,,,,,,
,,,,,,,,,,,,0,2,2,2,1,third,4,22,Female,R,Donders,2021-07-06_17h05.56.841,ImageRatingTask_S2,2021.1.4,Win32,60.11060351,,,,,,,,,
,,,,,,,,,,,,0,3,3,3,1,fourth,4,22,Female,R,Donders,2021-07-06_17h05.56.841,ImageRatingTask_S2,2021.1.4,Win32,60.11060351,,,,,,,,,
,,,,,,,,,,,,0,4,4,4,1,fifth,4,22,Female,R,Donders,2021-07-06_17h05.56.841,ImageRatingTask_S2,2021.1.4,Win32,60.11060351,,,,,,,,,
,,,,,,,,,,,,0,5,5,5,1,sixth,4,22,Female,R,Donders,2021-07-06_17h05.56.841,ImageRatingTask_S2,2021.1.4,Win32,60.11060351,,,,,,,,,
,,,,,,,,,,,,0,6,6,6,1,seventh,4,22,Female,R,Donders,2021-07-06_17h05.56.841,ImageRatingTask_S2,2021.1.4,Win32,60.11060351,,,,,,,,,
,,,,,,,,,,,,0,7,7,7,1,last,4,22,Female,R,Donders,2021-07-06_17h05.56.841,ImageRatingTask_S2,2021.1.4,Win32,60.11060351,,,,,,,,,
,,,,,,,,,,,,,,,,,,4,22,Female,R,Donders,2021-07-06_17h05.56.841,ImageRatingTask_S2,2021.1.4,Win32,60.11060351,0,64,64,12,1,DreamStudyImages_rs1000x750g/Food/IAPS7291_chicken.jpg,,,
,,5,2.1231,1,1.1148,7,2.1239,1,1.0166,6,1.0985,0,0,0,0,1,main,4,22,Female,R,Donders,2021-07-06_17h05.56.841,ImageRatingTask_S2,2021.1.4,Win32,60.11060351,,,,,,,,,
,,,,,,,,,,,,0,1,1,1,1,second,4,22,Female,R,Donders,2021-07-06_17h05.56.841,ImageRatingTask_S2,2021.1.4,Win32,60.11060351,,,,,,,,,
,,,,,,,,,,,,0,2,2,2,1,third,4,22,Female,R,Donders,2021-07-06_17h05.56.841,ImageRatingTask_S2,2021.1.4,Win32,60.11060351,,,,,,,,,
,,,,,,,,,,,,0,3,3,3,1,fourth,4,22,Female,R,Donders,2021-07-06_17h05.56.841,ImageRatingTask_S2,2021.1.4,Win32,60.11060351,,,,,,,,,
,,,,,,,,,,,,0,4,4,4,1,fifth,4,22,Female,R,Donders,2021-07-06_17h05.56.841,ImageRatingTask_S2,2021.1.4,Win32,60.11060351,,,,,,,,,
,,,,,,,,,,,,0,5,5,5,1,sixth,4,22,Female,R,Donders,2021-07-06_17h05.56.841,ImageRatingTask_S2,2021.1.4,Win32,60.11060351,,,,,,,,,
,,,,,,,,,,,,0,6,6,6,1,seventh,4,22,Female,R,Donders,2021-07-06_17h05.56.841,ImageRatingTask_S2,2021.1.4,Win32,60.11060351,,,,,,,,,
,,,,,,,,,,,,0,7,7,7,1,last,4,22,Female,R,Donders,2021-07-06_17h05.56.841,ImageRatingTask_S2,2021.1.4,Win32,60.11060351,,,,,,,,,
,,,,,,,,,,,,,,,,,,4,22,Female,R,Donders,2021-07-06_17h05.56.841,ImageRatingTask_S2,2021.1.4,Win32,60.11060351,0,65,65,52,1,DreamStudyImages_rs1000x750g/Houses/Landscapes_041_h.jpg,,,
,,5,5.8831,1,1.2308,7,1.9493,0,1.3751,,,0,0,0,0,1,main,4,22,Female,R,Donders,2021-07-06_17h05.56.841,ImageRatingTask_S2,2021.1.4,Win32,60.11060351,,,,,,,,,
,,,,,,,,,,,,0,1,1,1,1,second,4,22,Female,R,Donders,2021-07-06_17h05.56.841,ImageRatingTask_S2,2021.1.4,Win32,60.11060351,,,,,,,,,
,,,,,,,,,,,,0,2,2,2,1,third,4,22,Female,R,Donders,2021-07-06_17h05.56.841,ImageRatingTask_S2,2021.1.4,Win32,60.11060351,,,,,,,,,
,,,,,,,,,,,,0,3,3,3,1,fourth,4,22,Female,R,Donders,2021-07-06_17h05.56.841,ImageRatingTask_S2,2021.1.4,Win32,60.11060351,,,,,,,,,
,,,,,,,,,,,,0,4,4,4,1,fifth,4,22,Female,R,Donders,2021-07-06_17h05.56.841,ImageRatingTask_S2,2021.1.4,Win32,60.11060351,,,,,,,,,
,,,,,,,,,,,,0,5,5,5,1,sixth,4,22,Female,R,Donders,2021-07-06_17h05.56.841,ImageRatingTask_S2,2021.1.4,Win32,60.11060351,,,,,,,,,
,,,,,,,,,,,,0,6,6,6,1,seventh,4,22,Female,R,Donders,2021-07-06_17h05.56.841,ImageRatingTask_S2,2021.1.4,Win32,60.11060351,,,,,,,,,
,,,,,,,,,,,,0,7,7,7,1,last,4,22,Female,R,Donders,2021-07-06_17h05.56.841,ImageRatingTask_S2,2021.1.4,Win32,60.11060351,,,,,,,,,
,,,,,,,,,,,,,,,,,,4,22,Female,R,Donders,2021-07-06_17h05.56.841,ImageRatingTask_S2,2021.1.4,Win32,60.11060351,0,66,66,28,1,DreamStudyImages_rs1000x750g/Houses/Objects_241_h.jpg,,,
,,4,7.0239,3,1.6215,6,3.3297,0,1.461,,,0,0,0,0,1,main,4,22,Female,R,Donders,2021-07-06_17h05.56.841,ImageRatingTask_S2,2021.1.4,Win32,60.11060351,,,,,,,,,
,,,,,,,,,,,,0,1,1,1,1,second,4,22,Female,R,Donders,2021-07-06_17h05.56.841,ImageRatingTask_S2,2021.1.4,Win32,60.11060351,,,,,,,,,
,,,,,,,,,,,,0,2,2,2,1,third,4,22,Female,R,Donders,2021-07-06_17h05.56.841,ImageRatingTask_S2,2021.1.4,Win32,60.11060351,,,,,,,,,
,,,,,,,,,,,,0,3,3,3,1,fourth,4,22,Female,R,Donders,2021-07-06_17h05.56.841,ImageRatingTask_S2,2021.1.4,Win32,60.11060351,,,,,,,,,
,,,,,,,,,,,,0,4,4,4,1,fifth,4,22,Female,R,Donders,2021-07-06_17h05.56.841,ImageRatingTask_S2,2021.1.4,Win32,60.11060351,,,,,,,,,
,,,,,,,,,,,,0,5,5,5,1,sixth,4,22,Female,R,Donders,2021-07-06_17h05.56.841,ImageRatingTask_S2,2021.1.4,Win32,60.11060351,,,,,,,,,
,,,,,,,,,,,,0,6,6,6,1,seventh,4,22,Female,R,Donders,2021-07-06_17h05.56.841,ImageRatingTask_S2,2021.1.4,Win32,60.11060351,,,,,,,,,
,,,,,,,,,,,,0,7,7,7,1,last,4,22,Female,R,Donders,2021-07-06_17h05.56.841,ImageRatingTask_S2,2021.1.4,Win32,60.11060351,,,,,,,,,
,,,,,,,,,,,,,,,,,,4,22,Female,R,Donders,2021-07-06_17h05.56.841,ImageRatingTask_S2,2021.1.4,Win32,60.11060351,0,67,67,128,1,DreamStudyImages_rs1000x750g/Houses/Objects_180_v.jpg,,,
,,4,2.4583,3,2.3223,6,3.7095,1,1.3685,8,0.9806,0,0,0,0,1,main,4,22,Female,R,Donders,2021-07-06_17h05.56.841,ImageRatingTask_S2,2021.1.4,Win32,60.11060351,,,,,,,,,
,,,,,,,,,,,,0,1,1,1,1,second,4,22,Female,R,Donders,2021-07-06_17h05.56.841,ImageRatingTask_S2,2021.1.4,Win32,60.11060351,,,,,,,,,
,,,,,,,,,,,,0,2,2,2,1,third,4,22,Female,R,Donders,2021-07-06_17h05.56.841,ImageRatingTask_S2,2021.1.4,Win32,60.11060351,,,,,,,,,
,,,,,,,,,,,,0,3,3,3,1,fourth,4,22,Female,R,Donders,2021-07-06_17h05.56.841,ImageRatingTask_S2,2021.1.4,Win32,60.11060351,,,,,,,,,
,,,,,,,,,,,,0,4,4,4,1,fifth,4,22,Female,R,Donders,2021-07-06_17h05.56.841,ImageRatingTask_S2,2021.1.4,Win32,60.11060351,,,,,,,,,
,,,,,,,,,,,,0,5,5,5,1,sixth,4,22,Female,R,Donders,2021-07-06_17h05.56.841,ImageRatingTask_S2,2021.1.4,Win32,60.11060351,,,,,,,,,
,,,,,,,,,,,,0,6,6,6,1,seventh,4,22,Female,R,Donders,2021-07-06_17h05.56.841,ImageRatingTask_S2,2021.1.4,Win32,60.11060351,,,,,,,,,
,,,,,,,,,,,,0,7,7,7,1,last,4,22,Female,R,Donders,2021-07-06_17h05.56.841,ImageRatingTask_S2,2021.1.4,Win32,60.11060351,,,,,,,,,
,,,,,,,,,,,,,,,,,,4,22,Female,R,Donders,2021-07-06_17h05.56.841,ImageRatingTask_S2,2021.1.4,Win32,60.11060351,0,68,68,141,1,DreamStudyImages_rs1000x750g/Water/waterneutral4.jpg,,,
,,7,3.628,1,1.1753,6,2.0487,1,1.1,3,1.1705,0,0,0,0,1,main,4,22,Female,R,Donders,2021-07-06_17h05.56.841,ImageRatingTask_S2,2021.1.4,Win32,60.11060351,,,,,,,,,
,,,,,,,,,,,,0,1,1,1,1,second,4,22,Female,R,Donders,2021-07-06_17h05.56.841,ImageRatingTask_S2,2021.1.4,Win32,60.11060351,,,,,,,,,
,,,,,,,,,,,,0,2,2,2,1,third,4,22,Female,R,Donders,2021-07-06_17h05.56.841,ImageRatingTask_S2,2021.1.4,Win32,60.11060351,,,,,,,,,
,,,,,,,,,,,,0,3,3,3,1,fourth,4,22,Female,R,Donders,2021-07-06_17h05.56.841,ImageRatingTask_S2,2021.1.4,Win32,60.11060351,,,,,,,,,
,,,,,,,,,,,,0,4,4,4,1,fifth,4,22,Female,R,Donders,2021-07-06_17h05.56.841,ImageRatingTask_S2,2021.1.4,Win32,60.11060351,,,,,,,,,
,,,,,,,,,,,,0,5,5,5,1,sixth,4,22,Female,R,Donders,2021-07-06_17h05.56.841,ImageRatingTask_S2,2021.1.4,Win32,60.11060351,,,,,,,,,
,,,,,,,,,,,,0,6,6,6,1,seventh,4,22,Female,R,Donders,2021-07-06_17h05.56.841,ImageRatingTask_S2,2021.1.4,Win32,60.11060351,,,,,,,,,
,,,,,,,,,,,,0,7,7,7,1,last,4,22,Female,R,Donders,2021-07-06_17h05.56.841,ImageRatingTask_S2,2021.1.4,Win32,60.11060351,,,,,,,,,
,,,,,,,,,,,,,,,,,,4,22,Female,R,Donders,2021-07-06_17h05.56.841,ImageRatingTask_S2,2021.1.4,Win32,60.11060351,0,69,69,13,1,DreamStudyImages_rs1000x750g/Mammals/Animals_167_h.jpg,,,
,,3,4.7215,3,0.8896,7,1.7829,1,0.9159,7,0.8364,0,0,0,0,1,main,4,22,Female,R,Donders,2021-07-06_17h05.56.841,ImageRatingTask_S2,2021.1.4,Win32,60.11060351,,,,,,,,,
,,,,,,,,,,,,0,1,1,1,1,second,4,22,Female,R,Donders,2021-07-06_17h05.56.841,ImageRatingTask_S2,2021.1.4,Win32,60.11060351,,,,,,,,,
,,,,,,,,,,,,0,2,2,2,1,third,4,22,Female,R,Donders,2021-07-06_17h05.56.841,ImageRatingTask_S2,2021.1.4,Win32,60.11060351,,,,,,,,,
,,,,,,,,,,,,0,3,3,3,1,fourth,4,22,Female,R,Donders,2021-07-06_17h05.56.841,ImageRatingTask_S2,2021.1.4,Win32,60.11060351,,,,,,,,,
,,,,,,,,,,,,0,4,4,4,1,fifth,4,22,Female,R,Donders,2021-07-06_17h05.56.841,ImageRatingTask_S2,2021.1.4,Win32,60.11060351,,,,,,,,,
,,,,,,,,,,,,0,5,5,5,1,sixth,4,22,Female,R,Donders,2021-07-06_17h05.56.841,ImageRatingTask_S2,2021.1.4,Win32,60.11060351,,,,,,,,,
,,,,,,,,,,,,0,6,6,6,1,seventh,4,22,Female,R,Donders,2021-07-06_17h05.56.841,ImageRatingTask_S2,2021.1.4,Win32,60.11060351,,,,,,,,,
,,,,,,,,,,,,0,7,7,7,1,last,4,22,Female,R,Donders,2021-07-06_17h05.56.841,ImageRatingTask_S2,2021.1.4,Win32,60.11060351,,,,,,,,,
,,,,,,,,,,,,,,,,,,4,22,Female,R,Donders,2021-07-06_17h05.56.841,ImageRatingTask_S2,2021.1.4,Win32,60.11060351,0,70,70,53,1,DreamStudyImages_rs1000x750g/Vehicles/Objects_281_h.jpg,,,
,,4,2.2237,1,1.7906,7,2.6661,1,1.2595,6,1.8172,0,0,0,0,1,main,4,22,Female,R,Donders,2021-07-06_17h05.56.841,ImageRatingTask_S2,2021.1.4,Win32,60.11060351,,,,,,,,,
,,,,,,,,,,,,0,1,1,1,1,second,4,22,Female,R,Donders,2021-07-06_17h05.56.841,ImageRatingTask_S2,2021.1.4,Win32,60.11060351,,,,,,,,,
,,,,,,,,,,,,0,2,2,2,1,third,4,22,Female,R,Donders,2021-07-06_17h05.56.841,ImageRatingTask_S2,2021.1.4,Win32,60.11060351,,,,,,,,,
,,,,,,,,,,,,0,3,3,3,1,fourth,4,22,Female,R,Donders,2021-07-06_17h05.56.841,ImageRatingTask_S2,2021.1.4,Win32,60.11060351,,,,,,,,,
,,,,,,,,,,,,0,4,4,4,1,fifth,4,22,Female,R,Donders,2021-07-06_17h05.56.841,ImageRatingTask_S2,2021.1.4,Win32,60.11060351,,,,,,,,,
,,,,,,,,,,,,0,5,5,5,1,sixth,4,22,Female,R,Donders,2021-07-06_17h05.56.841,ImageRatingTask_S2,2021.1.4,Win32,60.11060351,,,,,,,,,
,,,,,,,,,,,,0,6,6,6,1,seventh,4,22,Female,R,Donders,2021-07-06_17h05.56.841,ImageRatingTask_S2,2021.1.4,Win32,60.11060351,,,,,,,,,
,,,,,,,,,,,,0,7,7,7,1,last,4,22,Female,R,Donders,2021-07-06_17h05.56.841,ImageRatingTask_S2,2021.1.4,Win32,60.11060351,,,,,,,,,
,,,,,,,,,,,,,,,,,,4,22,Female,R,Donders,2021-07-06_17h05.56.841,ImageRatingTask_S2,2021.1.4,Win32,60.11060351,0,71,71,98,1,DreamStudyImages_rs1000x750g/Houses/abandonedhouse.jpg,,,
,,5,6.1082,3,1.6922,8,2.0532,1,6.8242,5,0.6477,0,0,0,0,1,main,4,22,Female,R,Donders,2021-07-06_17h05.56.841,ImageRatingTask_S2,2021.1.4,Win32,60.11060351,,,,,,,,,
,,,,,,,,,,,,0,1,1,1,1,second,4,22,Female,R,Donders,2021-07-06_17h05.56.841,ImageRatingTask_S2,2021.1.4,Win32,60.11060351,,,,,,,,,
,,,,,,,,,,,,0,2,2,2,1,third,4,22,Female,R,Donders,2021-07-06_17h05.56.841,ImageRatingTask_S2,2021.1.4,Win32,60.11060351,,,,,,,,,
,,,,,,,,,,,,0,3,3,3,1,fourth,4,22,Female,R,Donders,2021-07-06_17h05.56.841,ImageRatingTask_S2,2021.1.4,Win32,60.11060351,,,,,,,,,
,,,,,,,,,,,,0,4,4,4,1,fifth,4,22,Female,R,Donders,2021-07-06_17h05.56.841,ImageRatingTask_S2,2021.1.4,Win32,60.11060351,,,,,,,,,
,,,,,,,,,,,,0,5,5,5,1,sixth,4,22,Female,R,Donders,2021-07-06_17h05.56.841,ImageRatingTask_S2,2021.1.4,Win32,60.11060351,,,,,,,,,
,,,,,,,,,,,,0,6,6,6,1,seventh,4,22,Female,R,Donders,2021-07-06_17h05.56.841,ImageRatingTask_S2,2021.1.4,Win32,60.11060351,,,,,,,,,
,,,,,,,,,,,,0,7,7,7,1,last,4,22,Female,R,Donders,2021-07-06_17h05.56.841,ImageRatingTask_S2,2021.1.4,Win32,60.11060351,,,,,,,,,
,,,,,,,,,,,,,,,,,,4,22,Female,R,Donders,2021-07-06_17h05.56.841,ImageRatingTask_S2,2021.1.4,Win32,60.11060351,0,72,72,70,1,DreamStudyImages_rs1000x750g/Food/Objects_089_h.jpg,,,
,,5,8.6982,1,1.256,6,2.0593,1,0.975,6,0.4424,0,0,0,0,1,main,4,22,Female,R,Donders,2021-07-06_17h05.56.841,ImageRatingTask_S2,2021.1.4,Win32,60.11060351,,,,,,,,,
,,,,,,,,,,,,0,1,1,1,1,second,4,22,Female,R,Donders,2021-07-06_17h05.56.841,ImageRatingTask_S2,2021.1.4,Win32,60.11060351,,,,,,,,,
,,,,,,,,,,,,0,2,2,2,1,third,4,22,Female,R,Donders,2021-07-06_17h05.56.841,ImageRatingTask_S2,2021.1.4,Win32,60.11060351,,,,,,,,,
,,,,,,,,,,,,0,3,3,3,1,fourth,4,22,Female,R,Donders,2021-07-06_17h05.56.841,ImageRatingTask_S2,2021.1.4,Win32,60.11060351,,,,,,,,,
,,,,,,,,,,,,0,4,4,4,1,fifth,4,22,Female,R,Donders,2021-07-06_17h05.56.841,ImageRatingTask_S2,2021.1.4,Win32,60.11060351,,,,,,,,,
,,,,,,,,,,,,0,5,5,5,1,sixth,4,22,Female,R,Donders,2021-07-06_17h05.56.841,ImageRatingTask_S2,2021.1.4,Win32,60.11060351,,,,,,,,,
,,,,,,,,,,,,0,6,6,6,1,seventh,4,22,Female,R,Donders,2021-07-06_17h05.56.841,ImageRatingTask_S2,2021.1.4,Win32,60.11060351,,,,,,,,,
,,,,,,,,,,,,0,7,7,7,1,last,4,22,Female,R,Donders,2021-07-06_17h05.56.841,ImageRatingTask_S2,2021.1.4,Win32,60.11060351,,,,,,,,,
,,,,,,,,,,,,,,,,,,4,22,Female,R,Donders,2021-07-06_17h05.56.841,ImageRatingTask_S2,2021.1.4,Win32,60.11060351,0,73,73,154,1,DreamStudyImages_rs1000x750g/Houses/Landscapes_073_h.jpg,,,
,,4,2.7773,2,1.9258,5,2.7512,1,0.9092,7,0.7901,0,0,0,0,1,main,4,22,Female,R,Donders,2021-07-06_17h05.56.841,ImageRatingTask_S2,2021.1.4,Win32,60.11060351,,,,,,,,,
,,,,,,,,,,,,0,1,1,1,1,second,4,22,Female,R,Donders,2021-07-06_17h05.56.841,ImageRatingTask_S2,2021.1.4,Win32,60.11060351,,,,,,,,,
,,,,,,,,,,,,0,2,2,2,1,third,4,22,Female,R,Donders,2021-07-06_17h05.56.841,ImageRatingTask_S2,2021.1.4,Win32,60.11060351,,,,,,,,,
,,,,,,,,,,,,0,3,3,3,1,fourth,4,22,Female,R,Donders,2021-07-06_17h05.56.841,ImageRatingTask_S2,2021.1.4,Win32,60.11060351,,,,,,,,,
,,,,,,,,,,,,0,4,4,4,1,fifth,4,22,Female,R,Donders,2021-07-06_17h05.56.841,ImageRatingTask_S2,2021.1.4,Win32,60.11060351,,,,,,,,,
,,,,,,,,,,,,0,5,5,5,1,sixth,4,22,Female,R,Donders,2021-07-06_17h05.56.841,ImageRatingTask_S2,2021.1.4,Win32,60.11060351,,,,,,,,,
,,,,,,,,,,,,0,6,6,6,1,seventh,4,22,Female,R,Donders,2021-07-06_17h05.56.841,ImageRatingTask_S2,2021.1.4,Win32,60.11060351,,,,,,,,,
,,,,,,,,,,,,0,7,7,7,1,last,4,22,Female,R,Donders,2021-07-06_17h05.56.841,ImageRatingTask_S2,2021.1.4,Win32,60.11060351,,,,,,,,,
,,,,,,,,,,,,,,,,,,4,22,Female,R,Donders,2021-07-06_17h05.56.841,ImageRatingTask_S2,2021.1.4,Win32,60.11060351,0,74,74,33,1,DreamStudyImages_rs1000x750g/Water/Weapon 1.jpg,,,
,,7,4.0787,1,1.3171,5,2.1194,1,2.0753,8,0.839,0,0,0,0,1,main,4,22,Female,R,Donders,2021-07-06_17h05.56.841,ImageRatingTask_S2,2021.1.4,Win32,60.11060351,,,,,,,,,
,,,,,,,,,,,,0,1,1,1,1,second,4,22,Female,R,Donders,2021-07-06_17h05.56.841,ImageRatingTask_S2,2021.1.4,Win32,60.11060351,,,,,,,,,
,,,,,,,,,,,,0,2,2,2,1,third,4,22,Female,R,Donders,2021-07-06_17h05.56.841,ImageRatingTask_S2,2021.1.4,Win32,60.11060351,,,,,,,,,
,,,,,,,,,,,,0,3,3,3,1,fourth,4,22,Female,R,Donders,2021-07-06_17h05.56.841,ImageRatingTask_S2,2021.1.4,Win32,60.11060351,,,,,,,,,
,,,,,,,,,,,,0,4,4,4,1,fifth,4,22,Female,R,Donders,2021-07-06_17h05.56.841,ImageRatingTask_S2,2021.1.4,Win32,60.11060351,,,,,,,,,
,,,,,,,,,,,,0,5,5,5,1,sixth,4,22,Female,R,Donders,2021-07-06_17h05.56.841,ImageRatingTask_S2,2021.1.4,Win32,60.11060351,,,,,,,,,
,,,,,,,,,,,,0,6,6,6,1,seventh,4,22,Female,R,Donders,2021-07-06_17h05.56.841,ImageRatingTask_S2,2021.1.4,Win32,60.11060351,,,,,,,,,
,,,,,,,,,,,,0,7,7,7,1,last,4,22,Female,R,Donders,2021-07-06_17h05.56.841,ImageRatingTask_S2,2021.1.4,Win32,60.11060351,,,,,,,,,
,,,,,,,,,,,,,,,,,,4,22,Female,R,Donders,2021-07-06_17h05.56.841,ImageRatingTask_S2,2021.1.4,Win32,60.11060351,0,75,75,58,1,DreamStudyImages_rs1000x750g/Water/Sunset 4.jpg,,,
,,2,2.2486,5,2.7879,5,1.3965,2,1.1156,2,0.6925,0,0,0,0,1,main,4,22,Female,R,Donders,2021-07-06_17h05.56.841,ImageRatingTask_S2,2021.1.4,Win32,60.11060351,,,,,,,,,
,,,,,,,,,,1,0.2023,0,1,1,1,1,second,4,22,Female,R,Donders,2021-07-06_17h05.56.841,ImageRatingTask_S2,2021.1.4,Win32,60.11060351,,,,,,,,,
,,,,,,,,,,,,0,2,2,2,1,third,4,22,Female,R,Donders,2021-07-06_17h05.56.841,ImageRatingTask_S2,2021.1.4,Win32,60.11060351,,,,,,,,,
,,,,,,,,,,,,0,3,3,3,1,fourth,4,22,Female,R,Donders,2021-07-06_17h05.56.841,ImageRatingTask_S2,2021.1.4,Win32,60.11060351,,,,,,,,,
,,,,,,,,,,,,0,4,4,4,1,fifth,4,22,Female,R,Donders,2021-07-06_17h05.56.841,ImageRatingTask_S2,2021.1.4,Win32,60.11060351,,,,,,,,,
,,,,,,,,,,,,0,5,5,5,1,sixth,4,22,Female,R,Donders,2021-07-06_17h05.56.841,ImageRatingTask_S2,2021.1.4,Win32,60.11060351,,,,,,,,,
,,,,,,,,,,,,0,6,6,6,1,seventh,4,22,Female,R,Donders,2021-07-06_17h05.56.841,ImageRatingTask_S2,2021.1.4,Win32,60.11060351,,,,,,,,,
,,,,,,,,,,,,0,7,7,7,1,last,4,22,Female,R,Donders,2021-07-06_17h05.56.841,ImageRatingTask_S2,2021.1.4,Win32,60.11060351,,,,,,,,,
,,,,,,,,,,,,,,,,,,4,22,Female,R,Donders,2021-07-06_17h05.56.841,ImageRatingTask_S2,2021.1.4,Win32,60.11060351,0,76,76,65,1,DreamStudyImages_rs1000x750g/Children/IAPS2900.1_boy13.jpg,,,
,,5,4.4623,1,8.4933,6,2.2321,1,0.9835,5,0.4928,0,0,0,0,1,main,4,22,Female,R,Donders,2021-07-06_17h05.56.841,ImageRatingTask_S2,2021.1.4,Win32,60.11060351,,,,,,,,,
,,,,,,,,,,,,0,1,1,1,1,second,4,22,Female,R,Donders,2021-07-06_17h05.56.841,ImageRatingTask_S2,2021.1.4,Win32,60.11060351,,,,,,,,,
,,,,,,,,,,,,0,2,2,2,1,third,4,22,Female,R,Donders,2021-07-06_17h05.56.841,ImageRatingTask_S2,2021.1.4,Win32,60.11060351,,,,,,,,,
,,,,,,,,,,,,0,3,3,3,1,fourth,4,22,Female,R,Donders,2021-07-06_17h05.56.841,ImageRatingTask_S2,2021.1.4,Win32,60.11060351,,,,,,,,,
,,,,,,,,,,,,0,4,4,4,1,fifth,4,22,Female,R,Donders,2021-07-06_17h05.56.841,ImageRatingTask_S2,2021.1.4,Win32,60.11060351,,,,,,,,,
,,,,,,,,,,,,0,5,5,5,1,sixth,4,22,Female,R,Donders,2021-07-06_17h05.56.841,ImageRatingTask_S2,2021.1.4,Win32,60.11060351,,,,,,,,,
,,,,,,,,,,,,0,6,6,6,1,seventh,4,22,Female,R,Donders,2021-07-06_17h05.56.841,ImageRatingTask_S2,2021.1.4,Win32,60.11060351,,,,,,,,,
,,,,,,,,,,,,0,7,7,7,1,last,4,22,Female,R,Donders,2021-07-06_17h05.56.841,ImageRatingTask_S2,2021.1.4,Win32,60.11060351,,,,,,,,,
,,,,,,,,,,,,,,,,,,4,22,Female,R,Donders,2021-07-06_17h05.56.841,ImageRatingTask_S2,2021.1.4,Win32,60.11060351,0,77,77,122,1,DreamStudyImages_rs1000x750g/Food/Objects_087_h.jpg,,,
,,3,4.5946,5,2.7112,6,2.283,1,7.7225,5,1.1332,0,0,0,0,1,main,4,22,Female,R,Donders,2021-07-06_17h05.56.841,ImageRatingTask_S2,2021.1.4,Win32,60.11060351,,,,,,,,,
,,,,,,,,,,,,0,1,1,1,1,second,4,22,Female,R,Donders,2021-07-06_17h05.56.841,ImageRatingTask_S2,2021.1.4,Win32,60.11060351,,,,,,,,,
,,,,,,,,,,,,0,2,2,2,1,third,4,22,Female,R,Donders,2021-07-06_17h05.56.841,ImageRatingTask_S2,2021.1.4,Win32,60.11060351,,,,,,,,,
,,,,,,,,,,,,0,3,3,3,1,fourth,4,22,Female,R,Donders,2021-07-06_17h05.56.841,ImageRatingTask_S2,2021.1.4,Win32,60.11060351,,,,,,,,,
,,,,,,,,,,,,0,4,4,4,1,fifth,4,22,Female,R,Donders,2021-07-06_17h05.56.841,ImageRatingTask_S2,2021.1.4,Win32,60.11060351,,,,,,,,,
,,,,,,,,,,,,0,5,5,5,1,sixth,4,22,Female,R,Donders,2021-07-06_17h05.56.841,ImageRatingTask_S2,2021.1.4,Win32,60.11060351,,,,,,,,,
,,,,,,,,,,,,0,6,6,6,1,seventh,4,22,Female,R,Donders,2021-07-06_17h05.56.841,ImageRatingTask_S2,2021.1.4,Win32,60.11060351,,,,,,,,,
,,,,,,,,,,,,0,7,7,7,1,last,4,22,Female,R,Donders,2021-07-06_17h05.56.841,ImageRatingTask_S2,2021.1.4,Win32,60.11060351,,,,,,,,,
,,,,,,,,,,,,,,,,,,4,22,Female,R,Donders,2021-07-06_17h05.56.841,ImageRatingTask_S2,2021.1.4,Win32,60.11060351,0,78,78,84,1,DreamStudyImages_rs1000x750g/Food/Objects_133_h.jpg,,,
,,6,3.8577,2,1.8922,5,1.6598,1,1.0653,2,0.1667,0,0,0,0,1,main,4,22,Female,R,Donders,2021-07-06_17h05.56.841,ImageRatingTask_S2,2021.1.4,Win32,60.11060351,,,,,,,,,
,,,,,,,,,,,,0,1,1,1,1,second,4,22,Female,R,Donders,2021-07-06_17h05.56.841,ImageRatingTask_S2,2021.1.4,Win32,60.11060351,,,,,,,,,
,,,,,,,,,,,,0,2,2,2,1,third,4,22,Female,R,Donders,2021-07-06_17h05.56.841,ImageRatingTask_S2,2021.1.4,Win32,60.11060351,,,,,,,,,
,,,,,,,,,,,,0,3,3,3,1,fourth,4,22,Female,R,Donders,2021-07-06_17h05.56.841,ImageRatingTask_S2,2021.1.4,Win32,60.11060351,,,,,,,,,
,,,,,,,,,,,,0,4,4,4,1,fifth,4,22,Female,R,Donders,2021-07-06_17h05.56.841,ImageRatingTask_S2,2021.1.4,Win32,60.11060351,,,,,,,,,
,,,,,,,,,,,,0,5,5,5,1,sixth,4,22,Female,R,Donders,2021-07-06_17h05.56.841,ImageRatingTask_S2,2021.1.4,Win32,60.11060351,,,,,,,,,
