slider_pre.response,slider_pre.rt,key_val.keys,key_val.rt,key_aro.keys,key_aro.rt,key_qual.keys,key_qual.rt,key_ncat.keys,key_ncat.rt,key_cats.keys,key_cats.rt,ncat_order.thisRepN,ncat_order.thisTrialN,ncat_order.thisN,ncat_order.thisIndex,ncat_order.ran,cond_cat,participant,age,gender,handedness (L/R),site (IMT/Donders),date,expName,psychopyVersion,OS,frameRate,img_trials.thisRepN,img_trials.thisTrialN,img_trials.thisN,img_trials.thisIndex,img_trials.ran,filename,slider_post.response,slider_post.rt,textbox_openfb.text
5,3.5788,5,3.2287,1,2.9014,5,1.9387,1,1.5008,3,1.1596,0,0,0,0,1,main,4,22,Female,R,Donders,2021-07-06_18h11.03.603,ImageRatingTask_S3,2021.1.4,Win32,59.91252771,,,,,,,,,
,,,,,,,,,,,,0,1,1,1,1,second,4,22,Female,R,Donders,2021-07-06_18h11.03.603,ImageRatingTask_S3,2021.1.4,Win32,59.91252771,,,,,,,,,
,,,,,,,,,,,,0,2,2,2,1,third,4,22,Female,R,Donders,2021-07-06_18h11.03.603,ImageRatingTask_S3,2021.1.4,Win32,59.91252771,,,,,,,,,
,,,,,,,,,,,,0,3,3,3,1,fourth,4,22,Female,R,Donders,2021-07-06_18h11.03.603,ImageRatingTask_S3,2021.1.4,Win32,59.91252771,,,,,,,,,
,,,,,,,,,,,,0,4,4,4,1,fifth,4,22,Female,R,Donders,2021-07-06_18h11.03.603,ImageRatingTask_S3,2021.1.4,Win32,59.91252771,,,,,,,,,
,,,,,,,,,,,,0,5,5,5,1,sixth,4,22,Female,R,Donders,2021-07-06_18h11.03.603,ImageRatingTask_S3,2021.1.4,Win32,59.91252771,,,,,,,,,
,,,,,,,,,,,,0,6,6,6,1,seventh,4,22,Female,R,Donders,2021-07-06_18h11.03.603,ImageRatingTask_S3,2021.1.4,Win32,59.91252771,,,,,,,,,
,,,,,,,,,,,,0,7,7,7,1,last,4,22,Female,R,Donders,2021-07-06_18h11.03.603,ImageRatingTask_S3,2021.1.4,Win32,59.91252771,,,,,,,,,
,,,,,,,,,,,,,,,,,,4,22,Female,R,Donders,2021-07-06_18h11.03.603,ImageRatingTask_S3,2021.1.4,Win32,59.91252771,0,0,0,122,1,DreamStudyImages_rs1000x750g/Mammals/Elephant 1.jpg,,,
,,5,2.9409,1,1.7415,5,1.5333,1,1.2168,7,0.8264,0,0,0,0,1,main,4,22,Female,R,Donders,2021-07-06_18h11.03.603,ImageRatingTask_S3,2021.1.4,Win32,59.91252771,,,,,,,,,
,,,,,,,,,,,,0,1,1,1,1,second,4,22,Female,R,Donders,2021-07-06_18h11.03.603,ImageRatingTask_S3,2021.1.4,Win32,59.91252771,,,,,,,,,
,,,,,,,,,,,,0,2,2,2,1,third,4,22,Female,R,Donders,2021-07-06_18h11.03.603,ImageRatingTask_S3,2021.1.4,Win32,59.91252771,,,,,,,,,
,,,,,,,,,,,,0,3,3,3,1,fourth,4,22,Female,R,Donders,2021-07-06_18h11.03.603,ImageRatingTask_S3,2021.1.4,Win32,59.91252771,,,,,,,,,
,,,,,,,,,,,,0,4,4,4,1,fifth,4,22,Female,R,Donders,2021-07-06_18h11.03.603,ImageRatingTask_S3,2021.1.4,Win32,59.91252771,,,,,,,,,
,,,,,,,,,,,,0,5,5,5,1,sixth,4,22,Female,R,Donders,2021-07-06_18h11.03.603,ImageRatingTask_S3,2021.1.4,Win32,59.91252771,,,,,,,,,
,,,,,,,,,,,,0,6,6,6,1,seventh,4,22,Female,R,Donders,2021-07-06_18h11.03.603,ImageRatingTask_S3,2021.1.4,Win32,59.91252771,,,,,,,,,
,,,,,,,,,,,,0,7,7,7,1,last,4,22,Female,R,Donders,2021-07-06_18h11.03.603,ImageRatingTask_S3,2021.1.4,Win32,59.91252771,,,,,,,,,
,,,,,,,,,,,,,,,,,,4,22,Female,R,Donders,2021-07-06_18h11.03.603,ImageRatingTask_S3,2021.1.4,Win32,59.91252771,0,1,1,126,1,DreamStudyImages_rs1000x750g/Vehicles/5450.jpg,,,
,,6,11.5201,2,1.3125,7,12.057,1,1.4644,5,0.522,0,0,0,0,1,main,4,22,Female,R,Donders,2021-07-06_18h11.03.603,ImageRatingTask_S3,2021.1.4,Win32,59.91252771,,,,,,,,,
,,,,,,,,,,,,0,1,1,1,1,second,4,22,Female,R,Donders,2021-07-06_18h11.03.603,ImageRatingTask_S3,2021.1.4,Win32,59.91252771,,,,,,,,,
,,,,,,,,,,,,0,2,2,2,1,third,4,22,Female,R,Donders,2021-07-06_18h11.03.603,ImageRatingTask_S3,2021.1.4,Win32,59.91252771,,,,,,,,,
,,,,,,,,,,,,0,3,3,3,1,fourth,4,22,Female,R,Donders,2021-07-06_18h11.03.603,ImageRatingTask_S3,2021.1.4,Win32,59.91252771,,,,,,,,,
,,,,,,,,,,,,0,4,4,4,1,fifth,4,22,Female,R,Donders,2021-07-06_18h11.03.603,ImageRatingTask_S3,2021.1.4,Win32,59.91252771,,,,,,,,,
,,,,,,,,,,,,0,5,5,5,1,sixth,4,22,Female,R,Donders,2021-07-06_18h11.03.603,ImageRatingTask_S3,2021.1.4,Win32,59.91252771,,,,,,,,,
,,,,,,,,,,,,0,6,6,6,1,seventh,4,22,Female,R,Donders,2021-07-06_18h11.03.603,ImageRatingTask_S3,2021.1.4,Win32,59.91252771,,,,,,,,,
,,,,,,,,,,,,0,7,7,7,1,last,4,22,Female,R,Donders,2021-07-06_18h11.03.603,ImageRatingTask_S3,2021.1.4,Win32,59.91252771,,,,,,,,,
,,,,,,,,,,,,,,,,,,4,22,Female,R,Donders,2021-07-06_18h11.03.603,ImageRatingTask_S3,2021.1.4,Win32,59.91252771,0,2,2,127,1,DreamStudyImages_rs1000x750g/Food/Objects_081_h.jpg,,,
,,7,28.1823,4,3.2658,7,2.1578,1,1.6265,5,1.0595,0,0,0,0,1,main,4,22,Female,R,Donders,2021-07-06_18h11.03.603,ImageRatingTask_S3,2021.1.4,Win32,59.91252771,,,,,,,,,
,,,,,,,,,,,,0,1,1,1,1,second,4,22,Female,R,Donders,2021-07-06_18h11.03.603,ImageRatingTask_S3,2021.1.4,Win32,59.91252771,,,,,,,,,
,,,,,,,,,,,,0,2,2,2,1,third,4,22,Female,R,Donders,2021-07-06_18h11.03.603,ImageRatingTask_S3,2021.1.4,Win32,59.91252771,,,,,,,,,
,,,,,,,,,,,,0,3,3,3,1,fourth,4,22,Female,R,Donders,2021-07-06_18h11.03.603,ImageRatingTask_S3,2021.1.4,Win32,59.91252771,,,,,,,,,
,,,,,,,,,,,,0,4,4,4,1,fifth,4,22,Female,R,Donders,2021-07-06_18h11.03.603,ImageRatingTask_S3,2021.1.4,Win32,59.91252771,,,,,,,,,
,,,,,,,,,,,,0,5,5,5,1,sixth,4,22,Female,R,Donders,2021-07-06_18h11.03.603,ImageRatingTask_S3,2021.1.4,Win32,59.91252771,,,,,,,,,
,,,,,,,,,,,,0,6,6,6,1,seventh,4,22,Female,R,Donders,2021-07-06_18h11.03.603,ImageRatingTask_S3,2021.1.4,Win32,59.91252771,,,,,,,,,
,,,,,,,,,,,,0,7,7,7,1,last,4,22,Female,R,Donders,2021-07-06_18h11.03.603,ImageRatingTask_S3,2021.1.4,Win32,59.91252771,,,,,,,,,
,,,,,,,,,,,,,,,,,,4,22,Female,R,Donders,2021-07-06_18h11.03.603,ImageRatingTask_S3,2021.1.4,Win32,59.91252771,0,3,3,147,1,DreamStudyImages_rs1000x750g/Food/Objects_079_h.jpg,,,
,,5,1.8302,1,4.3172,4,1.6563,0,2.1716,,,0,0,0,0,1,main,4,22,Female,R,Donders,2021-07-06_18h11.03.603,ImageRatingTask_S3,2021.1.4,Win32,59.91252771,,,,,,,,,
,,,,,,,,,,,,0,1,1,1,1,second,4,22,Female,R,Donders,2021-07-06_18h11.03.603,ImageRatingTask_S3,2021.1.4,Win32,59.91252771,,,,,,,,,
,,,,,,,,,,,,0,2,2,2,1,third,4,22,Female,R,Donders,2021-07-06_18h11.03.603,ImageRatingTask_S3,2021.1.4,Win32,59.91252771,,,,,,,,,
,,,,,,,,,,,,0,3,3,3,1,fourth,4,22,Female,R,Donders,2021-07-06_18h11.03.603,ImageRatingTask_S3,2021.1.4,Win32,59.91252771,,,,,,,,,
,,,,,,,,,,,,0,4,4,4,1,fifth,4,22,Female,R,Donders,2021-07-06_18h11.03.603,ImageRatingTask_S3,2021.1.4,Win32,59.91252771,,,,,,,,,
,,,,,,,,,,,,0,5,5,5,1,sixth,4,22,Female,R,Donders,2021-07-06_18h11.03.603,ImageRatingTask_S3,2021.1.4,Win32,59.91252771,,,,,,,,,
,,,,,,,,,,,,0,6,6,6,1,seventh,4,22,Female,R,Donders,2021-07-06_18h11.03.603,ImageRatingTask_S3,2021.1.4,Win32,59.91252771,,,,,,,,,
,,,,,,,,,,,,0,7,7,7,1,last,4,22,Female,R,Donders,2021-07-06_18h11.03.603,ImageRatingTask_S3,2021.1.4,Win32,59.91252771,,,,,,,,,
,,,,,,,,,,,,,,,,,,4,22,Female,R,Donders,2021-07-06_18h11.03.603,ImageRatingTask_S3,2021.1.4,Win32,59.91252771,0,4,4,156,1,DreamStudyImages_rs1000x750g/Houses/IAPS7491_bunker.jpg,,,
,,3,1.8434,5,1.0142,4,2.5584,0,2.3567,,,0,0,0,0,1,main,4,22,Female,R,Donders,2021-07-06_18h11.03.603,ImageRatingTask_S3,2021.1.4,Win32,59.91252771,,,,,,,,,
,,,,,,,,,,,,0,1,1,1,1,second,4,22,Female,R,Donders,2021-07-06_18h11.03.603,ImageRatingTask_S3,2021.1.4,Win32,59.91252771,,,,,,,,,
,,,,,,,,,,,,0,2,2,2,1,third,4,22,Female,R,Donders,2021-07-06_18h11.03.603,ImageRatingTask_S3,2021.1.4,Win32,59.91252771,,,,,,,,,
,,,,,,,,,,,,0,3,3,3,1,fourth,4,22,Female,R,Donders,2021-07-06_18h11.03.603,ImageRatingTask_S3,2021.1.4,Win32,59.91252771,,,,,,,,,
,,,,,,,,,,,,0,4,4,4,1,fifth,4,22,Female,R,Donders,2021-07-06_18h11.03.603,ImageRatingTask_S3,2021.1.4,Win32,59.91252771,,,,,,,,,
,,,,,,,,,,,,0,5,5,5,1,sixth,4,22,Female,R,Donders,2021-07-06_18h11.03.603,ImageRatingTask_S3,2021.1.4,Win32,59.91252771,,,,,,,,,
,,,,,,,,,,,,0,6,6,6,1,seventh,4,22,Female,R,Donders,2021-07-06_18h11.03.603,ImageRatingTask_S3,2021.1.4,Win32,59.91252771,,,,,,,,,
,,,,,,,,,,,,0,7,7,7,1,last,4,22,Female,R,Donders,2021-07-06_18h11.03.603,ImageRatingTask_S3,2021.1.4,Win32,59.91252771,,,,,,,,,
,,,,,,,,,,,,,,,,,,4,22,Female,R,Donders,2021-07-06_18h11.03.603,ImageRatingTask_S3,2021.1.4,Win32,59.91252771,0,5,5,43,1,DreamStudyImages_rs1000x750g/Water/Garbage dump 2.jpg,,,
,,7,2.8867,5,1.399,8,1.8734,1,1,2,0.2545,0,0,0,0,1,main,4,22,Female,R,Donders,2021-07-06_18h11.03.603,ImageRatingTask_S3,2021.1.4,Win32,59.91252771,,,,,,,,,
,,,,,,,,,,,,0,1,1,1,1,second,4,22,Female,R,Donders,2021-07-06_18h11.03.603,ImageRatingTask_S3,2021.1.4,Win32,59.91252771,,,,,,,,,
,,,,,,,,,,,,0,2,2,2,1,third,4,22,Female,R,Donders,2021-07-06_18h11.03.603,ImageRatingTask_S3,2021.1.4,Win32,59.91252771,,,,,,,,,
,,,,,,,,,,,,0,3,3,3,1,fourth,4,22,Female,R,Donders,2021-07-06_18h11.03.603,ImageRatingTask_S3,2021.1.4,Win32,59.91252771,,,,,,,,,
,,,,,,,,,,,,0,4,4,4,1,fifth,4,22,Female,R,Donders,2021-07-06_18h11.03.603,ImageRatingTask_S3,2021.1.4,Win32,59.91252771,,,,,,,,,
,,,,,,,,,,,,0,5,5,5,1,sixth,4,22,Female,R,Donders,2021-07-06_18h11.03.603,ImageRatingTask_S3,2021.1.4,Win32,59.91252771,,,,,,,,,
,,,,,,,,,,,,0,6,6,6,1,seventh,4,22,Female,R,Donders,2021-07-06_18h11.03.603,ImageRatingTask_S3,2021.1.4,Win32,59.91252771,,,,,,,,,
,,,,,,,,,,,,0,7,7,7,1,last,4,22,Female,R,Donders,2021-07-06_18h11.03.603,ImageRatingTask_S3,2021.1.4,Win32,59.91252771,,,,,,,,,
,,,,,,,,,,,,,,,,,,4,22,Female,R,Donders,2021-07-06_18h11.03.603,ImageRatingTask_S3,2021.1.4,Win32,59.91252771,0,6,6,20,1,DreamStudyImages_rs1000x750g/Children/Faces_120_h.jpg,,,
,,5,1.8444,1,1.1288,1,0.0763,1,2.7662,6,1.6547,0,0,0,0,1,main,4,22,Female,R,Donders,2021-07-06_18h11.03.603,ImageRatingTask_S3,2021.1.4,Win32,59.91252771,,,,,,,,,
,,,,,,,,,,,,0,1,1,1,1,second,4,22,Female,R,Donders,2021-07-06_18h11.03.603,ImageRatingTask_S3,2021.1.4,Win32,59.91252771,,,,,,,,,
,,,,,,,,,,,,0,2,2,2,1,third,4,22,Female,R,Donders,2021-07-06_18h11.03.603,ImageRatingTask_S3,2021.1.4,Win32,59.91252771,,,,,,,,,
,,,,,,,,,,,,0,3,3,3,1,fourth,4,22,Female,R,Donders,2021-07-06_18h11.03.603,ImageRatingTask_S3,2021.1.4,Win32,59.91252771,,,,,,,,,
,,,,,,,,,,,,0,4,4,4,1,fifth,4,22,Female,R,Donders,2021-07-06_18h11.03.603,ImageRatingTask_S3,2021.1.4,Win32,59.91252771,,,,,,,,,
,,,,,,,,,,,,0,5,5,5,1,sixth,4,22,Female,R,Donders,2021-07-06_18h11.03.603,ImageRatingTask_S3,2021.1.4,Win32,59.91252771,,,,,,,,,
,,,,,,,,,,,,0,6,6,6,1,seventh,4,22,Female,R,Donders,2021-07-06_18h11.03.603,ImageRatingTask_S3,2021.1.4,Win32,59.91252771,,,,,,,,,
,,,,,,,,,,,,0,7,7,7,1,last,4,22,Female,R,Donders,2021-07-06_18h11.03.603,ImageRatingTask_S3,2021.1.4,Win32,59.91252771,,,,,,,,,
,,,,,,,,,,,,,,,,,,4,22,Female,R,Donders,2021-07-06_18h11.03.603,ImageRatingTask_S3,2021.1.4,Win32,59.91252771,0,7,7,108,1,DreamStudyImages_rs1000x750g/Houses/7530.jpg,,,
,,6,2.1474,2,2.4406,6,1.7623,1,1.4604,2,0.2281,0,0,0,0,1,main,4,22,Female,R,Donders,2021-07-06_18h11.03.603,ImageRatingTask_S3,2021.1.4,Win32,59.91252771,,,,,,,,,
,,,,,,,,,,,,0,1,1,1,1,second,4,22,Female,R,Donders,2021-07-06_18h11.03.603,ImageRatingTask_S3,2021.1.4,Win32,59.91252771,,,,,,,,,
,,,,,,,,,,,,0,2,2,2,1,third,4,22,Female,R,Donders,2021-07-06_18h11.03.603,ImageRatingTask_S3,2021.1.4,Win32,59.91252771,,,,,,,,,
,,,,,,,,,,,,0,3,3,3,1,fourth,4,22,Female,R,Donders,2021-07-06_18h11.03.603,ImageRatingTask_S3,2021.1.4,Win32,59.91252771,,,,,,,,,
,,,,,,,,,,,,0,4,4,4,1,fifth,4,22,Female,R,Donders,2021-07-06_18h11.03.603,ImageRatingTask_S3,2021.1.4,Win32,59.91252771,,,,,,,,,
,,,,,,,,,,,,0,5,5,5,1,sixth,4,22,Female,R,Donders,2021-07-06_18h11.03.603,ImageRatingTask_S3,2021.1.4,Win32,59.91252771,,,,,,,,,
,,,,,,,,,,,,0,6,6,6,1,seventh,4,22,Female,R,Donders,2021-07-06_18h11.03.603,ImageRatingTask_S3,2021.1.4,Win32,59.91252771,,,,,,,,,
,,,,,,,,,,,,0,7,7,7,1,last,4,22,Female,R,Donders,2021-07-06_18h11.03.603,ImageRatingTask_S3,2021.1.4,Win32,59.91252771,,,,,,,,,
,,,,,,,,,,,,,,,,,,4,22,Female,R,Donders,2021-07-06_18h11.03.603,ImageRatingTask_S3,2021.1.4,Win32,59.91252771,0,8,8,79,1,DreamStudyImages_rs1000x750g/Children/Faces_122_h.jpg,,,
,,5,1.832,2,2.194,6,4.1749,1,1.2501,7,0.65,0,0,0,0,1,main,4,22,Female,R,Donders,2021-07-06_18h11.03.603,ImageRatingTask_S3,2021.1.4,Win32,59.91252771,,,,,,,,,
,,,,,,,,,,,,0,1,1,1,1,second,4,22,Female,R,Donders,2021-07-06_18h11.03.603,ImageRatingTask_S3,2021.1.4,Win32,59.91252771,,,,,,,,,
,,,,,,,,,,,,0,2,2,2,1,third,4,22,Female,R,Donders,2021-07-06_18h11.03.603,ImageRatingTask_S3,2021.1.4,Win32,59.91252771,,,,,,,,,
,,,,,,,,,,,,0,3,3,3,1,fourth,4,22,Female,R,Donders,2021-07-06_18h11.03.603,ImageRatingTask_S3,2021.1.4,Win32,59.91252771,,,,,,,,,
,,,,,,,,,,,,0,4,4,4,1,fifth,4,22,Female,R,Donders,2021-07-06_18h11.03.603,ImageRatingTask_S3,2021.1.4,Win32,59.91252771,,,,,,,,,
,,,,,,,,,,,,0,5,5,5,1,sixth,4,22,Female,R,Donders,2021-07-06_18h11.03.603,ImageRatingTask_S3,2021.1.4,Win32,59.91252771,,,,,,,,,
,,,,,,,,,,,,0,6,6,6,1,seventh,4,22,Female,R,Donders,2021-07-06_18h11.03.603,ImageRatingTask_S3,2021.1.4,Win32,59.91252771,,,,,,,,,
,,,,,,,,,,,,0,7,7,7,1,last,4,22,Female,R,Donders,2021-07-06_18h11.03.603,ImageRatingTask_S3,2021.1.4,Win32,59.91252771,,,,,,,,,
,,,,,,,,,,,,,,,,,,4,22,Female,R,Donders,2021-07-06_18h11.03.603,ImageRatingTask_S3,2021.1.4,Win32,59.91252771,0,9,9,105,1,DreamStudyImages_rs1000x750g/Vehicles/monstertruck.jpg,,,
,,7,3.3938,2,1.3404,6,1.6938,1,1.3153,2,0.1599,0,0,0,0,1,main,4,22,Female,R,Donders,2021-07-06_18h11.03.603,ImageRatingTask_S3,2021.1.4,Win32,59.91252771,,,,,,,,,
,,,,,,,,,,,,0,1,1,1,1,second,4,22,Female,R,Donders,2021-07-06_18h11.03.603,ImageRatingTask_S3,2021.1.4,Win32,59.91252771,,,,,,,,,
,,,,,,,,,,,,0,2,2,2,1,third,4,22,Female,R,Donders,2021-07-06_18h11.03.603,ImageRatingTask_S3,2021.1.4,Win32,59.91252771,,,,,,,,,
,,,,,,,,,,,,0,3,3,3,1,fourth,4,22,Female,R,Donders,2021-07-06_18h11.03.603,ImageRatingTask_S3,2021.1.4,Win32,59.91252771,,,,,,,,,
,,,,,,,,,,,,0,4,4,4,1,fifth,4,22,Female,R,Donders,2021-07-06_18h11.03.603,ImageRatingTask_S3,2021.1.4,Win32,59.91252771,,,,,,,,,
,,,,,,,,,,,,0,5,5,5,1,sixth,4,22,Female,R,Donders,2021-07-06_18h11.03.603,ImageRatingTask_S3,2021.1.4,Win32,59.91252771,,,,,,,,,
,,,,,,,,,,,,0,6,6,6,1,seventh,4,22,Female,R,Donders,2021-07-06_18h11.03.603,ImageRatingTask_S3,2021.1.4,Win32,59.91252771,,,,,,,,,
,,,,,,,,,,,,0,7,7,7,1,last,4,22,Female,R,Donders,2021-07-06_18h11.03.603,ImageRatingTask_S3,2021.1.4,Win32,59.91252771,,,,,,,,,
,,,,,,,,,,,,,,,,,,4,22,Female,R,Donders,2021-07-06_18h11.03.603,ImageRatingTask_S3,2021.1.4,Win32,59.91252771,0,10,10,56,1,DreamStudyImages_rs1000x750g/Children/Faces_050_h.jpg,,,
,,4,6.5232,4,1.2978,6,1.9164,1,1.0743,3,0.4668,0,0,0,0,1,main,4,22,Female,R,Donders,2021-07-06_18h11.03.603,ImageRatingTask_S3,2021.1.4,Win32,59.91252771,,,,,,,,,
,,,,,,,,,,,,0,1,1,1,1,second,4,22,Female,R,Donders,2021-07-06_18h11.03.603,ImageRatingTask_S3,2021.1.4,Win32,59.91252771,,,,,,,,,
,,,,,,,,,,,,0,2,2,2,1,third,4,22,Female,R,Donders,2021-07-06_18h11.03.603,ImageRatingTask_S3,2021.1.4,Win32,59.91252771,,,,,,,,,
,,,,,,,,,,,,0,3,3,3,1,fourth,4,22,Female,R,Donders,2021-07-06_18h11.03.603,ImageRatingTask_S3,2021.1.4,Win32,59.91252771,,,,,,,,,
,,,,,,,,,,,,0,4,4,4,1,fifth,4,22,Female,R,Donders,2021-07-06_18h11.03.603,ImageRatingTask_S3,2021.1.4,Win32,59.91252771,,,,,,,,,
,,,,,,,,,,,,0,5,5,5,1,sixth,4,22,Female,R,Donders,2021-07-06_18h11.03.603,ImageRatingTask_S3,2021.1.4,Win32,59.91252771,,,,,,,,,
,,,,,,,,,,,,0,6,6,6,1,seventh,4,22,Female,R,Donders,2021-07-06_18h11.03.603,ImageRatingTask_S3,2021.1.4,Win32,59.91252771,,,,,,,,,
,,,,,,,,,,,,0,7,7,7,1,last,4,22,Female,R,Donders,2021-07-06_18h11.03.603,ImageRatingTask_S3,2021.1.4,Win32,59.91252771,,,,,,,,,
,,,,,,,,,,,,,,,,,,4,22,Female,R,Donders,2021-07-06_18h11.03.603,ImageRatingTask_S3,2021.1.4,Win32,59.91252771,0,11,11,151,1,DreamStudyImages_rs1000x750g/Mammals/Animals_061_h.jpg,,,
,,4,3.3733,2,1.7836,5,2.5673,1,1.2277,7,0.8989,0,0,0,0,1,main,4,22,Female,R,Donders,2021-07-06_18h11.03.603,ImageRatingTask_S3,2021.1.4,Win32,59.91252771,,,,,,,,,
,,,,,,,,,,,,0,1,1,1,1,second,4,22,Female,R,Donders,2021-07-06_18h11.03.603,ImageRatingTask_S3,2021.1.4,Win32,59.91252771,,,,,,,,,
,,,,,,,,,,,,0,2,2,2,1,third,4,22,Female,R,Donders,2021-07-06_18h11.03.603,ImageRatingTask_S3,2021.1.4,Win32,59.91252771,,,,,,,,,
,,,,,,,,,,,,0,3,3,3,1,fourth,4,22,Female,R,Donders,2021-07-06_18h11.03.603,ImageRatingTask_S3,2021.1.4,Win32,59.91252771,,,,,,,,,
,,,,,,,,,,,,0,4,4,4,1,fifth,4,22,Female,R,Donders,2021-07-06_18h11.03.603,ImageRatingTask_S3,2021.1.4,Win32,59.91252771,,,,,,,,,
,,,,,,,,,,,,0,5,5,5,1,sixth,4,22,Female,R,Donders,2021-07-06_18h11.03.603,ImageRatingTask_S3,2021.1.4,Win32,59.91252771,,,,,,,,,
,,,,,,,,,,,,0,6,6,6,1,seventh,4,22,Female,R,Donders,2021-07-06_18h11.03.603,ImageRatingTask_S3,2021.1.4,Win32,59.91252771,,,,,,,,,
,,,,,,,,,,,,0,7,7,7,1,last,4,22,Female,R,Donders,2021-07-06_18h11.03.603,ImageRatingTask_S3,2021.1.4,Win32,59.91252771,,,,,,,,,
,,,,,,,,,,,,,,,,,,4,22,Female,R,Donders,2021-07-06_18h11.03.603,ImageRatingTask_S3,2021.1.4,Win32,59.91252771,0,12,12,102,1,DreamStudyImages_rs1000x750g/Vehicles/Objects_004_h.jpg,,,
,,4,3.3225,6,1.3644,4,3.1071,1,1.4002,5,0.479,0,0,0,0,1,main,4,22,Female,R,Donders,2021-07-06_18h11.03.603,ImageRatingTask_S3,2021.1.4,Win32,59.91252771,,,,,,,,,
,,,,,,,,,,,,0,1,1,1,1,second,4,22,Female,R,Donders,2021-07-06_18h11.03.603,ImageRatingTask_S3,2021.1.4,Win32,59.91252771,,,,,,,,,
,,,,,,,,,,,,0,2,2,2,1,third,4,22,Female,R,Donders,2021-07-06_18h11.03.603,ImageRatingTask_S3,2021.1.4,Win32,59.91252771,,,,,,,,,
,,,,,,,,,,,,0,3,3,3,1,fourth,4,22,Female,R,Donders,2021-07-06_18h11.03.603,ImageRatingTask_S3,2021.1.4,Win32,59.91252771,,,,,,,,,
,,,,,,,,,,,,0,4,4,4,1,fifth,4,22,Female,R,Donders,2021-07-06_18h11.03.603,ImageRatingTask_S3,2021.1.4,Win32,59.91252771,,,,,,,,,
,,,,,,,,,,,,0,5,5,5,1,sixth,4,22,Female,R,Donders,2021-07-06_18h11.03.603,ImageRatingTask_S3,2021.1.4,Win32,59.91252771,,,,,,,,,
,,,,,,,,,,,,0,6,6,6,1,seventh,4,22,Female,R,Donders,2021-07-06_18h11.03.603,ImageRatingTask_S3,2021.1.4,Win32,59.91252771,,,,,,,,,
,,,,,,,,,,,,0,7,7,7,1,last,4,22,Female,R,Donders,2021-07-06_18h11.03.603,ImageRatingTask_S3,2021.1.4,Win32,59.91252771,,,,,,,,,
,,,,,,,,,,,,,,,,,,4,22,Female,R,Donders,2021-07-06_18h11.03.603,ImageRatingTask_S3,2021.1.4,Win32,59.91252771,0,13,13,80,1,DreamStudyImages_rs1000x750g/Food/IAPS7284_apricots.jpg,,,
,,6,117.3482,1,2.604,8,1.9967,1,2.4879,6,0.6905,0,0,0,0,1,main,4,22,Female,R,Donders,2021-07-06_18h11.03.603,ImageRatingTask_S3,2021.1.4,Win32,59.91252771,,,,,,,,,
,,,,,,,,,,,,0,1,1,1,1,second,4,22,Female,R,Donders,2021-07-06_18h11.03.603,ImageRatingTask_S3,2021.1.4,Win32,59.91252771,,,,,,,,,
,,,,,,,,,,,,0,2,2,2,1,third,4,22,Female,R,Donders,2021-07-06_18h11.03.603,ImageRatingTask_S3,2021.1.4,Win32,59.91252771,,,,,,,,,
,,,,,,,,,,,,0,3,3,3,1,fourth,4,22,Female,R,Donders,2021-07-06_18h11.03.603,ImageRatingTask_S3,2021.1.4,Win32,59.91252771,,,,,,,,,
,,,,,,,,,,,,0,4,4,4,1,fifth,4,22,Female,R,Donders,2021-07-06_18h11.03.603,ImageRatingTask_S3,2021.1.4,Win32,59.91252771,,,,,,,,,
,,,,,,,,,,,,0,5,5,5,1,sixth,4,22,Female,R,Donders,2021-07-06_18h11.03.603,ImageRatingTask_S3,2021.1.4,Win32,59.91252771,,,,,,,,,
,,,,,,,,,,,,0,6,6,6,1,seventh,4,22,Female,R,Donders,2021-07-06_18h11.03.603,ImageRatingTask_S3,2021.1.4,Win32,59.91252771,,,,,,,,,
,,,,,,,,,,,,0,7,7,7,1,last,4,22,Female,R,Donders,2021-07-06_18h11.03.603,ImageRatingTask_S3,2021.1.4,Win32,59.91252771,,,,,,,,,
,,,,,,,,,,,,,,,,,,4,22,Female,R,Donders,2021-07-06_18h11.03.603,ImageRatingTask_S3,2021.1.4,Win32,59.91252771,0,14,14,89,1,DreamStudyImages_rs1000x750g/Houses/Landscapes_094_h.jpg,,,
,,6,2.5729,1,1.2589,7,2.9905,1,0.8902,8,0.7754,0,0,0,0,1,main,4,22,Female,R,Donders,2021-07-06_18h11.03.603,ImageRatingTask_S3,2021.1.4,Win32,59.91252771,,,,,,,,,
,,,,,,,,,,,,0,1,1,1,1,second,4,22,Female,R,Donders,2021-07-06_18h11.03.603,ImageRatingTask_S3,2021.1.4,Win32,59.91252771,,,,,,,,,
,,,,,,,,,,,,0,2,2,2,1,third,4,22,Female,R,Donders,2021-07-06_18h11.03.603,ImageRatingTask_S3,2021.1.4,Win32,59.91252771,,,,,,,,,
,,,,,,,,,,,,0,3,3,3,1,fourth,4,22,Female,R,Donders,2021-07-06_18h11.03.603,ImageRatingTask_S3,2021.1.4,Win32,59.91252771,,,,,,,,,
,,,,,,,,,,,,0,4,4,4,1,fifth,4,22,Female,R,Donders,2021-07-06_18h11.03.603,ImageRatingTask_S3,2021.1.4,Win32,59.91252771,,,,,,,,,
,,,,,,,,,,,,0,5,5,5,1,sixth,4,22,Female,R,Donders,2021-07-06_18h11.03.603,ImageRatingTask_S3,2021.1.4,Win32,59.91252771,,,,,,,,,
,,,,,,,,,,,,0,6,6,6,1,seventh,4,22,Female,R,Donders,2021-07-06_18h11.03.603,ImageRatingTask_S3,2021.1.4,Win32,59.91252771,,,,,,,,,
,,,,,,,,,,,,0,7,7,7,1,last,4,22,Female,R,Donders,2021-07-06_18h11.03.603,ImageRatingTask_S3,2021.1.4,Win32,59.91252771,,,,,,,,,
,,,,,,,,,,,,,,,,,,4,22,Female,R,Donders,2021-07-06_18h11.03.603,ImageRatingTask_S3,2021.1.4,Win32,59.91252771,0,15,15,76,1,DreamStudyImages_rs1000x750g/Water/ocean.jpg,,,
,,6,3.5704,1,3.14,8,2.8067,1,1.0414,8,1.1071,0,0,0,0,1,main,4,22,Female,R,Donders,2021-07-06_18h11.03.603,ImageRatingTask_S3,2021.1.4,Win32,59.91252771,,,,,,,,,
,,,,,,,,,,,,0,1,1,1,1,second,4,22,Female,R,Donders,2021-07-06_18h11.03.603,ImageRatingTask_S3,2021.1.4,Win32,59.91252771,,,,,,,,,
,,,,,,,,,,,,0,2,2,2,1,third,4,22,Female,R,Donders,2021-07-06_18h11.03.603,ImageRatingTask_S3,2021.1.4,Win32,59.91252771,,,,,,,,,
,,,,,,,,,,,,0,3,3,3,1,fourth,4,22,Female,R,Donders,2021-07-06_18h11.03.603,ImageRatingTask_S3,2021.1.4,Win32,59.91252771,,,,,,,,,
,,,,,,,,,,,,0,4,4,4,1,fifth,4,22,Female,R,Donders,2021-07-06_18h11.03.603,ImageRatingTask_S3,2021.1.4,Win32,59.91252771,,,,,,,,,
,,,,,,,,,,,,0,5,5,5,1,sixth,4,22,Female,R,Donders,2021-07-06_18h11.03.603,ImageRatingTask_S3,2021.1.4,Win32,59.91252771,,,,,,,,,
,,,,,,,,,,,,0,6,6,6,1,seventh,4,22,Female,R,Donders,2021-07-06_18h11.03.603,ImageRatingTask_S3,2021.1.4,Win32,59.91252771,,,,,,,,,
,,,,,,,,,,,,0,7,7,7,1,last,4,22,Female,R,Donders,2021-07-06_18h11.03.603,ImageRatingTask_S3,2021.1.4,Win32,59.91252771,,,,,,,,,
,,,,,,,,,,,,,,,,,,4,22,Female,R,Donders,2021-07-06_18h11.03.603,ImageRatingTask_S3,2021.1.4,Win32,59.91252771,0,16,16,0,1,DreamStudyImages_rs1000x750g/Water/naturepool.jpg,,,
,,4,38.3759,2,2.0775,4,1.7414,1,1.5883,7,0.7746,0,0,0,0,1,main,4,22,Female,R,Donders,2021-07-06_18h11.03.603,ImageRatingTask_S3,2021.1.4,Win32,59.91252771,,,,,,,,,
,,,,,,,,,,,,0,1,1,1,1,second,4,22,Female,R,Donders,2021-07-06_18h11.03.603,ImageRatingTask_S3,2021.1.4,Win32,59.91252771,,,,,,,,,
,,,,,,,,,,,,0,2,2,2,1,third,4,22,Female,R,Donders,2021-07-06_18h11.03.603,ImageRatingTask_S3,2021.1.4,Win32,59.91252771,,,,,,,,,
,,,,,,,,,,,,0,3,3,3,1,fourth,4,22,Female,R,Donders,2021-07-06_18h11.03.603,ImageRatingTask_S3,2021.1.4,Win32,59.91252771,,,,,,,,,
,,,,,,,,,,,,0,4,4,4,1,fifth,4,22,Female,R,Donders,2021-07-06_18h11.03.603,ImageRatingTask_S3,2021.1.4,Win32,59.91252771,,,,,,,,,
,,,,,,,,,,,,0,5,5,5,1,sixth,4,22,Female,R,Donders,2021-07-06_18h11.03.603,ImageRatingTask_S3,2021.1.4,Win32,59.91252771,,,,,,,,,
,,,,,,,,,,,,0,6,6,6,1,seventh,4,22,Female,R,Donders,2021-07-06_18h11.03.603,ImageRatingTask_S3,2021.1.4,Win32,59.91252771,,,,,,,,,
,,,,,,,,,,,,0,7,7,7,1,last,4,22,Female,R,Donders,2021-07-06_18h11.03.603,ImageRatingTask_S3,2021.1.4,Win32,59.91252771,,,,,,,,,
,,,,,,,,,,,,,,,,,,4,22,Female,R,Donders,2021-07-06_18h11.03.603,ImageRatingTask_S3,2021.1.4,Win32,59.91252771,0,17,17,59,1,DreamStudyImages_rs1000x750g/Vehicles/IAPS7095_carlight.jpg,,,
,,5,2.1568,1,1.4102,7,1.5502,1,0.7118,7,0.8998,0,0,0,0,1,main,4,22,Female,R,Donders,2021-07-06_18h11.03.603,ImageRatingTask_S3,2021.1.4,Win32,59.91252771,,,,,,,,,
,,,,,,,,,,,,0,1,1,1,1,second,4,22,Female,R,Donders,2021-07-06_18h11.03.603,ImageRatingTask_S3,2021.1.4,Win32,59.91252771,,,,,,,,,
,,,,,,,,,,,,0,2,2,2,1,third,4,22,Female,R,Donders,2021-07-06_18h11.03.603,ImageRatingTask_S3,2021.1.4,Win32,59.91252771,,,,,,,,,
,,,,,,,,,,,,0,3,3,3,1,fourth,4,22,Female,R,Donders,2021-07-06_18h11.03.603,ImageRatingTask_S3,2021.1.4,Win32,59.91252771,,,,,,,,,
,,,,,,,,,,,,0,4,4,4,1,fifth,4,22,Female,R,Donders,2021-07-06_18h11.03.603,ImageRatingTask_S3,2021.1.4,Win32,59.91252771,,,,,,,,,
,,,,,,,,,,,,0,5,5,5,1,sixth,4,22,Female,R,Donders,2021-07-06_18h11.03.603,ImageRatingTask_S3,2021.1.4,Win32,59.91252771,,,,,,,,,
,,,,,,,,,,,,0,6,6,6,1,seventh,4,22,Female,R,Donders,2021-07-06_18h11.03.603,ImageRatingTask_S3,2021.1.4,Win32,59.91252771,,,,,,,,,
,,,,,,,,,,,,0,7,7,7,1,last,4,22,Female,R,Donders,2021-07-06_18h11.03.603,ImageRatingTask_S3,2021.1.4,Win32,59.91252771,,,,,,,,,
,,,,,,,,,,,,,,,,,,4,22,Female,R,Donders,2021-07-06_18h11.03.603,ImageRatingTask_S3,2021.1.4,Win32,59.91252771,0,18,18,158,1,DreamStudyImages_rs1000x750g/Vehicles/Objects_323_h.jpg,,,
,,3,2.4449,5,1.0678,5,2.4861,1,0.9989,5,0.4418,0,0,0,0,1,main,4,22,Female,R,Donders,2021-07-06_18h11.03.603,ImageRatingTask_S3,2021.1.4,Win32,59.91252771,,,,,,,,,
,,,,,,,,,,,,0,1,1,1,1,second,4,22,Female,R,Donders,2021-07-06_18h11.03.603,ImageRatingTask_S3,2021.1.4,Win32,59.91252771,,,,,,,,,
,,,,,,,,,,,,0,2,2,2,1,third,4,22,Female,R,Donders,2021-07-06_18h11.03.603,ImageRatingTask_S3,2021.1.4,Win32,59.91252771,,,,,,,,,
,,,,,,,,,,,,0,3,3,3,1,fourth,4,22,Female,R,Donders,2021-07-06_18h11.03.603,ImageRatingTask_S3,2021.1.4,Win32,59.91252771,,,,,,,,,
,,,,,,,,,,,,0,4,4,4,1,fifth,4,22,Female,R,Donders,2021-07-06_18h11.03.603,ImageRatingTask_S3,2021.1.4,Win32,59.91252771,,,,,,,,,
,,,,,,,,,,,,0,5,5,5,1,sixth,4,22,Female,R,Donders,2021-07-06_18h11.03.603,ImageRatingTask_S3,2021.1.4,Win32,59.91252771,,,,,,,,,
,,,,,,,,,,,,0,6,6,6,1,seventh,4,22,Female,R,Donders,2021-07-06_18h11.03.603,ImageRatingTask_S3,2021.1.4,Win32,59.91252771,,,,,,,,,
,,,,,,,,,,,,0,7,7,7,1,last,4,22,Female,R,Donders,2021-07-06_18h11.03.603,ImageRatingTask_S3,2021.1.4,Win32,59.91252771,,,,,,,,,
,,,,,,,,,,,,,,,,,,4,22,Female,R,Donders,2021-07-06_18h11.03.603,ImageRatingTask_S3,2021.1.4,Win32,59.91252771,0,19,19,84,1,DreamStudyImages_rs1000x750g/Food/IAPS7289_diner2.jpg,,,
,,7,2.2224,2,1.7556,6,2.8743,2,2.6345,2,1.3189,0,0,0,0,1,main,4,22,Female,R,Donders,2021-07-06_18h11.03.603,ImageRatingTask_S3,2021.1.4,Win32,59.91252771,,,,,,,,,
,,,,,,,,,,1,0.4928,0,1,1,1,1,second,4,22,Female,R,Donders,2021-07-06_18h11.03.603,ImageRatingTask_S3,2021.1.4,Win32,59.91252771,,,,,,,,,
,,,,,,,,,,,,0,2,2,2,1,third,4,22,Female,R,Donders,2021-07-06_18h11.03.603,ImageRatingTask_S3,2021.1.4,Win32,59.91252771,,,,,,,,,
,,,,,,,,,,,,0,3,3,3,1,fourth,4,22,Female,R,Donders,2021-07-06_18h11.03.603,ImageRatingTask_S3,2021.1.4,Win32,59.91252771,,,,,,,,,
,,,,,,,,,,,,0,4,4,4,1,fifth,4,22,Female,R,Donders,2021-07-06_18h11.03.603,ImageRatingTask_S3,2021.1.4,Win32,59.91252771,,,,,,,,,
,,,,,,,,,,,,0,5,5,5,1,sixth,4,22,Female,R,Donders,2021-07-06_18h11.03.603,ImageRatingTask_S3,2021.1.4,Win32,59.91252771,,,,,,,,,
,,,,,,,,,,,,0,6,6,6,1,seventh,4,22,Female,R,Donders,2021-07-06_18h11.03.603,ImageRatingTask_S3,2021.1.4,Win32,59.91252771,,,,,,,,,
,,,,,,,,,,,,0,7,7,7,1,last,4,22,Female,R,Donders,2021-07-06_18h11.03.603,ImageRatingTask_S3,2021.1.4,Win32,59.91252771,,,,,,,,,
,,,,,,,,,,,,,,,,,,4,22,Female,R,Donders,2021-07-06_18h11.03.603,ImageRatingTask_S3,2021.1.4,Win32,59.91252771,0,20,20,148,1,DreamStudyImages_rs1000x750g/Children/People_043_h.jpg,,,
,,5,6.2481,1,1.2722,6,1.9998,1,1.1832,8,0.6569,0,0,0,0,1,main,4,22,Female,R,Donders,2021-07-06_18h11.03.603,ImageRatingTask_S3,2021.1.4,Win32,59.91252771,,,,,,,,,
,,,,,,,,,,,,0,1,1,1,1,second,4,22,Female,R,Donders,2021-07-06_18h11.03.603,ImageRatingTask_S3,2021.1.4,Win32,59.91252771,,,,,,,,,
,,,,,,,,,,,,0,2,2,2,1,third,4,22,Female,R,Donders,2021-07-06_18h11.03.603,ImageRatingTask_S3,2021.1.4,Win32,59.91252771,,,,,,,,,
,,,,,,,,,,,,0,3,3,3,1,fourth,4,22,Female,R,Donders,2021-07-06_18h11.03.603,ImageRatingTask_S3,2021.1.4,Win32,59.91252771,,,,,,,,,
,,,,,,,,,,,,0,4,4,4,1,fifth,4,22,Female,R,Donders,2021-07-06_18h11.03.603,ImageRatingTask_S3,2021.1.4,Win32,59.91252771,,,,,,,,,
,,,,,,,,,,,,0,5,5,5,1,sixth,4,22,Female,R,Donders,2021-07-06_18h11.03.603,ImageRatingTask_S3,2021.1.4,Win32,59.91252771,,,,,,,,,
,,,,,,,,,,,,0,6,6,6,1,seventh,4,22,Female,R,Donders,2021-07-06_18h11.03.603,ImageRatingTask_S3,2021.1.4,Win32,59.91252771,,,,,,,,,
,,,,,,,,,,,,0,7,7,7,1,last,4,22,Female,R,Donders,2021-07-06_18h11.03.603,ImageRatingTask_S3,2021.1.4,Win32,59.91252771,,,,,,,,,
,,,,,,,,,,,,,,,,,,4,22,Female,R,Donders,2021-07-06_18h11.03.603,ImageRatingTask_S3,2021.1.4,Win32,59.91252771,0,21,21,117,1,DreamStudyImages_rs1000x750g/Water/NDPS122_bluelake.jpg,,,
,,5,3.2987,3,1.303,6,2.3554,1,0.9562,5,0.5924,0,0,0,0,1,main,4,22,Female,R,Donders,2021-07-06_18h11.03.603,ImageRatingTask_S3,2021.1.4,Win32,59.91252771,,,,,,,,,
,,,,,,,,,,,,0,1,1,1,1,second,4,22,Female,R,Donders,2021-07-06_18h11.03.603,ImageRatingTask_S3,2021.1.4,Win32,59.91252771,,,,,,,,,
,,,,,,,,,,,,0,2,2,2,1,third,4,22,Female,R,Donders,2021-07-06_18h11.03.603,ImageRatingTask_S3,2021.1.4,Win32,59.91252771,,,,,,,,,
,,,,,,,,,,,,0,3,3,3,1,fourth,4,22,Female,R,Donders,2021-07-06_18h11.03.603,ImageRatingTask_S3,2021.1.4,Win32,59.91252771,,,,,,,,,
,,,,,,,,,,,,0,4,4,4,1,fifth,4,22,Female,R,Donders,2021-07-06_18h11.03.603,ImageRatingTask_S3,2021.1.4,Win32,59.91252771,,,,,,,,,
,,,,,,,,,,,,0,5,5,5,1,sixth,4,22,Female,R,Donders,2021-07-06_18h11.03.603,ImageRatingTask_S3,2021.1.4,Win32,59.91252771,,,,,,,,,
,,,,,,,,,,,,0,6,6,6,1,seventh,4,22,Female,R,Donders,2021-07-06_18h11.03.603,ImageRatingTask_S3,2021.1.4,Win32,59.91252771,,,,,,,,,
,,,,,,,,,,,,0,7,7,7,1,last,4,22,Female,R,Donders,2021-07-06_18h11.03.603,ImageRatingTask_S3,2021.1.4,Win32,59.91252771,,,,,,,,,
,,,,,,,,,,,,,,,,,,4,22,Female,R,Donders,2021-07-06_18h11.03.603,ImageRatingTask_S3,2021.1.4,Win32,59.91252771,0,22,22,46,1,DreamStudyImages_rs1000x750g/Food/Objects_072_v.jpg,,,
,,2,3.4112,4,1.1885,2,1.609,1,1.0336,3,0.7165,0,0,0,0,1,main,4,22,Female,R,Donders,2021-07-06_18h11.03.603,ImageRatingTask_S3,2021.1.4,Win32,59.91252771,,,,,,,,,
,,,,,,,,,,,,0,1,1,1,1,second,4,22,Female,R,Donders,2021-07-06_18h11.03.603,ImageRatingTask_S3,2021.1.4,Win32,59.91252771,,,,,,,,,
,,,,,,,,,,,,0,2,2,2,1,third,4,22,Female,R,Donders,2021-07-06_18h11.03.603,ImageRatingTask_S3,2021.1.4,Win32,59.91252771,,,,,,,,,
,,,,,,,,,,,,0,3,3,3,1,fourth,4,22,Female,R,Donders,2021-07-06_18h11.03.603,ImageRatingTask_S3,2021.1.4,Win32,59.91252771,,,,,,,,,
,,,,,,,,,,,,0,4,4,4,1,fifth,4,22,Female,R,Donders,2021-07-06_18h11.03.603,ImageRatingTask_S3,2021.1.4,Win32,59.91252771,,,,,,,,,
,,,,,,,,,,,,0,5,5,5,1,sixth,4,22,Female,R,Donders,2021-07-06_18h11.03.603,ImageRatingTask_S3,2021.1.4,Win32,59.91252771,,,,,,,,,
,,,,,,,,,,,,0,6,6,6,1,seventh,4,22,Female,R,Donders,2021-07-06_18h11.03.603,ImageRatingTask_S3,2021.1.4,Win32,59.91252771,,,,,,,,,
,,,,,,,,,,,,0,7,7,7,1,last,4,22,Female,R,Donders,2021-07-06_18h11.03.603,ImageRatingTask_S3,2021.1.4,Win32,59.91252771,,,,,,,,,
,,,,,,,,,,,,,,,,,,4,22,Female,R,Donders,2021-07-06_18h11.03.603,ImageRatingTask_S3,2021.1.4,Win32,59.91252771,0,23,23,141,1,DreamStudyImages_rs1000x750g/Mammals/IAPS1304_dog5.jpg,,,
,,4,2.4492,4,1.36,6,1.9496,1,1.0402,2,0.1899,0,0,0,0,1,main,4,22,Female,R,Donders,2021-07-06_18h11.03.603,ImageRatingTask_S3,2021.1.4,Win32,59.91252771,,,,,,,,,
,,,,,,,,,,,,0,1,1,1,1,second,4,22,Female,R,Donders,2021-07-06_18h11.03.603,ImageRatingTask_S3,2021.1.4,Win32,59.91252771,,,,,,,,,
,,,,,,,,,,,,0,2,2,2,1,third,4,22,Female,R,Donders,2021-07-06_18h11.03.603,ImageRatingTask_S3,2021.1.4,Win32,59.91252771,,,,,,,,,
,,,,,,,,,,,,0,3,3,3,1,fourth,4,22,Female,R,Donders,2021-07-06_18h11.03.603,ImageRatingTask_S3,2021.1.4,Win32,59.91252771,,,,,,,,,
,,,,,,,,,,,,0,4,4,4,1,fifth,4,22,Female,R,Donders,2021-07-06_18h11.03.603,ImageRatingTask_S3,2021.1.4,Win32,59.91252771,,,,,,,,,
,,,,,,,,,,,,0,5,5,5,1,sixth,4,22,Female,R,Donders,2021-07-06_18h11.03.603,ImageRatingTask_S3,2021.1.4,Win32,59.91252771,,,,,,,,,
,,,,,,,,,,,,0,6,6,6,1,seventh,4,22,Female,R,Donders,2021-07-06_18h11.03.603,ImageRatingTask_S3,2021.1.4,Win32,59.91252771,,,,,,,,,
,,,,,,,,,,,,0,7,7,7,1,last,4,22,Female,R,Donders,2021-07-06_18h11.03.603,ImageRatingTask_S3,2021.1.4,Win32,59.91252771,,,,,,,,,
,,,,,,,,,,,,,,,,,,4,22,Female,R,Donders,2021-07-06_18h11.03.603,ImageRatingTask_S3,2021.1.4,Win32,59.91252771,0,24,24,52,1,DreamStudyImages_rs1000x750g/Children/Faces_005_h.jpg,,,
,,5,2.0929,1,0.9423,6,1.6528,1,1.0957,7,0.7061,0,0,0,0,1,main,4,22,Female,R,Donders,2021-07-06_18h11.03.603,ImageRatingTask_S3,2021.1.4,Win32,59.91252771,,,,,,,,,
,,,,,,,,,,,,0,1,1,1,1,second,4,22,Female,R,Donders,2021-07-06_18h11.03.603,ImageRatingTask_S3,2021.1.4,Win32,59.91252771,,,,,,,,,
,,,,,,,,,,,,0,2,2,2,1,third,4,22,Female,R,Donders,2021-07-06_18h11.03.603,ImageRatingTask_S3,2021.1.4,Win32,59.91252771,,,,,,,,,
,,,,,,,,,,,,0,3,3,3,1,fourth,4,22,Female,R,Donders,2021-07-06_18h11.03.603,ImageRatingTask_S3,2021.1.4,Win32,59.91252771,,,,,,,,,
,,,,,,,,,,,,0,4,4,4,1,fifth,4,22,Female,R,Donders,2021-07-06_18h11.03.603,ImageRatingTask_S3,2021.1.4,Win32,59.91252771,,,,,,,,,
,,,,,,,,,,,,0,5,5,5,1,sixth,4,22,Female,R,Donders,2021-07-06_18h11.03.603,ImageRatingTask_S3,2021.1.4,Win32,59.91252771,,,,,,,,,
,,,,,,,,,,,,0,6,6,6,1,seventh,4,22,Female,R,Donders,2021-07-06_18h11.03.603,ImageRatingTask_S3,2021.1.4,Win32,59.91252771,,,,,,,,,
,,,,,,,,,,,,0,7,7,7,1,last,4,22,Female,R,Donders,2021-07-06_18h11.03.603,ImageRatingTask_S3,2021.1.4,Win32,59.91252771,,,,,,,,,
,,,,,,,,,,,,,,,,,,4,22,Female,R,Donders,2021-07-06_18h11.03.603,ImageRatingTask_S3,2021.1.4,Win32,59.91252771,0,25,25,34,1,DreamStudyImages_rs1000x750g/Vehicles/Objects_314_h.jpg,,,
,,3,2.679,2,1.6962,5,2.582,1,1.1569,7,0.6832,0,0,0,0,1,main,4,22,Female,R,Donders,2021-07-06_18h11.03.603,ImageRatingTask_S3,2021.1.4,Win32,59.91252771,,,,,,,,,
,,,,,,,,,,,,0,1,1,1,1,second,4,22,Female,R,Donders,2021-07-06_18h11.03.603,ImageRatingTask_S3,2021.1.4,Win32,59.91252771,,,,,,,,,
,,,,,,,,,,,,0,2,2,2,1,third,4,22,Female,R,Donders,2021-07-06_18h11.03.603,ImageRatingTask_S3,2021.1.4,Win32,59.91252771,,,,,,,,,
,,,,,,,,,,,,0,3,3,3,1,fourth,4,22,Female,R,Donders,2021-07-06_18h11.03.603,ImageRatingTask_S3,2021.1.4,Win32,59.91252771,,,,,,,,,
,,,,,,,,,,,,0,4,4,4,1,fifth,4,22,Female,R,Donders,2021-07-06_18h11.03.603,ImageRatingTask_S3,2021.1.4,Win32,59.91252771,,,,,,,,,
,,,,,,,,,,,,0,5,5,5,1,sixth,4,22,Female,R,Donders,2021-07-06_18h11.03.603,ImageRatingTask_S3,2021.1.4,Win32,59.91252771,,,,,,,,,
,,,,,,,,,,,,0,6,6,6,1,seventh,4,22,Female,R,Donders,2021-07-06_18h11.03.603,ImageRatingTask_S3,2021.1.4,Win32,59.91252771,,,,,,,,,
,,,,,,,,,,,,0,7,7,7,1,last,4,22,Female,R,Donders,2021-07-06_18h11.03.603,ImageRatingTask_S3,2021.1.4,Win32,59.91252771,,,,,,,,,
,,,,,,,,,,,,,,,,,,4,22,Female,R,Donders,2021-07-06_18h11.03.603,ImageRatingTask_S3,2021.1.4,Win32,59.91252771,0,26,26,139,1,DreamStudyImages_rs1000x750g/Vehicles/Plane crash 4.jpg,,,
,,1,4.1504,7,1.8953,6,2.3852,0,4.7147,,,0,0,0,0,1,main,4,22,Female,R,Donders,2021-07-06_18h11.03.603,ImageRatingTask_S3,2021.1.4,Win32,59.91252771,,,,,,,,,
,,,,,,,,,,,,0,1,1,1,1,second,4,22,Female,R,Donders,2021-07-06_18h11.03.603,ImageRatingTask_S3,2021.1.4,Win32,59.91252771,,,,,,,,,
,,,,,,,,,,,,0,2,2,2,1,third,4,22,Female,R,Donders,2021-07-06_18h11.03.603,ImageRatingTask_S3,2021.1.4,Win32,59.91252771,,,,,,,,,
,,,,,,,,,,,,0,3,3,3,1,fourth,4,22,Female,R,Donders,2021-07-06_18h11.03.603,ImageRatingTask_S3,2021.1.4,Win32,59.91252771,,,,,,,,,
,,,,,,,,,,,,0,4,4,4,1,fifth,4,22,Female,R,Donders,2021-07-06_18h11.03.603,ImageRatingTask_S3,2021.1.4,Win32,59.91252771,,,,,,,,,
,,,,,,,,,,,,0,5,5,5,1,sixth,4,22,Female,R,Donders,2021-07-06_18h11.03.603,ImageRatingTask_S3,2021.1.4,Win32,59.91252771,,,,,,,,,
,,,,,,,,,,,,0,6,6,6,1,seventh,4,22,Female,R,Donders,2021-07-06_18h11.03.603,ImageRatingTask_S3,2021.1.4,Win32,59.91252771,,,,,,,,,
,,,,,,,,,,,,0,7,7,7,1,last,4,22,Female,R,Donders,2021-07-06_18h11.03.603,ImageRatingTask_S3,2021.1.4,Win32,59.91252771,,,,,,,,,
,,,,,,,,,,,,,,,,,,4,22,Female,R,Donders,2021-07-06_18h11.03.603,ImageRatingTask_S3,2021.1.4,Win32,59.91252771,0,27,27,54,1,DreamStudyImages_rs1000x750g/Food/Objects_023_v.jpg,,,
,,4,2.5244,4,1.841,7,2.2835,0,3.8415,,,0,0,0,0,1,main,4,22,Female,R,Donders,2021-07-06_18h11.03.603,ImageRatingTask_S3,2021.1.4,Win32,59.91252771,,,,,,,,,
,,,,,,,,,,,,0,1,1,1,1,second,4,22,Female,R,Donders,2021-07-06_18h11.03.603,ImageRatingTask_S3,2021.1.4,Win32,59.91252771,,,,,,,,,
,,,,,,,,,,,,0,2,2,2,1,third,4,22,Female,R,Donders,2021-07-06_18h11.03.603,ImageRatingTask_S3,2021.1.4,Win32,59.91252771,,,,,,,,,
,,,,,,,,,,,,0,3,3,3,1,fourth,4,22,Female,R,Donders,2021-07-06_18h11.03.603,ImageRatingTask_S3,2021.1.4,Win32,59.91252771,,,,,,,,,
,,,,,,,,,,,,0,4,4,4,1,fifth,4,22,Female,R,Donders,2021-07-06_18h11.03.603,ImageRatingTask_S3,2021.1.4,Win32,59.91252771,,,,,,,,,
,,,,,,,,,,,,0,5,5,5,1,sixth,4,22,Female,R,Donders,2021-07-06_18h11.03.603,ImageRatingTask_S3,2021.1.4,Win32,59.91252771,,,,,,,,,
,,,,,,,,,,,,0,6,6,6,1,seventh,4,22,Female,R,Donders,2021-07-06_18h11.03.603,ImageRatingTask_S3,2021.1.4,Win32,59.91252771,,,,,,,,,
,,,,,,,,,,,,0,7,7,7,1,last,4,22,Female,R,Donders,2021-07-06_18h11.03.603,ImageRatingTask_S3,2021.1.4,Win32,59.91252771,,,,,,,,,
,,,,,,,,,,,,,,,,,,4,22,Female,R,Donders,2021-07-06_18h11.03.603,ImageRatingTask_S3,2021.1.4,Win32,59.91252771,0,28,28,110,1,DreamStudyImages_rs1000x750g/Vehicles/People_012_h.jpg,,,
,,5,2.487,5,1.4414,6,5.0068,1,1.0394,7,0.8332,0,0,0,0,1,main,4,22,Female,R,Donders,2021-07-06_18h11.03.603,ImageRatingTask_S3,2021.1.4,Win32,59.91252771,,,,,,,,,
,,,,,,,,,,,,0,1,1,1,1,second,4,22,Female,R,Donders,2021-07-06_18h11.03.603,ImageRatingTask_S3,2021.1.4,Win32,59.91252771,,,,,,,,,
,,,,,,,,,,,,0,2,2,2,1,third,4,22,Female,R,Donders,2021-07-06_18h11.03.603,ImageRatingTask_S3,2021.1.4,Win32,59.91252771,,,,,,,,,
,,,,,,,,,,,,0,3,3,3,1,fourth,4,22,Female,R,Donders,2021-07-06_18h11.03.603,ImageRatingTask_S3,2021.1.4,Win32,59.91252771,,,,,,,,,
,,,,,,,,,,,,0,4,4,4,1,fifth,4,22,Female,R,Donders,2021-07-06_18h11.03.603,ImageRatingTask_S3,2021.1.4,Win32,59.91252771,,,,,,,,,
,,,,,,,,,,,,0,5,5,5,1,sixth,4,22,Female,R,Donders,2021-07-06_18h11.03.603,ImageRatingTask_S3,2021.1.4,Win32,59.91252771,,,,,,,,,
,,,,,,,,,,,,0,6,6,6,1,seventh,4,22,Female,R,Donders,2021-07-06_18h11.03.603,ImageRatingTask_S3,2021.1.4,Win32,59.91252771,,,,,,,,,
,,,,,,,,,,,,0,7,7,7,1,last,4,22,Female,R,Donders,2021-07-06_18h11.03.603,ImageRatingTask_S3,2021.1.4,Win32,59.91252771,,,,,,,,,
,,,,,,,,,,,,,,,,,,4,22,Female,R,Donders,2021-07-06_18h11.03.603,ImageRatingTask_S3,2021.1.4,Win32,59.91252771,0,29,29,32,1,DreamStudyImages_rs1000x750g/Vehicles/Objects_282_h.jpg,,,
,,6,2.3396,1,1.3697,7,2.0562,1,1.042,8,1.2334,0,0,0,0,1,main,4,22,Female,R,Donders,2021-07-06_18h11.03.603,ImageRatingTask_S3,2021.1.4,Win32,59.91252771,,,,,,,,,
,,,,,,,,,,,,0,1,1,1,1,second,4,22,Female,R,Donders,2021-07-06_18h11.03.603,ImageRatingTask_S3,2021.1.4,Win32,59.91252771,,,,,,,,,
,,,,,,,,,,,,0,2,2,2,1,third,4,22,Female,R,Donders,2021-07-06_18h11.03.603,ImageRatingTask_S3,2021.1.4,Win32,59.91252771,,,,,,,,,
,,,,,,,,,,,,0,3,3,3,1,fourth,4,22,Female,R,Donders,2021-07-06_18h11.03.603,ImageRatingTask_S3,2021.1.4,Win32,59.91252771,,,,,,,,,
,,,,,,,,,,,,0,4,4,4,1,fifth,4,22,Female,R,Donders,2021-07-06_18h11.03.603,ImageRatingTask_S3,2021.1.4,Win32,59.91252771,,,,,,,,,
,,,,,,,,,,,,0,5,5,5,1,sixth,4,22,Female,R,Donders,2021-07-06_18h11.03.603,ImageRatingTask_S3,2021.1.4,Win32,59.91252771,,,,,,,,,
,,,,,,,,,,,,0,6,6,6,1,seventh,4,22,Female,R,Donders,2021-07-06_18h11.03.603,ImageRatingTask_S3,2021.1.4,Win32,59.91252771,,,,,,,,,
,,,,,,,,,,,,0,7,7,7,1,last,4,22,Female,R,Donders,2021-07-06_18h11.03.603,ImageRatingTask_S3,2021.1.4,Win32,59.91252771,,,,,,,,,
,,,,,,,,,,,,,,,,,,4,22,Female,R,Donders,2021-07-06_18h11.03.603,ImageRatingTask_S3,2021.1.4,Win32,59.91252771,0,30,30,145,1,DreamStudyImages_rs1000x750g/Water/lakepontoon_CROPPED.jpg,,,
,,5,2.9112,1,1.1236,7,1.7066,1,1.094,3,1.2563,0,0,0,0,1,main,4,22,Female,R,Donders,2021-07-06_18h11.03.603,ImageRatingTask_S3,2021.1.4,Win32,59.91252771,,,,,,,,,
,,,,,,,,,,,,0,1,1,1,1,second,4,22,Female,R,Donders,2021-07-06_18h11.03.603,ImageRatingTask_S3,2021.1.4,Win32,59.91252771,,,,,,,,,
,,,,,,,,,,,,0,2,2,2,1,third,4,22,Female,R,Donders,2021-07-06_18h11.03.603,ImageRatingTask_S3,2021.1.4,Win32,59.91252771,,,,,,,,,
,,,,,,,,,,,,0,3,3,3,1,fourth,4,22,Female,R,Donders,2021-07-06_18h11.03.603,ImageRatingTask_S3,2021.1.4,Win32,59.91252771,,,,,,,,,
,,,,,,,,,,,,0,4,4,4,1,fifth,4,22,Female,R,Donders,2021-07-06_18h11.03.603,ImageRatingTask_S3,2021.1.4,Win32,59.91252771,,,,,,,,,
,,,,,,,,,,,,0,5,5,5,1,sixth,4,22,Female,R,Donders,2021-07-06_18h11.03.603,ImageRatingTask_S3,2021.1.4,Win32,59.91252771,,,,,,,,,
,,,,,,,,,,,,0,6,6,6,1,seventh,4,22,Female,R,Donders,2021-07-06_18h11.03.603,ImageRatingTask_S3,2021.1.4,Win32,59.91252771,,,,,,,,,
,,,,,,,,,,,,0,7,7,7,1,last,4,22,Female,R,Donders,2021-07-06_18h11.03.603,ImageRatingTask_S3,2021.1.4,Win32,59.91252771,,,,,,,,,
,,,,,,,,,,,,,,,,,,4,22,Female,R,Donders,2021-07-06_18h11.03.603,ImageRatingTask_S3,2021.1.4,Win32,59.91252771,0,31,31,63,1,DreamStudyImages_rs1000x750g/Mammals/Animals_126_h.jpg,,,
,,6,2.7267,2,4.2964,6,2.6832,1,1.011,3,1.2692,0,0,0,0,1,main,4,22,Female,R,Donders,2021-07-06_18h11.03.603,ImageRatingTask_S3,2021.1.4,Win32,59.91252771,,,,,,,,,
,,,,,,,,,,,,0,1,1,1,1,second,4,22,Female,R,Donders,2021-07-06_18h11.03.603,ImageRatingTask_S3,2021.1.4,Win32,59.91252771,,,,,,,,,
,,,,,,,,,,,,0,2,2,2,1,third,4,22,Female,R,Donders,2021-07-06_18h11.03.603,ImageRatingTask_S3,2021.1.4,Win32,59.91252771,,,,,,,,,
,,,,,,,,,,,,0,3,3,3,1,fourth,4,22,Female,R,Donders,2021-07-06_18h11.03.603,ImageRatingTask_S3,2021.1.4,Win32,59.91252771,,,,,,,,,
,,,,,,,,,,,,0,4,4,4,1,fifth,4,22,Female,R,Donders,2021-07-06_18h11.03.603,ImageRatingTask_S3,2021.1.4,Win32,59.91252771,,,,,,,,,
,,,,,,,,,,,,0,5,5,5,1,sixth,4,22,Female,R,Donders,2021-07-06_18h11.03.603,ImageRatingTask_S3,2021.1.4,Win32,59.91252771,,,,,,,,,
,,,,,,,,,,,,0,6,6,6,1,seventh,4,22,Female,R,Donders,2021-07-06_18h11.03.603,ImageRatingTask_S3,2021.1.4,Win32,59.91252771,,,,,,,,,
,,,,,,,,,,,,0,7,7,7,1,last,4,22,Female,R,Donders,2021-07-06_18h11.03.603,ImageRatingTask_S3,2021.1.4,Win32,59.91252771,,,,,,,,,
,,,,,,,,,,,,,,,,,,4,22,Female,R,Donders,2021-07-06_18h11.03.603,ImageRatingTask_S3,2021.1.4,Win32,59.91252771,0,32,32,72,1,DreamStudyImages_rs1000x750g/Mammals/Animals_197_h.jpg,,,
,,5,3.1459,2,2.5958,5,1.5264,1,1.0234,6,0.6196,0,0,0,0,1,main,4,22,Female,R,Donders,2021-07-06_18h11.03.603,ImageRatingTask_S3,2021.1.4,Win32,59.91252771,,,,,,,,,
,,,,,,,,,,,,0,1,1,1,1,second,4,22,Female,R,Donders,2021-07-06_18h11.03.603,ImageRatingTask_S3,2021.1.4,Win32,59.91252771,,,,,,,,,
,,,,,,,,,,,,0,2,2,2,1,third,4,22,Female,R,Donders,2021-07-06_18h11.03.603,ImageRatingTask_S3,2021.1.4,Win32,59.91252771,,,,,,,,,
,,,,,,,,,,,,0,3,3,3,1,fourth,4,22,Female,R,Donders,2021-07-06_18h11.03.603,ImageRatingTask_S3,2021.1.4,Win32,59.91252771,,,,,,,,,
,,,,,,,,,,,,0,4,4,4,1,fifth,4,22,Female,R,Donders,2021-07-06_18h11.03.603,ImageRatingTask_S3,2021.1.4,Win32,59.91252771,,,,,,,,,
,,,,,,,,,,,,0,5,5,5,1,sixth,4,22,Female,R,Donders,2021-07-06_18h11.03.603,ImageRatingTask_S3,2021.1.4,Win32,59.91252771,,,,,,,,,
,,,,,,,,,,,,0,6,6,6,1,seventh,4,22,Female,R,Donders,2021-07-06_18h11.03.603,ImageRatingTask_S3,2021.1.4,Win32,59.91252771,,,,,,,,,
,,,,,,,,,,,,0,7,7,7,1,last,4,22,Female,R,Donders,2021-07-06_18h11.03.603,ImageRatingTask_S3,2021.1.4,Win32,59.91252771,,,,,,,,,
,,,,,,,,,,,,,,,,,,4,22,Female,R,Donders,2021-07-06_18h11.03.603,ImageRatingTask_S3,2021.1.4,Win32,59.91252771,0,33,33,24,1,DreamStudyImages_rs1000x750g/Houses/IAPS7180_entrance.jpg,,,
,,5,4.1415,1,1.983,6,1.8603,1,0.9915,7,0.5728,0,0,0,0,1,main,4,22,Female,R,Donders,2021-07-06_18h11.03.603,ImageRatingTask_S3,2021.1.4,Win32,59.91252771,,,,,,,,,
,,,,,,,,,,,,0,1,1,1,1,second,4,22,Female,R,Donders,2021-07-06_18h11.03.603,ImageRatingTask_S3,2021.1.4,Win32,59.91252771,,,,,,,,,
,,,,,,,,,,,,0,2,2,2,1,third,4,22,Female,R,Donders,2021-07-06_18h11.03.603,ImageRatingTask_S3,2021.1.4,Win32,59.91252771,,,,,,,,,
,,,,,,,,,,,,0,3,3,3,1,fourth,4,22,Female,R,Donders,2021-07-06_18h11.03.603,ImageRatingTask_S3,2021.1.4,Win32,59.91252771,,,,,,,,,
,,,,,,,,,,,,0,4,4,4,1,fifth,4,22,Female,R,Donders,2021-07-06_18h11.03.603,ImageRatingTask_S3,2021.1.4,Win32,59.91252771,,,,,,,,,
,,,,,,,,,,,,0,5,5,5,1,sixth,4,22,Female,R,Donders,2021-07-06_18h11.03.603,ImageRatingTask_S3,2021.1.4,Win32,59.91252771,,,,,,,,,
,,,,,,,,,,,,0,6,6,6,1,seventh,4,22,Female,R,Donders,2021-07-06_18h11.03.603,ImageRatingTask_S3,2021.1.4,Win32,59.91252771,,,,,,,,,
,,,,,,,,,,,,0,7,7,7,1,last,4,22,Female,R,Donders,2021-07-06_18h11.03.603,ImageRatingTask_S3,2021.1.4,Win32,59.91252771,,,,,,,,,
,,,,,,,,,,,,,,,,,,4,22,Female,R,Donders,2021-07-06_18h11.03.603,ImageRatingTask_S3,2021.1.4,Win32,59.91252771,0,34,34,66,1,DreamStudyImages_rs1000x750g/Vehicles/roadrailvehicle.jpg,,,
,,3,2.0137,2,0.9829,6,3.5494,1,1.0004,2,0.1834,0,0,0,0,1,main,4,22,Female,R,Donders,2021-07-06_18h11.03.603,ImageRatingTask_S3,2021.1.4,Win32,59.91252771,,,,,,,,,
,,,,,,,,,,,,0,1,1,1,1,second,4,22,Female,R,Donders,2021-07-06_18h11.03.603,ImageRatingTask_S3,2021.1.4,Win32,59.91252771,,,,,,,,,
,,,,,,,,,,,,0,2,2,2,1,third,4,22,Female,R,Donders,2021-07-06_18h11.03.603,ImageRatingTask_S3,2021.1.4,Win32,59.91252771,,,,,,,,,
,,,,,,,,,,,,0,3,3,3,1,fourth,4,22,Female,R,Donders,2021-07-06_18h11.03.603,ImageRatingTask_S3,2021.1.4,Win32,59.91252771,,,,,,,,,
,,,,,,,,,,,,0,4,4,4,1,fifth,4,22,Female,R,Donders,2021-07-06_18h11.03.603,ImageRatingTask_S3,2021.1.4,Win32,59.91252771,,,,,,,,,
,,,,,,,,,,,,0,5,5,5,1,sixth,4,22,Female,R,Donders,2021-07-06_18h11.03.603,ImageRatingTask_S3,2021.1.4,Win32,59.91252771,,,,,,,,,
,,,,,,,,,,,,0,6,6,6,1,seventh,4,22,Female,R,Donders,2021-07-06_18h11.03.603,ImageRatingTask_S3,2021.1.4,Win32,59.91252771,,,,,,,,,
,,,,,,,,,,,,0,7,7,7,1,last,4,22,Female,R,Donders,2021-07-06_18h11.03.603,ImageRatingTask_S3,2021.1.4,Win32,59.91252771,,,,,,,,,
,,,,,,,,,,,,,,,,,,4,22,Female,R,Donders,2021-07-06_18h11.03.603,ImageRatingTask_S3,2021.1.4,Win32,59.91252771,0,35,35,88,1,DreamStudyImages_rs1000x750g/Children/Sad face 8.jpg,,,
,,6,2.4731,1,1.1893,6,3.1431,1,1.0096,2,0.35,0,0,0,0,1,main,4,22,Female,R,Donders,2021-07-06_18h11.03.603,ImageRatingTask_S3,2021.1.4,Win32,59.91252771,,,,,,,,,
,,,,,,,,,,,,0,1,1,1,1,second,4,22,Female,R,Donders,2021-07-06_18h11.03.603,ImageRatingTask_S3,2021.1.4,Win32,59.91252771,,,,,,,,,
,,,,,,,,,,,,0,2,2,2,1,third,4,22,Female,R,Donders,2021-07-06_18h11.03.603,ImageRatingTask_S3,2021.1.4,Win32,59.91252771,,,,,,,,,
,,,,,,,,,,,,0,3,3,3,1,fourth,4,22,Female,R,Donders,2021-07-06_18h11.03.603,ImageRatingTask_S3,2021.1.4,Win32,59.91252771,,,,,,,,,
,,,,,,,,,,,,0,4,4,4,1,fifth,4,22,Female,R,Donders,2021-07-06_18h11.03.603,ImageRatingTask_S3,2021.1.4,Win32,59.91252771,,,,,,,,,
,,,,,,,,,,,,0,5,5,5,1,sixth,4,22,Female,R,Donders,2021-07-06_18h11.03.603,ImageRatingTask_S3,2021.1.4,Win32,59.91252771,,,,,,,,,
,,,,,,,,,,,,0,6,6,6,1,seventh,4,22,Female,R,Donders,2021-07-06_18h11.03.603,ImageRatingTask_S3,2021.1.4,Win32,59.91252771,,,,,,,,,
,,,,,,,,,,,,0,7,7,7,1,last,4,22,Female,R,Donders,2021-07-06_18h11.03.603,ImageRatingTask_S3,2021.1.4,Win32,59.91252771,,,,,,,,,
,,,,,,,,,,,,,,,,,,4,22,Female,R,Donders,2021-07-06_18h11.03.603,ImageRatingTask_S3,2021.1.4,Win32,59.91252771,0,36,36,135,1,DreamStudyImages_rs1000x750g/Mammals/IAPS1812_elephants.jpg,,,
,,9,5.5284,6,2.6511,8,3.1509,1,1.4467,3,0.6079,0,0,0,0,1,main,4,22,Female,R,Donders,2021-07-06_18h11.03.603,ImageRatingTask_S3,2021.1.4,Win32,59.91252771,,,,,,,,,
,,,,,,,,,,,,0,1,1,1,1,second,4,22,Female,R,Donders,2021-07-06_18h11.03.603,ImageRatingTask_S3,2021.1.4,Win32,59.91252771,,,,,,,,,
,,,,,,,,,,,,0,2,2,2,1,third,4,22,Female,R,Donders,2021-07-06_18h11.03.603,ImageRatingTask_S3,2021.1.4,Win32,59.91252771,,,,,,,,,
,,,,,,,,,,,,0,3,3,3,1,fourth,4,22,Female,R,Donders,2021-07-06_18h11.03.603,ImageRatingTask_S3,2021.1.4,Win32,59.91252771,,,,,,,,,
,,,,,,,,,,,,0,4,4,4,1,fifth,4,22,Female,R,Donders,2021-07-06_18h11.03.603,ImageRatingTask_S3,2021.1.4,Win32,59.91252771,,,,,,,,,
,,,,,,,,,,,,0,5,5,5,1,sixth,4,22,Female,R,Donders,2021-07-06_18h11.03.603,ImageRatingTask_S3,2021.1.4,Win32,59.91252771,,,,,,,,,
,,,,,,,,,,,,0,6,6,6,1,seventh,4,22,Female,R,Donders,2021-07-06_18h11.03.603,ImageRatingTask_S3,2021.1.4,Win32,59.91252771,,,,,,,,,
,,,,,,,,,,,,0,7,7,7,1,last,4,22,Female,R,Donders,2021-07-06_18h11.03.603,ImageRatingTask_S3,2021.1.4,Win32,59.91252771,,,,,,,,,
,,,,,,,,,,,,,,,,,,4,22,Female,R,Donders,2021-07-06_18h11.03.603,ImageRatingTask_S3,2021.1.4,Win32,59.91252771,0,37,37,70,1,DreamStudyImages_rs1000x750g/Mammals/Animals_175_h.jpg,,,
,,5,2.6733,3,8.456,5,4.4094,1,1.2509,6,0.5165,0,0,0,0,1,main,4,22,Female,R,Donders,2021-07-06_18h11.03.603,ImageRatingTask_S3,2021.1.4,Win32,59.91252771,,,,,,,,,
,,,,,,,,,,,,0,1,1,1,1,second,4,22,Female,R,Donders,2021-07-06_18h11.03.603,ImageRatingTask_S3,2021.1.4,Win32,59.91252771,,,,,,,,,
,,,,,,,,,,,,0,2,2,2,1,third,4,22,Female,R,Donders,2021-07-06_18h11.03.603,ImageRatingTask_S3,2021.1.4,Win32,59.91252771,,,,,,,,,
,,,,,,,,,,,,0,3,3,3,1,fourth,4,22,Female,R,Donders,2021-07-06_18h11.03.603,ImageRatingTask_S3,2021.1.4,Win32,59.91252771,,,,,,,,,
,,,,,,,,,,,,0,4,4,4,1,fifth,4,22,Female,R,Donders,2021-07-06_18h11.03.603,ImageRatingTask_S3,2021.1.4,Win32,59.91252771,,,,,,,,,
,,,,,,,,,,,,0,5,5,5,1,sixth,4,22,Female,R,Donders,2021-07-06_18h11.03.603,ImageRatingTask_S3,2021.1.4,Win32,59.91252771,,,,,,,,,
,,,,,,,,,,,,0,6,6,6,1,seventh,4,22,Female,R,Donders,2021-07-06_18h11.03.603,ImageRatingTask_S3,2021.1.4,Win32,59.91252771,,,,,,,,,
,,,,,,,,,,,,0,7,7,7,1,last,4,22,Female,R,Donders,2021-07-06_18h11.03.603,ImageRatingTask_S3,2021.1.4,Win32,59.91252771,,,,,,,,,
,,,,,,,,,,,,,,,,,,4,22,Female,R,Donders,2021-07-06_18h11.03.603,ImageRatingTask_S3,2021.1.4,Win32,59.91252771,0,38,38,140,1,DreamStudyImages_rs1000x750g/Houses/Landscapes_015_h.jpg,,,
,,1,2.3944,8,1.4659,7,1.8408,1,1.1998,2,0.6003,0,0,0,0,1,main,4,22,Female,R,Donders,2021-07-06_18h11.03.603,ImageRatingTask_S3,2021.1.4,Win32,59.91252771,,,,,,,,,
,,,,,,,,,,,,0,1,1,1,1,second,4,22,Female,R,Donders,2021-07-06_18h11.03.603,ImageRatingTask_S3,2021.1.4,Win32,59.91252771,,,,,,,,,
,,,,,,,,,,,,0,2,2,2,1,third,4,22,Female,R,Donders,2021-07-06_18h11.03.603,ImageRatingTask_S3,2021.1.4,Win32,59.91252771,,,,,,,,,
,,,,,,,,,,,,0,3,3,3,1,fourth,4,22,Female,R,Donders,2021-07-06_18h11.03.603,ImageRatingTask_S3,2021.1.4,Win32,59.91252771,,,,,,,,,
,,,,,,,,,,,,0,4,4,4,1,fifth,4,22,Female,R,Donders,2021-07-06_18h11.03.603,ImageRatingTask_S3,2021.1.4,Win32,59.91252771,,,,,,,,,
,,,,,,,,,,,,0,5,5,5,1,sixth,4,22,Female,R,Donders,2021-07-06_18h11.03.603,ImageRatingTask_S3,2021.1.4,Win32,59.91252771,,,,,,,,,
,,,,,,,,,,,,0,6,6,6,1,seventh,4,22,Female,R,Donders,2021-07-06_18h11.03.603,ImageRatingTask_S3,2021.1.4,Win32,59.91252771,,,,,,,,,
,,,,,,,,,,,,0,7,7,7,1,last,4,22,Female,R,Donders,2021-07-06_18h11.03.603,ImageRatingTask_S3,2021.1.4,Win32,59.91252771,,,,,,,,,
,,,,,,,,,,,,,,,,,,4,22,Female,R,Donders,2021-07-06_18h11.03.603,ImageRatingTask_S3,2021.1.4,Win32,59.91252771,0,39,39,7,1,DreamStudyImages_rs1000x750g/Children/IAPS2345.1_boy7.jpg,,,
,,5,1.7094,1,0.6118,6,1.8445,1,1.3431,6,0.5668,0,0,0,0,1,main,4,22,Female,R,Donders,2021-07-06_18h11.03.603,ImageRatingTask_S3,2021.1.4,Win32,59.91252771,,,,,,,,,
,,,,,,,,,,,,0,1,1,1,1,second,4,22,Female,R,Donders,2021-07-06_18h11.03.603,ImageRatingTask_S3,2021.1.4,Win32,59.91252771,,,,,,,,,
,,,,,,,,,,,,0,2,2,2,1,third,4,22,Female,R,Donders,2021-07-06_18h11.03.603,ImageRatingTask_S3,2021.1.4,Win32,59.91252771,,,,,,,,,
,,,,,,,,,,,,0,3,3,3,1,fourth,4,22,Female,R,Donders,2021-07-06_18h11.03.603,ImageRatingTask_S3,2021.1.4,Win32,59.91252771,,,,,,,,,
,,,,,,,,,,,,0,4,4,4,1,fifth,4,22,Female,R,Donders,2021-07-06_18h11.03.603,ImageRatingTask_S3,2021.1.4,Win32,59.91252771,,,,,,,,,
,,,,,,,,,,,,0,5,5,5,1,sixth,4,22,Female,R,Donders,2021-07-06_18h11.03.603,ImageRatingTask_S3,2021.1.4,Win32,59.91252771,,,,,,,,,
,,,,,,,,,,,,0,6,6,6,1,seventh,4,22,Female,R,Donders,2021-07-06_18h11.03.603,ImageRatingTask_S3,2021.1.4,Win32,59.91252771,,,,,,,,,
,,,,,,,,,,,,0,7,7,7,1,last,4,22,Female,R,Donders,2021-07-06_18h11.03.603,ImageRatingTask_S3,2021.1.4,Win32,59.91252771,,,,,,,,,
,,,,,,,,,,,,,,,,,,4,22,Female,R,Donders,2021-07-06_18h11.03.603,ImageRatingTask_S3,2021.1.4,Win32,59.91252771,0,40,40,44,1,DreamStudyImages_rs1000x750g/Houses/Landscapes_044_h.jpg,,,
,,3,19.3079,2,7.3213,5,2.1237,1,4.0916,6,1.2109,0,0,0,0,1,main,4,22,Female,R,Donders,2021-07-06_18h11.03.603,ImageRatingTask_S3,2021.1.4,Win32,59.91252771,,,,,,,,,
,,,,,,,,,,,,0,1,1,1,1,second,4,22,Female,R,Donders,2021-07-06_18h11.03.603,ImageRatingTask_S3,2021.1.4,Win32,59.91252771,,,,,,,,,
,,,,,,,,,,,,0,2,2,2,1,third,4,22,Female,R,Donders,2021-07-06_18h11.03.603,ImageRatingTask_S3,2021.1.4,Win32,59.91252771,,,,,,,,,
,,,,,,,,,,,,0,3,3,3,1,fourth,4,22,Female,R,Donders,2021-07-06_18h11.03.603,ImageRatingTask_S3,2021.1.4,Win32,59.91252771,,,,,,,,,
,,,,,,,,,,,,0,4,4,4,1,fifth,4,22,Female,R,Donders,2021-07-06_18h11.03.603,ImageRatingTask_S3,2021.1.4,Win32,59.91252771,,,,,,,,,
,,,,,,,,,,,,0,5,5,5,1,sixth,4,22,Female,R,Donders,2021-07-06_18h11.03.603,ImageRatingTask_S3,2021.1.4,Win32,59.91252771,,,,,,,,,
,,,,,,,,,,,,0,6,6,6,1,seventh,4,22,Female,R,Donders,2021-07-06_18h11.03.603,ImageRatingTask_S3,2021.1.4,Win32,59.91252771,,,,,,,,,
,,,,,,,,,,,,0,7,7,7,1,last,4,22,Female,R,Donders,2021-07-06_18h11.03.603,ImageRatingTask_S3,2021.1.4,Win32,59.91252771,,,,,,,,,
,,,,,,,,,,,,,,,,,,4,22,Female,R,Donders,2021-07-06_18h11.03.603,ImageRatingTask_S3,2021.1.4,Win32,59.91252771,0,41,41,9,1,DreamStudyImages_rs1000x750g/Houses/Landscapes_025_h.jpg,,,
,,8,19.4169,4,3.4095,6,4.0919,1,1.2398,2,0.1835,0,0,0,0,1,main,4,22,Female,R,Donders,2021-07-06_18h11.03.603,ImageRatingTask_S3,2021.1.4,Win32,59.91252771,,,,,,,,,
,,,,,,,,,,,,0,1,1,1,1,second,4,22,Female,R,Donders,2021-07-06_18h11.03.603,ImageRatingTask_S3,2021.1.4,Win32,59.91252771,,,,,,,,,
,,,,,,,,,,,,0,2,2,2,1,third,4,22,Female,R,Donders,2021-07-06_18h11.03.603,ImageRatingTask_S3,2021.1.4,Win32,59.91252771,,,,,,,,,
,,,,,,,,,,,,0,3,3,3,1,fourth,4,22,Female,R,Donders,2021-07-06_18h11.03.603,ImageRatingTask_S3,2021.1.4,Win32,59.91252771,,,,,,,,,
,,,,,,,,,,,,0,4,4,4,1,fifth,4,22,Female,R,Donders,2021-07-06_18h11.03.603,ImageRatingTask_S3,2021.1.4,Win32,59.91252771,,,,,,,,,
,,,,,,,,,,,,0,5,5,5,1,sixth,4,22,Female,R,Donders,2021-07-06_18h11.03.603,ImageRatingTask_S3,2021.1.4,Win32,59.91252771,,,,,,,,,
,,,,,,,,,,,,0,6,6,6,1,seventh,4,22,Female,R,Donders,2021-07-06_18h11.03.603,ImageRatingTask_S3,2021.1.4,Win32,59.91252771,,,,,,,,,
,,,,,,,,,,,,0,7,7,7,1,last,4,22,Female,R,Donders,2021-07-06_18h11.03.603,ImageRatingTask_S3,2021.1.4,Win32,59.91252771,,,,,,,,,
,,,,,,,,,,,,,,,,,,4,22,Female,R,Donders,2021-07-06_18h11.03.603,ImageRatingTask_S3,2021.1.4,Win32,59.91252771,0,42,42,68,1,DreamStudyImages_rs1000x750g/Children/IAPS2347_children12.jpg,,,
,,7,5.4755,3,2.0168,5,1.5667,1,2.0649,3,1.1668,0,0,0,0,1,main,4,22,Female,R,Donders,2021-07-06_18h11.03.603,ImageRatingTask_S3,2021.1.4,Win32,59.91252771,,,,,,,,,
,,,,,,,,,,,,0,1,1,1,1,second,4,22,Female,R,Donders,2021-07-06_18h11.03.603,ImageRatingTask_S3,2021.1.4,Win32,59.91252771,,,,,,,,,
,,,,,,,,,,,,0,2,2,2,1,third,4,22,Female,R,Donders,2021-07-06_18h11.03.603,ImageRatingTask_S3,2021.1.4,Win32,59.91252771,,,,,,,,,
,,,,,,,,,,,,0,3,3,3,1,fourth,4,22,Female,R,Donders,2021-07-06_18h11.03.603,ImageRatingTask_S3,2021.1.4,Win32,59.91252771,,,,,,,,,
,,,,,,,,,,,,0,4,4,4,1,fifth,4,22,Female,R,Donders,2021-07-06_18h11.03.603,ImageRatingTask_S3,2021.1.4,Win32,59.91252771,,,,,,,,,
,,,,,,,,,,,,0,5,5,5,1,sixth,4,22,Female,R,Donders,2021-07-06_18h11.03.603,ImageRatingTask_S3,2021.1.4,Win32,59.91252771,,,,,,,,,
,,,,,,,,,,,,0,6,6,6,1,seventh,4,22,Female,R,Donders,2021-07-06_18h11.03.603,ImageRatingTask_S3,2021.1.4,Win32,59.91252771,,,,,,,,,
,,,,,,,,,,,,0,7,7,7,1,last,4,22,Female,R,Donders,2021-07-06_18h11.03.603,ImageRatingTask_S3,2021.1.4,Win32,59.91252771,,,,,,,,,
,,,,,,,,,,,,,,,,,,4,22,Female,R,Donders,2021-07-06_18h11.03.603,ImageRatingTask_S3,2021.1.4,Win32,59.91252771,0,43,43,150,1,DreamStudyImages_rs1000x750g/Mammals/IAPS1750_rabbits.jpg,,,
,,4,2.6708,1,1.5955,5,2.4759,0,1.6613,,,0,0,0,0,1,main,4,22,Female,R,Donders,2021-07-06_18h11.03.603,ImageRatingTask_S3,2021.1.4,Win32,59.91252771,,,,,,,,,
,,,,,,,,,,,,0,1,1,1,1,second,4,22,Female,R,Donders,2021-07-06_18h11.03.603,ImageRatingTask_S3,2021.1.4,Win32,59.91252771,,,,,,,,,
,,,,,,,,,,,,0,2,2,2,1,third,4,22,Female,R,Donders,2021-07-06_18h11.03.603,ImageRatingTask_S3,2021.1.4,Win32,59.91252771,,,,,,,,,
,,,,,,,,,,,,0,3,3,3,1,fourth,4,22,Female,R,Donders,2021-07-06_18h11.03.603,ImageRatingTask_S3,2021.1.4,Win32,59.91252771,,,,,,,,,
,,,,,,,,,,,,0,4,4,4,1,fifth,4,22,Female,R,Donders,2021-07-06_18h11.03.603,ImageRatingTask_S3,2021.1.4,Win32,59.91252771,,,,,,,,,
,,,,,,,,,,,,0,5,5,5,1,sixth,4,22,Female,R,Donders,2021-07-06_18h11.03.603,ImageRatingTask_S3,2021.1.4,Win32,59.91252771,,,,,,,,,
,,,,,,,,,,,,0,6,6,6,1,seventh,4,22,Female,R,Donders,2021-07-06_18h11.03.603,ImageRatingTask_S3,2021.1.4,Win32,59.91252771,,,,,,,,,
,,,,,,,,,,,,0,7,7,7,1,last,4,22,Female,R,Donders,2021-07-06_18h11.03.603,ImageRatingTask_S3,2021.1.4,Win32,59.91252771,,,,,,,,,
,,,,,,,,,,,,,,,,,,4,22,Female,R,Donders,2021-07-06_18h11.03.603,ImageRatingTask_S3,2021.1.4,Win32,59.91252771,0,44,44,41,1,DreamStudyImages_rs1000x750g/Houses/IAPS9623_housefire.jpg,,,
,,2,2.4978,5,1.6731,4,1.609,0,1.9778,,,0,0,0,0,1,main,4,22,Female,R,Donders,2021-07-06_18h11.03.603,ImageRatingTask_S3,2021.1.4,Win32,59.91252771,,,,,,,,,
,,,,,,,,,,,,0,1,1,1,1,second,4,22,Female,R,Donders,2021-07-06_18h11.03.603,ImageRatingTask_S3,2021.1.4,Win32,59.91252771,,,,,,,,,
,,,,,,,,,,,,0,2,2,2,1,third,4,22,Female,R,Donders,2021-07-06_18h11.03.603,ImageRatingTask_S3,2021.1.4,Win32,59.91252771,,,,,,,,,
,,,,,,,,,,,,0,3,3,3,1,fourth,4,22,Female,R,Donders,2021-07-06_18h11.03.603,ImageRatingTask_S3,2021.1.4,Win32,59.91252771,,,,,,,,,
,,,,,,,,,,,,0,4,4,4,1,fifth,4,22,Female,R,Donders,2021-07-06_18h11.03.603,ImageRatingTask_S3,2021.1.4,Win32,59.91252771,,,,,,,,,
,,,,,,,,,,,,0,5,5,5,1,sixth,4,22,Female,R,Donders,2021-07-06_18h11.03.603,ImageRatingTask_S3,2021.1.4,Win32,59.91252771,,,,,,,,,
,,,,,,,,,,,,0,6,6,6,1,seventh,4,22,Female,R,Donders,2021-07-06_18h11.03.603,ImageRatingTask_S3,2021.1.4,Win32,59.91252771,,,,,,,,,
,,,,,,,,,,,,0,7,7,7,1,last,4,22,Female,R,Donders,2021-07-06_18h11.03.603,ImageRatingTask_S3,2021.1.4,Win32,59.91252771,,,,,,,,,
,,,,,,,,,,,,,,,,,,4,22,Female,R,Donders,2021-07-06_18h11.03.603,ImageRatingTask_S3,2021.1.4,Win32,59.91252771,0,45,45,123,1,DreamStudyImages_rs1000x750g/Houses/NDPS61_houses5.jpg,,,
,,4,2.7053,3,1.4897,6,2.1347,1,1.6047,4,0.8496,0,0,0,0,1,main,4,22,Female,R,Donders,2021-07-06_18h11.03.603,ImageRatingTask_S3,2021.1.4,Win32,59.91252771,,,,,,,,,
,,,,,,,,,,,,0,1,1,1,1,second,4,22,Female,R,Donders,2021-07-06_18h11.03.603,ImageRatingTask_S3,2021.1.4,Win32,59.91252771,,,,,,,,,
,,,,,,,,,,,,0,2,2,2,1,third,4,22,Female,R,Donders,2021-07-06_18h11.03.603,ImageRatingTask_S3,2021.1.4,Win32,59.91252771,,,,,,,,,
,,,,,,,,,,,,0,3,3,3,1,fourth,4,22,Female,R,Donders,2021-07-06_18h11.03.603,ImageRatingTask_S3,2021.1.4,Win32,59.91252771,,,,,,,,,
,,,,,,,,,,,,0,4,4,4,1,fifth,4,22,Female,R,Donders,2021-07-06_18h11.03.603,ImageRatingTask_S3,2021.1.4,Win32,59.91252771,,,,,,,,,
,,,,,,,,,,,,0,5,5,5,1,sixth,4,22,Female,R,Donders,2021-07-06_18h11.03.603,ImageRatingTask_S3,2021.1.4,Win32,59.91252771,,,,,,,,,
,,,,,,,,,,,,0,6,6,6,1,seventh,4,22,Female,R,Donders,2021-07-06_18h11.03.603,ImageRatingTask_S3,2021.1.4,Win32,59.91252771,,,,,,,,,
,,,,,,,,,,,,0,7,7,7,1,last,4,22,Female,R,Donders,2021-07-06_18h11.03.603,ImageRatingTask_S3,2021.1.4,Win32,59.91252771,,,,,,,,,
,,,,,,,,,,,,,,,,,,4,22,Female,R,Donders,2021-07-06_18h11.03.603,ImageRatingTask_S3,2021.1.4,Win32,59.91252771,0,46,46,157,1,DreamStudyImages_rs1000x750g/Mammals/Animals_111_h.jpg,,,
,,6,7.8897,1,1.3894,6,2.4,1,0.9929,2,0.1999,0,0,0,0,1,main,4,22,Female,R,Donders,2021-07-06_18h11.03.603,ImageRatingTask_S3,2021.1.4,Win32,59.91252771,,,,,,,,,
,,,,,,,,,,,,0,1,1,1,1,second,4,22,Female,R,Donders,2021-07-06_18h11.03.603,ImageRatingTask_S3,2021.1.4,Win32,59.91252771,,,,,,,,,
,,,,,,,,,,,,0,2,2,2,1,third,4,22,Female,R,Donders,2021-07-06_18h11.03.603,ImageRatingTask_S3,2021.1.4,Win32,59.91252771,,,,,,,,,
,,,,,,,,,,,,0,3,3,3,1,fourth,4,22,Female,R,Donders,2021-07-06_18h11.03.603,ImageRatingTask_S3,2021.1.4,Win32,59.91252771,,,,,,,,,
,,,,,,,,,,,,0,4,4,4,1,fifth,4,22,Female,R,Donders,2021-07-06_18h11.03.603,ImageRatingTask_S3,2021.1.4,Win32,59.91252771,,,,,,,,,
,,,,,,,,,,,,0,5,5,5,1,sixth,4,22,Female,R,Donders,2021-07-06_18h11.03.603,ImageRatingTask_S3,2021.1.4,Win32,59.91252771,,,,,,,,,
,,,,,,,,,,,,0,6,6,6,1,seventh,4,22,Female,R,Donders,2021-07-06_18h11.03.603,ImageRatingTask_S3,2021.1.4,Win32,59.91252771,,,,,,,,,
,,,,,,,,,,,,0,7,7,7,1,last,4,22,Female,R,Donders,2021-07-06_18h11.03.603,ImageRatingTask_S3,2021.1.4,Win32,59.91252771,,,,,,,,,
,,,,,,,,,,,,,,,,,,4,22,Female,R,Donders,2021-07-06_18h11.03.603,ImageRatingTask_S3,2021.1.4,Win32,59.91252771,0,47,47,90,1,DreamStudyImages_rs1000x750g/Children/Faces_116_h.jpg,,,
,,4,1.9245,2,1.3798,5,2.7916,1,1.0892,3,0.2506,0,0,0,0,1,main,4,22,Female,R,Donders,2021-07-06_18h11.03.603,ImageRatingTask_S3,2021.1.4,Win32,59.91252771,,,,,,,,,
,,,,,,,,,,,,0,1,1,1,1,second,4,22,Female,R,Donders,2021-07-06_18h11.03.603,ImageRatingTask_S3,2021.1.4,Win32,59.91252771,,,,,,,,,
,,,,,,,,,,,,0,2,2,2,1,third,4,22,Female,R,Donders,2021-07-06_18h11.03.603,ImageRatingTask_S3,2021.1.4,Win32,59.91252771,,,,,,,,,
,,,,,,,,,,,,0,3,3,3,1,fourth,4,22,Female,R,Donders,2021-07-06_18h11.03.603,ImageRatingTask_S3,2021.1.4,Win32,59.91252771,,,,,,,,,
,,,,,,,,,,,,0,4,4,4,1,fifth,4,22,Female,R,Donders,2021-07-06_18h11.03.603,ImageRatingTask_S3,2021.1.4,Win32,59.91252771,,,,,,,,,
,,,,,,,,,,,,0,5,5,5,1,sixth,4,22,Female,R,Donders,2021-07-06_18h11.03.603,ImageRatingTask_S3,2021.1.4,Win32,59.91252771,,,,,,,,,
,,,,,,,,,,,,0,6,6,6,1,seventh,4,22,Female,R,Donders,2021-07-06_18h11.03.603,ImageRatingTask_S3,2021.1.4,Win32,59.91252771,,,,,,,,,
,,,,,,,,,,,,0,7,7,7,1,last,4,22,Female,R,Donders,2021-07-06_18h11.03.603,ImageRatingTask_S3,2021.1.4,Win32,59.91252771,,,,,,,,,
,,,,,,,,,,,,,,,,,,4,22,Female,R,Donders,2021-07-06_18h11.03.603,ImageRatingTask_S3,2021.1.4,Win32,59.91252771,0,48,48,91,1,DreamStudyImages_rs1000x750g/Mammals/Monkey 3.jpg,,,
,,1,1.9208,6,3.5046,5,11.5205,1,1.6664,2,0.2226,0,0,0,0,1,main,4,22,Female,R,Donders,2021-07-06_18h11.03.603,ImageRatingTask_S3,2021.1.4,Win32,59.91252771,,,,,,,,,
,,,,,,,,,,,,0,1,1,1,1,second,4,22,Female,R,Donders,2021-07-06_18h11.03.603,ImageRatingTask_S3,2021.1.4,Win32,59.91252771,,,,,,,,,
,,,,,,,,,,,,0,2,2,2,1,third,4,22,Female,R,Donders,2021-07-06_18h11.03.603,ImageRatingTask_S3,2021.1.4,Win32,59.91252771,,,,,,,,,
,,,,,,,,,,,,0,3,3,3,1,fourth,4,22,Female,R,Donders,2021-07-06_18h11.03.603,ImageRatingTask_S3,2021.1.4,Win32,59.91252771,,,,,,,,,
,,,,,,,,,,,,0,4,4,4,1,fifth,4,22,Female,R,Donders,2021-07-06_18h11.03.603,ImageRatingTask_S3,2021.1.4,Win32,59.91252771,,,,,,,,,
,,,,,,,,,,,,0,5,5,5,1,sixth,4,22,Female,R,Donders,2021-07-06_18h11.03.603,ImageRatingTask_S3,2021.1.4,Win32,59.91252771,,,,,,,,,
,,,,,,,,,,,,0,6,6,6,1,seventh,4,22,Female,R,Donders,2021-07-06_18h11.03.603,ImageRatingTask_S3,2021.1.4,Win32,59.91252771,,,,,,,,,
,,,,,,,,,,,,0,7,7,7,1,last,4,22,Female,R,Donders,2021-07-06_18h11.03.603,ImageRatingTask_S3,2021.1.4,Win32,59.91252771,,,,,,,,,
,,,,,,,,,,,,,,,,,,4,22,Female,R,Donders,2021-07-06_18h11.03.603,ImageRatingTask_S3,2021.1.4,Win32,59.91252771,0,49,49,64,1,DreamStudyImages_rs1000x750g/Children/People_031_v.jpg,,,
,,6,1.9285,2,1.6712,5,1.3021,1,0.9442,2,0.1571,0,0,0,0,1,main,4,22,Female,R,Donders,2021-07-06_18h11.03.603,ImageRatingTask_S3,2021.1.4,Win32,59.91252771,,,,,,,,,
,,,,,,,,,,,,0,1,1,1,1,second,4,22,Female,R,Donders,2021-07-06_18h11.03.603,ImageRatingTask_S3,2021.1.4,Win32,59.91252771,,,,,,,,,
,,,,,,,,,,,,0,2,2,2,1,third,4,22,Female,R,Donders,2021-07-06_18h11.03.603,ImageRatingTask_S3,2021.1.4,Win32,59.91252771,,,,,,,,,
,,,,,,,,,,,,0,3,3,3,1,fourth,4,22,Female,R,Donders,2021-07-06_18h11.03.603,ImageRatingTask_S3,2021.1.4,Win32,59.91252771,,,,,,,,,
,,,,,,,,,,,,0,4,4,4,1,fifth,4,22,Female,R,Donders,2021-07-06_18h11.03.603,ImageRatingTask_S3,2021.1.4,Win32,59.91252771,,,,,,,,,
,,,,,,,,,,,,0,5,5,5,1,sixth,4,22,Female,R,Donders,2021-07-06_18h11.03.603,ImageRatingTask_S3,2021.1.4,Win32,59.91252771,,,,,,,,,
,,,,,,,,,,,,0,6,6,6,1,seventh,4,22,Female,R,Donders,2021-07-06_18h11.03.603,ImageRatingTask_S3,2021.1.4,Win32,59.91252771,,,,,,,,,
,,,,,,,,,,,,0,7,7,7,1,last,4,22,Female,R,Donders,2021-07-06_18h11.03.603,ImageRatingTask_S3,2021.1.4,Win32,59.91252771,,,,,,,,,
,,,,,,,,,,,,,,,,,,4,22,Female,R,Donders,2021-07-06_18h11.03.603,ImageRatingTask_S3,2021.1.4,Win32,59.91252771,0,50,50,124,1,DreamStudyImages_rs1000x750g/Children/Tickling 1.jpg,,,
,,5,1.6601,1,0.9672,6,1.7331,1,1.1165,6,1.1565,0,0,0,0,1,main,4,22,Female,R,Donders,2021-07-06_18h11.03.603,ImageRatingTask_S3,2021.1.4,Win32,59.91252771,,,,,,,,,
,,,,,,,,,,,,0,1,1,1,1,second,4,22,Female,R,Donders,2021-07-06_18h11.03.603,ImageRatingTask_S3,2021.1.4,Win32,59.91252771,,,,,,,,,
,,,,,,,,,,,,0,2,2,2,1,third,4,22,Female,R,Donders,2021-07-06_18h11.03.603,ImageRatingTask_S3,2021.1.4,Win32,59.91252771,,,,,,,,,
,,,,,,,,,,,,0,3,3,3,1,fourth,4,22,Female,R,Donders,2021-07-06_18h11.03.603,ImageRatingTask_S3,2021.1.4,Win32,59.91252771,,,,,,,,,
,,,,,,,,,,,,0,4,4,4,1,fifth,4,22,Female,R,Donders,2021-07-06_18h11.03.603,ImageRatingTask_S3,2021.1.4,Win32,59.91252771,,,,,,,,,
,,,,,,,,,,,,0,5,5,5,1,sixth,4,22,Female,R,Donders,2021-07-06_18h11.03.603,ImageRatingTask_S3,2021.1.4,Win32,59.91252771,,,,,,,,,
,,,,,,,,,,,,0,6,6,6,1,seventh,4,22,Female,R,Donders,2021-07-06_18h11.03.603,ImageRatingTask_S3,2021.1.4,Win32,59.91252771,,,,,,,,,
,,,,,,,,,,,,0,7,7,7,1,last,4,22,Female,R,Donders,2021-07-06_18h11.03.603,ImageRatingTask_S3,2021.1.4,Win32,59.91252771,,,,,,,,,
,,,,,,,,,,,,,,,,,,4,22,Female,R,Donders,2021-07-06_18h11.03.603,ImageRatingTask_S3,2021.1.4,Win32,59.91252771,0,51,51,125,1,DreamStudyImages_rs1000x750g/Houses/Landscapes_024_v.jpg,,,
,,5,3.9154,2,1.3303,6,2.0926,0,1.6498,,,0,0,0,0,1,main,4,22,Female,R,Donders,2021-07-06_18h11.03.603,ImageRatingTask_S3,2021.1.4,Win32,59.91252771,,,,,,,,,
,,,,,,,,,,,,0,1,1,1,1,second,4,22,Female,R,Donders,2021-07-06_18h11.03.603,ImageRatingTask_S3,2021.1.4,Win32,59.91252771,,,,,,,,,
,,,,,,,,,,,,0,2,2,2,1,third,4,22,Female,R,Donders,2021-07-06_18h11.03.603,ImageRatingTask_S3,2021.1.4,Win32,59.91252771,,,,,,,,,
,,,,,,,,,,,,0,3,3,3,1,fourth,4,22,Female,R,Donders,2021-07-06_18h11.03.603,ImageRatingTask_S3,2021.1.4,Win32,59.91252771,,,,,,,,,
,,,,,,,,,,,,0,4,4,4,1,fifth,4,22,Female,R,Donders,2021-07-06_18h11.03.603,ImageRatingTask_S3,2021.1.4,Win32,59.91252771,,,,,,,,,
,,,,,,,,,,,,0,5,5,5,1,sixth,4,22,Female,R,Donders,2021-07-06_18h11.03.603,ImageRatingTask_S3,2021.1.4,Win32,59.91252771,,,,,,,,,
,,,,,,,,,,,,0,6,6,6,1,seventh,4,22,Female,R,Donders,2021-07-06_18h11.03.603,ImageRatingTask_S3,2021.1.4,Win32,59.91252771,,,,,,,,,
,,,,,,,,,,,,0,7,7,7,1,last,4,22,Female,R,Donders,2021-07-06_18h11.03.603,ImageRatingTask_S3,2021.1.4,Win32,59.91252771,,,,,,,,,
,,,,,,,,,,,,,,,,,,4,22,Female,R,Donders,2021-07-06_18h11.03.603,ImageRatingTask_S3,2021.1.4,Win32,59.91252771,0,52,52,42,1,DreamStudyImages_rs1000x750g/Houses/Landscapes_035_v.jpg,,,
,,3,2.2985,6,0.9504,5,2.892,1,1.2242,2,0.1945,0,0,0,0,1,main,4,22,Female,R,Donders,2021-07-06_18h11.03.603,ImageRatingTask_S3,2021.1.4,Win32,59.91252771,,,,,,,,,
,,,,,,,,,,,,0,1,1,1,1,second,4,22,Female,R,Donders,2021-07-06_18h11.03.603,ImageRatingTask_S3,2021.1.4,Win32,59.91252771,,,,,,,,,
,,,,,,,,,,,,0,2,2,2,1,third,4,22,Female,R,Donders,2021-07-06_18h11.03.603,ImageRatingTask_S3,2021.1.4,Win32,59.91252771,,,,,,,,,
,,,,,,,,,,,,0,3,3,3,1,fourth,4,22,Female,R,Donders,2021-07-06_18h11.03.603,ImageRatingTask_S3,2021.1.4,Win32,59.91252771,,,,,,,,,
,,,,,,,,,,,,0,4,4,4,1,fifth,4,22,Female,R,Donders,2021-07-06_18h11.03.603,ImageRatingTask_S3,2021.1.4,Win32,59.91252771,,,,,,,,,
,,,,,,,,,,,,0,5,5,5,1,sixth,4,22,Female,R,Donders,2021-07-06_18h11.03.603,ImageRatingTask_S3,2021.1.4,Win32,59.91252771,,,,,,,,,
,,,,,,,,,,,,0,6,6,6,1,seventh,4,22,Female,R,Donders,2021-07-06_18h11.03.603,ImageRatingTask_S3,2021.1.4,Win32,59.91252771,,,,,,,,,
,,,,,,,,,,,,0,7,7,7,1,last,4,22,Female,R,Donders,2021-07-06_18h11.03.603,ImageRatingTask_S3,2021.1.4,Win32,59.91252771,,,,,,,,,
,,,,,,,,,,,,,,,,,,4,22,Female,R,Donders,2021-07-06_18h11.03.603,ImageRatingTask_S3,2021.1.4,Win32,59.91252771,0,53,53,132,1,DreamStudyImages_rs1000x750g/Children/War 1.jpg,,,
,,7,2.4559,2,1.0773,5,1.7906,1,1.1401,3,0.2549,0,0,0,0,1,main,4,22,Female,R,Donders,2021-07-06_18h11.03.603,ImageRatingTask_S3,2021.1.4,Win32,59.91252771,,,,,,,,,
,,,,,,,,,,,,0,1,1,1,1,second,4,22,Female,R,Donders,2021-07-06_18h11.03.603,ImageRatingTask_S3,2021.1.4,Win32,59.91252771,,,,,,,,,
,,,,,,,,,,,,0,2,2,2,1,third,4,22,Female,R,Donders,2021-07-06_18h11.03.603,ImageRatingTask_S3,2021.1.4,Win32,59.91252771,,,,,,,,,
,,,,,,,,,,,,0,3,3,3,1,fourth,4,22,Female,R,Donders,2021-07-06_18h11.03.603,ImageRatingTask_S3,2021.1.4,Win32,59.91252771,,,,,,,,,
,,,,,,,,,,,,0,4,4,4,1,fifth,4,22,Female,R,Donders,2021-07-06_18h11.03.603,ImageRatingTask_S3,2021.1.4,Win32,59.91252771,,,,,,,,,
,,,,,,,,,,,,0,5,5,5,1,sixth,4,22,Female,R,Donders,2021-07-06_18h11.03.603,ImageRatingTask_S3,2021.1.4,Win32,59.91252771,,,,,,,,,
,,,,,,,,,,,,0,6,6,6,1,seventh,4,22,Female,R,Donders,2021-07-06_18h11.03.603,ImageRatingTask_S3,2021.1.4,Win32,59.91252771,,,,,,,,,
,,,,,,,,,,,,0,7,7,7,1,last,4,22,Female,R,Donders,2021-07-06_18h11.03.603,ImageRatingTask_S3,2021.1.4,Win32,59.91252771,,,,,,,,,
,,,,,,,,,,,,,,,,,,4,22,Female,R,Donders,2021-07-06_18h11.03.603,ImageRatingTask_S3,2021.1.4,Win32,59.91252771,0,54,54,17,1,DreamStudyImages_rs1000x750g/Mammals/Animals_191_h.jpg,,,
,,4,2.6121,1,0.9565,4,1.953,1,0.8421,3,0.3238,0,0,0,0,1,main,4,22,Female,R,Donders,2021-07-06_18h11.03.603,ImageRatingTask_S3,2021.1.4,Win32,59.91252771,,,,,,,,,
,,,,,,,,,,,,0,1,1,1,1,second,4,22,Female,R,Donders,2021-07-06_18h11.03.603,ImageRatingTask_S3,2021.1.4,Win32,59.91252771,,,,,,,,,
,,,,,,,,,,,,0,2,2,2,1,third,4,22,Female,R,Donders,2021-07-06_18h11.03.603,ImageRatingTask_S3,2021.1.4,Win32,59.91252771,,,,,,,,,
,,,,,,,,,,,,0,3,3,3,1,fourth,4,22,Female,R,Donders,2021-07-06_18h11.03.603,ImageRatingTask_S3,2021.1.4,Win32,59.91252771,,,,,,,,,
,,,,,,,,,,,,0,4,4,4,1,fifth,4,22,Female,R,Donders,2021-07-06_18h11.03.603,ImageRatingTask_S3,2021.1.4,Win32,59.91252771,,,,,,,,,
,,,,,,,,,,,,0,5,5,5,1,sixth,4,22,Female,R,Donders,2021-07-06_18h11.03.603,ImageRatingTask_S3,2021.1.4,Win32,59.91252771,,,,,,,,,
,,,,,,,,,,,,0,6,6,6,1,seventh,4,22,Female,R,Donders,2021-07-06_18h11.03.603,ImageRatingTask_S3,2021.1.4,Win32,59.91252771,,,,,,,,,
,,,,,,,,,,,,0,7,7,7,1,last,4,22,Female,R,Donders,2021-07-06_18h11.03.603,ImageRatingTask_S3,2021.1.4,Win32,59.91252771,,,,,,,,,
,,,,,,,,,,,,,,,,,,4,22,Female,R,Donders,2021-07-06_18h11.03.603,ImageRatingTask_S3,2021.1.4,Win32,59.91252771,0,55,55,28,1,DreamStudyImages_rs1000x750g/Mammals/IAPS1301_dog2.jpg,,,
,,6,2.0622,2,1.1566,6,2.0545,1,1.3907,2,0.3367,0,0,0,0,1,main,4,22,Female,R,Donders,2021-07-06_18h11.03.603,ImageRatingTask_S3,2021.1.4,Win32,59.91252771,,,,,,,,,
,,,,,,,,,,,,0,1,1,1,1,second,4,22,Female,R,Donders,2021-07-06_18h11.03.603,ImageRatingTask_S3,2021.1.4,Win32,59.91252771,,,,,,,,,
,,,,,,,,,,,,0,2,2,2,1,third,4,22,Female,R,Donders,2021-07-06_18h11.03.603,ImageRatingTask_S3,2021.1.4,Win32,59.91252771,,,,,,,,,
,,,,,,,,,,,,0,3,3,3,1,fourth,4,22,Female,R,Donders,2021-07-06_18h11.03.603,ImageRatingTask_S3,2021.1.4,Win32,59.91252771,,,,,,,,,
,,,,,,,,,,,,0,4,4,4,1,fifth,4,22,Female,R,Donders,2021-07-06_18h11.03.603,ImageRatingTask_S3,2021.1.4,Win32,59.91252771,,,,,,,,,
,,,,,,,,,,,,0,5,5,5,1,sixth,4,22,Female,R,Donders,2021-07-06_18h11.03.603,ImageRatingTask_S3,2021.1.4,Win32,59.91252771,,,,,,,,,
,,,,,,,,,,,,0,6,6,6,1,seventh,4,22,Female,R,Donders,2021-07-06_18h11.03.603,ImageRatingTask_S3,2021.1.4,Win32,59.91252771,,,,,,,,,
,,,,,,,,,,,,0,7,7,7,1,last,4,22,Female,R,Donders,2021-07-06_18h11.03.603,ImageRatingTask_S3,2021.1.4,Win32,59.91252771,,,,,,,,,
,,,,,,,,,,,,,,,,,,4,22,Female,R,Donders,2021-07-06_18h11.03.603,ImageRatingTask_S3,2021.1.4,Win32,59.91252771,0,56,56,104,1,DreamStudyImages_rs1000x750g/Children/Faces_129_h.jpg,,,
,,5,3.6735,1,1.6967,6,2.1242,1,0.9835,8,0.7329,0,0,0,0,1,main,4,22,Female,R,Donders,2021-07-06_18h11.03.603,ImageRatingTask_S3,2021.1.4,Win32,59.91252771,,,,,,,,,
,,,,,,,,,,,,0,1,1,1,1,second,4,22,Female,R,Donders,2021-07-06_18h11.03.603,ImageRatingTask_S3,2021.1.4,Win32,59.91252771,,,,,,,,,
,,,,,,,,,,,,0,2,2,2,1,third,4,22,Female,R,Donders,2021-07-06_18h11.03.603,ImageRatingTask_S3,2021.1.4,Win32,59.91252771,,,,,,,,,
,,,,,,,,,,,,0,3,3,3,1,fourth,4,22,Female,R,Donders,2021-07-06_18h11.03.603,ImageRatingTask_S3,2021.1.4,Win32,59.91252771,,,,,,,,,
,,,,,,,,,,,,0,4,4,4,1,fifth,4,22,Female,R,Donders,2021-07-06_18h11.03.603,ImageRatingTask_S3,2021.1.4,Win32,59.91252771,,,,,,,,,
,,,,,,,,,,,,0,5,5,5,1,sixth,4,22,Female,R,Donders,2021-07-06_18h11.03.603,ImageRatingTask_S3,2021.1.4,Win32,59.91252771,,,,,,,,,
,,,,,,,,,,,,0,6,6,6,1,seventh,4,22,Female,R,Donders,2021-07-06_18h11.03.603,ImageRatingTask_S3,2021.1.4,Win32,59.91252771,,,,,,,,,
,,,,,,,,,,,,0,7,7,7,1,last,4,22,Female,R,Donders,2021-07-06_18h11.03.603,ImageRatingTask_S3,2021.1.4,Win32,59.91252771,,,,,,,,,
,,,,,,,,,,,,,,,,,,4,22,Female,R,Donders,2021-07-06_18h11.03.603,ImageRatingTask_S3,2021.1.4,Win32,59.91252771,0,57,57,101,1,DreamStudyImages_rs1000x750g/Water/Landscapes_104_h.jpg,,,
,,4,1.9099,2,4.9653,5,3.1686,1,1.4439,3,0.8569,0,0,0,0,1,main,4,22,Female,R,Donders,2021-07-06_18h11.03.603,ImageRatingTask_S3,2021.1.4,Win32,59.91252771,,,,,,,,,
,,,,,,,,,,,,0,1,1,1,1,second,4,22,Female,R,Donders,2021-07-06_18h11.03.603,ImageRatingTask_S3,2021.1.4,Win32,59.91252771,,,,,,,,,
,,,,,,,,,,,,0,2,2,2,1,third,4,22,Female,R,Donders,2021-07-06_18h11.03.603,ImageRatingTask_S3,2021.1.4,Win32,59.91252771,,,,,,,,,
,,,,,,,,,,,,0,3,3,3,1,fourth,4,22,Female,R,Donders,2021-07-06_18h11.03.603,ImageRatingTask_S3,2021.1.4,Win32,59.91252771,,,,,,,,,
,,,,,,,,,,,,0,4,4,4,1,fifth,4,22,Female,R,Donders,2021-07-06_18h11.03.603,ImageRatingTask_S3,2021.1.4,Win32,59.91252771,,,,,,,,,
,,,,,,,,,,,,0,5,5,5,1,sixth,4,22,Female,R,Donders,2021-07-06_18h11.03.603,ImageRatingTask_S3,2021.1.4,Win32,59.91252771,,,,,,,,,
,,,,,,,,,,,,0,6,6,6,1,seventh,4,22,Female,R,Donders,2021-07-06_18h11.03.603,ImageRatingTask_S3,2021.1.4,Win32,59.91252771,,,,,,,,,
,,,,,,,,,,,,0,7,7,7,1,last,4,22,Female,R,Donders,2021-07-06_18h11.03.603,ImageRatingTask_S3,2021.1.4,Win32,59.91252771,,,,,,,,,
,,,,,,,,,,,,,,,,,,4,22,Female,R,Donders,2021-07-06_18h11.03.603,ImageRatingTask_S3,2021.1.4,Win32,59.91252771,0,58,58,39,1,DreamStudyImages_rs1000x750g/Mammals/Raccoon 1.jpg,,,
,,4,4.1377,1,1.2034,4,1.6764,1,1.5327,8,1.5031,0,0,0,0,1,main,4,22,Female,R,Donders,2021-07-06_18h11.03.603,ImageRatingTask_S3,2021.1.4,Win32,59.91252771,,,,,,,,,
,,,,,,,,,,,,0,1,1,1,1,second,4,22,Female,R,Donders,2021-07-06_18h11.03.603,ImageRatingTask_S3,2021.1.4,Win32,59.91252771,,,,,,,,,
,,,,,,,,,,,,0,2,2,2,1,third,4,22,Female,R,Donders,2021-07-06_18h11.03.603,ImageRatingTask_S3,2021.1.4,Win32,59.91252771,,,,,,,,,
,,,,,,,,,,,,0,3,3,3,1,fourth,4,22,Female,R,Donders,2021-07-06_18h11.03.603,ImageRatingTask_S3,2021.1.4,Win32,59.91252771,,,,,,,,,
,,,,,,,,,,,,0,4,4,4,1,fifth,4,22,Female,R,Donders,2021-07-06_18h11.03.603,ImageRatingTask_S3,2021.1.4,Win32,59.91252771,,,,,,,,,
,,,,,,,,,,,,0,5,5,5,1,sixth,4,22,Female,R,Donders,2021-07-06_18h11.03.603,ImageRatingTask_S3,2021.1.4,Win32,59.91252771,,,,,,,,,
,,,,,,,,,,,,0,6,6,6,1,seventh,4,22,Female,R,Donders,2021-07-06_18h11.03.603,ImageRatingTask_S3,2021.1.4,Win32,59.91252771,,,,,,,,,
,,,,,,,,,,,,0,7,7,7,1,last,4,22,Female,R,Donders,2021-07-06_18h11.03.603,ImageRatingTask_S3,2021.1.4,Win32,59.91252771,,,,,,,,,
,,,,,,,,,,,,,,,,,,4,22,Female,R,Donders,2021-07-06_18h11.03.603,ImageRatingTask_S3,2021.1.4,Win32,59.91252771,0,59,59,81,1,DreamStudyImages_rs1000x750g/Water/Landscapes_145_h.jpg,,,
,,3,2.6112,7,1.3284,4,2.4638,1,1.9982,7,0.5619,0,0,0,0,1,main,4,22,Female,R,Donders,2021-07-06_18h11.03.603,ImageRatingTask_S3,2021.1.4,Win32,59.91252771,,,,,,,,,
,,,,,,,,,,,,0,1,1,1,1,second,4,22,Female,R,Donders,2021-07-06_18h11.03.603,ImageRatingTask_S3,2021.1.4,Win32,59.91252771,,,,,,,,,
,,,,,,,,,,,,0,2,2,2,1,third,4,22,Female,R,Donders,2021-07-06_18h11.03.603,ImageRatingTask_S3,2021.1.4,Win32,59.91252771,,,,,,,,,
,,,,,,,,,,,,0,3,3,3,1,fourth,4,22,Female,R,Donders,2021-07-06_18h11.03.603,ImageRatingTask_S3,2021.1.4,Win32,59.91252771,,,,,,,,,
,,,,,,,,,,,,0,4,4,4,1,fifth,4,22,Female,R,Donders,2021-07-06_18h11.03.603,ImageRatingTask_S3,2021.1.4,Win32,59.91252771,,,,,,,,,
,,,,,,,,,,,,0,5,5,5,1,sixth,4,22,Female,R,Donders,2021-07-06_18h11.03.603,ImageRatingTask_S3,2021.1.4,Win32,59.91252771,,,,,,,,,
,,,,,,,,,,,,0,6,6,6,1,seventh,4,22,Female,R,Donders,2021-07-06_18h11.03.603,ImageRatingTask_S3,2021.1.4,Win32,59.91252771,,,,,,,,,
,,,,,,,,,,,,0,7,7,7,1,last,4,22,Female,R,Donders,2021-07-06_18h11.03.603,ImageRatingTask_S3,2021.1.4,Win32,59.91252771,,,,,,,,,
,,,,,,,,,,,,,,,,,,4,22,Female,R,Donders,2021-07-06_18h11.03.603,ImageRatingTask_S3,2021.1.4,Win32,59.91252771,0,60,60,25,1,DreamStudyImages_rs1000x750g/Vehicles/Car accident 3.jpg,,,
,,3,2.8117,2,2.5646,4,1.5905,0,1.5991,,,0,0,0,0,1,main,4,22,Female,R,Donders,2021-07-06_18h11.03.603,ImageRatingTask_S3,2021.1.4,Win32,59.91252771,,,,,,,,,
,,,,,,,,,,,,0,1,1,1,1,second,4,22,Female,R,Donders,2021-07-06_18h11.03.603,ImageRatingTask_S3,2021.1.4,Win32,59.91252771,,,,,,,,,
,,,,,,,,,,,,0,2,2,2,1,third,4,22,Female,R,Donders,2021-07-06_18h11.03.603,ImageRatingTask_S3,2021.1.4,Win32,59.91252771,,,,,,,,,
,,,,,,,,,,,,0,3,3,3,1,fourth,4,22,Female,R,Donders,2021-07-06_18h11.03.603,ImageRatingTask_S3,2021.1.4,Win32,59.91252771,,,,,,,,,
,,,,,,,,,,,,0,4,4,4,1,fifth,4,22,Female,R,Donders,2021-07-06_18h11.03.603,ImageRatingTask_S3,2021.1.4,Win32,59.91252771,,,,,,,,,
,,,,,,,,,,,,0,5,5,5,1,sixth,4,22,Female,R,Donders,2021-07-06_18h11.03.603,ImageRatingTask_S3,2021.1.4,Win32,59.91252771,,,,,,,,,
,,,,,,,,,,,,0,6,6,6,1,seventh,4,22,Female,R,Donders,2021-07-06_18h11.03.603,ImageRatingTask_S3,2021.1.4,Win32,59.91252771,,,,,,,,,
,,,,,,,,,,,,0,7,7,7,1,last,4,22,Female,R,Donders,2021-07-06_18h11.03.603,ImageRatingTask_S3,2021.1.4,Win32,59.91252771,,,,,,,,,
,,,,,,,,,,,,,,,,,,4,22,Female,R,Donders,2021-07-06_18h11.03.603,ImageRatingTask_S3,2021.1.4,Win32,59.91252771,0,61,61,31,1,DreamStudyImages_rs1000x750g/Houses/Landscapes_013_v.jpg,,,
,,5,3.1754,1,1.997,4,1.4445,1,0.9607,6,0.5666,0,0,0,0,1,main,4,22,Female,R,Donders,2021-07-06_18h11.03.603,ImageRatingTask_S3,2021.1.4,Win32,59.91252771,,,,,,,,,
,,,,,,,,,,,,0,1,1,1,1,second,4,22,Female,R,Donders,2021-07-06_18h11.03.603,ImageRatingTask_S3,2021.1.4,Win32,59.91252771,,,,,,,,,
,,,,,,,,,,,,0,2,2,2,1,third,4,22,Female,R,Donders,2021-07-06_18h11.03.603,ImageRatingTask_S3,2021.1.4,Win32,59.91252771,,,,,,,,,
,,,,,,,,,,,,0,3,3,3,1,fourth,4,22,Female,R,Donders,2021-07-06_18h11.03.603,ImageRatingTask_S3,2021.1.4,Win32,59.91252771,,,,,,,,,
,,,,,,,,,,,,0,4,4,4,1,fifth,4,22,Female,R,Donders,2021-07-06_18h11.03.603,ImageRatingTask_S3,2021.1.4,Win32,59.91252771,,,,,,,,,
,,,,,,,,,,,,0,5,5,5,1,sixth,4,22,Female,R,Donders,2021-07-06_18h11.03.603,ImageRatingTask_S3,2021.1.4,Win32,59.91252771,,,,,,,,,
,,,,,,,,,,,,0,6,6,6,1,seventh,4,22,Female,R,Donders,2021-07-06_18h11.03.603,ImageRatingTask_S3,2021.1.4,Win32,59.91252771,,,,,,,,,
,,,,,,,,,,,,0,7,7,7,1,last,4,22,Female,R,Donders,2021-07-06_18h11.03.603,ImageRatingTask_S3,2021.1.4,Win32,59.91252771,,,,,,,,,
,,,,,,,,,,,,,,,,,,4,22,Female,R,Donders,2021-07-06_18h11.03.603,ImageRatingTask_S3,2021.1.4,Win32,59.91252771,0,62,62,98,1,DreamStudyImages_rs1000x750g/Houses/City 1.jpg,,,
,,3,3.3231,5,7.1587,4,1.5572,0,1.3997,,,0,0,0,0,1,main,4,22,Female,R,Donders,2021-07-06_18h11.03.603,ImageRatingTask_S3,2021.1.4,Win32,59.91252771,,,,,,,,,
,,,,,,,,,,,,0,1,1,1,1,second,4,22,Female,R,Donders,2021-07-06_18h11.03.603,ImageRatingTask_S3,2021.1.4,Win32,59.91252771,,,,,,,,,
,,,,,,,,,,,,0,2,2,2,1,third,4,22,Female,R,Donders,2021-07-06_18h11.03.603,ImageRatingTask_S3,2021.1.4,Win32,59.91252771,,,,,,,,,
,,,,,,,,,,,,0,3,3,3,1,fourth,4,22,Female,R,Donders,2021-07-06_18h11.03.603,ImageRatingTask_S3,2021.1.4,Win32,59.91252771,,,,,,,,,
,,,,,,,,,,,,0,4,4,4,1,fifth,4,22,Female,R,Donders,2021-07-06_18h11.03.603,ImageRatingTask_S3,2021.1.4,Win32,59.91252771,,,,,,,,,
,,,,,,,,,,,,0,5,5,5,1,sixth,4,22,Female,R,Donders,2021-07-06_18h11.03.603,ImageRatingTask_S3,2021.1.4,Win32,59.91252771,,,,,,,,,
,,,,,,,,,,,,0,6,6,6,1,seventh,4,22,Female,R,Donders,2021-07-06_18h11.03.603,ImageRatingTask_S3,2021.1.4,Win32,59.91252771,,,,,,,,,
,,,,,,,,,,,,0,7,7,7,1,last,4,22,Female,R,Donders,2021-07-06_18h11.03.603,ImageRatingTask_S3,2021.1.4,Win32,59.91252771,,,,,,,,,
,,,,,,,,,,,,,,,,,,4,22,Female,R,Donders,2021-07-06_18h11.03.603,ImageRatingTask_S3,2021.1.4,Win32,59.91252771,0,63,63,53,1,DreamStudyImages_rs1000x750g/Houses/Graveyard 4.jpg,,,
,,8,1.7854,1,1.6776,7,3.0741,1,1.1998,8,0.6871,0,0,0,0,1,main,4,22,Female,R,Donders,2021-07-06_18h11.03.603,ImageRatingTask_S3,2021.1.4,Win32,59.91252771,,,,,,,,,
,,,,,,,,,,,,0,1,1,1,1,second,4,22,Female,R,Donders,2021-07-06_18h11.03.603,ImageRatingTask_S3,2021.1.4,Win32,59.91252771,,,,,,,,,
,,,,,,,,,,,,0,2,2,2,1,third,4,22,Female,R,Donders,2021-07-06_18h11.03.603,ImageRatingTask_S3,2021.1.4,Win32,59.91252771,,,,,,,,,
,,,,,,,,,,,,0,3,3,3,1,fourth,4,22,Female,R,Donders,2021-07-06_18h11.03.603,ImageRatingTask_S3,2021.1.4,Win32,59.91252771,,,,,,,,,
,,,,,,,,,,,,0,4,4,4,1,fifth,4,22,Female,R,Donders,2021-07-06_18h11.03.603,ImageRatingTask_S3,2021.1.4,Win32,59.91252771,,,,,,,,,
,,,,,,,,,,,,0,5,5,5,1,sixth,4,22,Female,R,Donders,2021-07-06_18h11.03.603,ImageRatingTask_S3,2021.1.4,Win32,59.91252771,,,,,,,,,
,,,,,,,,,,,,0,6,6,6,1,seventh,4,22,Female,R,Donders,2021-07-06_18h11.03.603,ImageRatingTask_S3,2021.1.4,Win32,59.91252771,,,,,,,,,
,,,,,,,,,,,,0,7,7,7,1,last,4,22,Female,R,Donders,2021-07-06_18h11.03.603,ImageRatingTask_S3,2021.1.4,Win32,59.91252771,,,,,,,,,
,,,,,,,,,,,,,,,,,,4,22,Female,R,Donders,2021-07-06_18h11.03.603,ImageRatingTask_S3,2021.1.4,Win32,59.91252771,0,64,64,144,1,DreamStudyImages_rs1000x750g/Water/Lake 14.jpg,,,
,,5,2.1111,1,0.8592,6,1.951,0,1.5337,,,0,0,0,0,1,main,4,22,Female,R,Donders,2021-07-06_18h11.03.603,ImageRatingTask_S3,2021.1.4,Win32,59.91252771,,,,,,,,,
,,,,,,,,,,,,0,1,1,1,1,second,4,22,Female,R,Donders,2021-07-06_18h11.03.603,ImageRatingTask_S3,2021.1.4,Win32,59.91252771,,,,,,,,,
,,,,,,,,,,,,0,2,2,2,1,third,4,22,Female,R,Donders,2021-07-06_18h11.03.603,ImageRatingTask_S3,2021.1.4,Win32,59.91252771,,,,,,,,,
,,,,,,,,,,,,0,3,3,3,1,fourth,4,22,Female,R,Donders,2021-07-06_18h11.03.603,ImageRatingTask_S3,2021.1.4,Win32,59.91252771,,,,,,,,,
,,,,,,,,,,,,0,4,4,4,1,fifth,4,22,Female,R,Donders,2021-07-06_18h11.03.603,ImageRatingTask_S3,2021.1.4,Win32,59.91252771,,,,,,,,,
,,,,,,,,,,,,0,5,5,5,1,sixth,4,22,Female,R,Donders,2021-07-06_18h11.03.603,ImageRatingTask_S3,2021.1.4,Win32,59.91252771,,,,,,,,,
,,,,,,,,,,,,0,6,6,6,1,seventh,4,22,Female,R,Donders,2021-07-06_18h11.03.603,ImageRatingTask_S3,2021.1.4,Win32,59.91252771,,,,,,,,,
,,,,,,,,,,,,0,7,7,7,1,last,4,22,Female,R,Donders,2021-07-06_18h11.03.603,ImageRatingTask_S3,2021.1.4,Win32,59.91252771,,,,,,,,,
,,,,,,,,,,,,,,,,,,4,22,Female,R,Donders,2021-07-06_18h11.03.603,ImageRatingTask_S3,2021.1.4,Win32,59.91252771,0,65,65,155,1,DreamStudyImages_rs1000x750g/Houses/IAPS7504_staircases.jpg,,,
,,4,1.7324,4,3.5257,5,1.5199,1,1.5572,2,0.1983,0,0,0,0,1,main,4,22,Female,R,Donders,2021-07-06_18h11.03.603,ImageRatingTask_S3,2021.1.4,Win32,59.91252771,,,,,,,,,
,,,,,,,,,,,,0,1,1,1,1,second,4,22,Female,R,Donders,2021-07-06_18h11.03.603,ImageRatingTask_S3,2021.1.4,Win32,59.91252771,,,,,,,,,
,,,,,,,,,,,,0,2,2,2,1,third,4,22,Female,R,Donders,2021-07-06_18h11.03.603,ImageRatingTask_S3,2021.1.4,Win32,59.91252771,,,,,,,,,
,,,,,,,,,,,,0,3,3,3,1,fourth,4,22,Female,R,Donders,2021-07-06_18h11.03.603,ImageRatingTask_S3,2021.1.4,Win32,59.91252771,,,,,,,,,
,,,,,,,,,,,,0,4,4,4,1,fifth,4,22,Female,R,Donders,2021-07-06_18h11.03.603,ImageRatingTask_S3,2021.1.4,Win32,59.91252771,,,,,,,,,
,,,,,,,,,,,,0,5,5,5,1,sixth,4,22,Female,R,Donders,2021-07-06_18h11.03.603,ImageRatingTask_S3,2021.1.4,Win32,59.91252771,,,,,,,,,
,,,,,,,,,,,,0,6,6,6,1,seventh,4,22,Female,R,Donders,2021-07-06_18h11.03.603,ImageRatingTask_S3,2021.1.4,Win32,59.91252771,,,,,,,,,
,,,,,,,,,,,,0,7,7,7,1,last,4,22,Female,R,Donders,2021-07-06_18h11.03.603,ImageRatingTask_S3,2021.1.4,Win32,59.91252771,,,,,,,,,
,,,,,,,,,,,,,,,,,,4,22,Female,R,Donders,2021-07-06_18h11.03.603,ImageRatingTask_S3,2021.1.4,Win32,59.91252771,0,66,66,152,1,DreamStudyImages_rs1000x750g/Children/Faces_025_h.jpg,,,
,,5,2.2556,1,0.8941,5,2.6758,1,0.9421,2,0.1473,0,0,0,0,1,main,4,22,Female,R,Donders,2021-07-06_18h11.03.603,ImageRatingTask_S3,2021.1.4,Win32,59.91252771,,,,,,,,,
,,,,,,,,,,,,0,1,1,1,1,second,4,22,Female,R,Donders,2021-07-06_18h11.03.603,ImageRatingTask_S3,2021.1.4,Win32,59.91252771,,,,,,,,,
,,,,,,,,,,,,0,2,2,2,1,third,4,22,Female,R,Donders,2021-07-06_18h11.03.603,ImageRatingTask_S3,2021.1.4,Win32,59.91252771,,,,,,,,,
,,,,,,,,,,,,0,3,3,3,1,fourth,4,22,Female,R,Donders,2021-07-06_18h11.03.603,ImageRatingTask_S3,2021.1.4,Win32,59.91252771,,,,,,,,,
,,,,,,,,,,,,0,4,4,4,1,fifth,4,22,Female,R,Donders,2021-07-06_18h11.03.603,ImageRatingTask_S3,2021.1.4,Win32,59.91252771,,,,,,,,,
,,,,,,,,,,,,0,5,5,5,1,sixth,4,22,Female,R,Donders,2021-07-06_18h11.03.603,ImageRatingTask_S3,2021.1.4,Win32,59.91252771,,,,,,,,,
,,,,,,,,,,,,0,6,6,6,1,seventh,4,22,Female,R,Donders,2021-07-06_18h11.03.603,ImageRatingTask_S3,2021.1.4,Win32,59.91252771,,,,,,,,,
,,,,,,,,,,,,0,7,7,7,1,last,4,22,Female,R,Donders,2021-07-06_18h11.03.603,ImageRatingTask_S3,2021.1.4,Win32,59.91252771,,,,,,,,,
,,,,,,,,,,,,,,,,,,4,22,Female,R,Donders,2021-07-06_18h11.03.603,ImageRatingTask_S3,2021.1.4,Win32,59.91252771,0,67,67,6,1,DreamStudyImages_rs1000x750g/Children/Faces_045_h.jpg,,,
,,5,2.7921,3,1.4784,7,2.1361,1,1.5842,5,0.5751,0,0,0,0,1,main,4,22,Female,R,Donders,2021-07-06_18h11.03.603,ImageRatingTask_S3,2021.1.4,Win32,59.91252771,,,,,,,,,
,,,,,,,,,,,,0,1,1,1,1,second,4,22,Female,R,Donders,2021-07-06_18h11.03.603,ImageRatingTask_S3,2021.1.4,Win32,59.91252771,,,,,,,,,
,,,,,,,,,,,,0,2,2,2,1,third,4,22,Female,R,Donders,2021-07-06_18h11.03.603,ImageRatingTask_S3,2021.1.4,Win32,59.91252771,,,,,,,,,
,,,,,,,,,,,,0,3,3,3,1,fourth,4,22,Female,R,Donders,2021-07-06_18h11.03.603,ImageRatingTask_S3,2021.1.4,Win32,59.91252771,,,,,,,,,
,,,,,,,,,,,,0,4,4,4,1,fifth,4,22,Female,R,Donders,2021-07-06_18h11.03.603,ImageRatingTask_S3,2021.1.4,Win32,59.91252771,,,,,,,,,
,,,,,,,,,,,,0,5,5,5,1,sixth,4,22,Female,R,Donders,2021-07-06_18h11.03.603,ImageRatingTask_S3,2021.1.4,Win32,59.91252771,,,,,,,,,
,,,,,,,,,,,,0,6,6,6,1,seventh,4,22,Female,R,Donders,2021-07-06_18h11.03.603,ImageRatingTask_S3,2021.1.4,Win32,59.91252771,,,,,,,,,
,,,,,,,,,,,,0,7,7,7,1,last,4,22,Female,R,Donders,2021-07-06_18h11.03.603,ImageRatingTask_S3,2021.1.4,Win32,59.91252771,,,,,,,,,
,,,,,,,,,,,,,,,,,,4,22,Female,R,Donders,2021-07-06_18h11.03.603,ImageRatingTask_S3,2021.1.4,Win32,59.91252771,0,68,68,130,1,DreamStudyImages_rs1000x750g/Food/IAPS7365_mincedmeat.jpg,,,
,,3,10.9376,5,4.0872,4,2.7111,1,1.0748,5,0.5864,0,0,0,0,1,main,4,22,Female,R,Donders,2021-07-06_18h11.03.603,ImageRatingTask_S3,2021.1.4,Win32,59.91252771,,,,,,,,,
,,,,,,,,,,,,0,1,1,1,1,second,4,22,Female,R,Donders,2021-07-06_18h11.03.603,ImageRatingTask_S3,2021.1.4,Win32,59.91252771,,,,,,,,,
,,,,,,,,,,,,0,2,2,2,1,third,4,22,Female,R,Donders,2021-07-06_18h11.03.603,ImageRatingTask_S3,2021.1.4,Win32,59.91252771,,,,,,,,,
,,,,,,,,,,,,0,3,3,3,1,fourth,4,22,Female,R,Donders,2021-07-06_18h11.03.603,ImageRatingTask_S3,2021.1.4,Win32,59.91252771,,,,,,,,,
,,,,,,,,,,,,0,4,4,4,1,fifth,4,22,Female,R,Donders,2021-07-06_18h11.03.603,ImageRatingTask_S3,2021.1.4,Win32,59.91252771,,,,,,,,,
,,,,,,,,,,,,0,5,5,5,1,sixth,4,22,Female,R,Donders,2021-07-06_18h11.03.603,ImageRatingTask_S3,2021.1.4,Win32,59.91252771,,,,,,,,,
,,,,,,,,,,,,0,6,6,6,1,seventh,4,22,Female,R,Donders,2021-07-06_18h11.03.603,ImageRatingTask_S3,2021.1.4,Win32,59.91252771,,,,,,,,,
,,,,,,,,,,,,0,7,7,7,1,last,4,22,Female,R,Donders,2021-07-06_18h11.03.603,ImageRatingTask_S3,2021.1.4,Win32,59.91252771,,,,,,,,,
,,,,,,,,,,,,,,,,,,4,22,Female,R,Donders,2021-07-06_18h11.03.603,ImageRatingTask_S3,2021.1.4,Win32,59.91252771,0,69,69,149,1,DreamStudyImages_rs1000x750g/Food/Objects_042_h.jpg,,,
,,3,205.94,6,1.0424,7,1.8029,1,2.2924,8,0.6732,0,0,0,0,1,main,4,22,Female,R,Donders,2021-07-06_18h11.03.603,ImageRatingTask_S3,2021.1.4,Win32,59.91252771,,,,,,,,,
,,,,,,,,,,,,0,1,1,1,1,second,4,22,Female,R,Donders,2021-07-06_18h11.03.603,ImageRatingTask_S3,2021.1.4,Win32,59.91252771,,,,,,,,,
,,,,,,,,,,,,0,2,2,2,1,third,4,22,Female,R,Donders,2021-07-06_18h11.03.603,ImageRatingTask_S3,2021.1.4,Win32,59.91252771,,,,,,,,,
,,,,,,,,,,,,0,3,3,3,1,fourth,4,22,Female,R,Donders,2021-07-06_18h11.03.603,ImageRatingTask_S3,2021.1.4,Win32,59.91252771,,,,,,,,,
,,,,,,,,,,,,0,4,4,4,1,fifth,4,22,Female,R,Donders,2021-07-06_18h11.03.603,ImageRatingTask_S3,2021.1.4,Win32,59.91252771,,,,,,,,,
,,,,,,,,,,,,0,5,5,5,1,sixth,4,22,Female,R,Donders,2021-07-06_18h11.03.603,ImageRatingTask_S3,2021.1.4,Win32,59.91252771,,,,,,,,,
,,,,,,,,,,,,0,6,6,6,1,seventh,4,22,Female,R,Donders,2021-07-06_18h11.03.603,ImageRatingTask_S3,2021.1.4,Win32,59.91252771,,,,,,,,,
,,,,,,,,,,,,0,7,7,7,1,last,4,22,Female,R,Donders,2021-07-06_18h11.03.603,ImageRatingTask_S3,2021.1.4,Win32,59.91252771,,,,,,,,,
,,,,,,,,,,,,,,,,,,4,22,Female,R,Donders,2021-07-06_18h11.03.603,ImageRatingTask_S3,2021.1.4,Win32,59.91252771,0,70,70,13,1,DreamStudyImages_rs1000x750g/Water/water_neg_5.jpg,,,
,,5,2.224,1,1.0735,6,1.452,1,0.8003,8,0.5893,0,0,0,0,1,main,4,22,Female,R,Donders,2021-07-06_18h11.03.603,ImageRatingTask_S3,2021.1.4,Win32,59.91252771,,,,,,,,,
,,,,,,,,,,,,0,1,1,1,1,second,4,22,Female,R,Donders,2021-07-06_18h11.03.603,ImageRatingTask_S3,2021.1.4,Win32,59.91252771,,,,,,,,,
,,,,,,,,,,,,0,2,2,2,1,third,4,22,Female,R,Donders,2021-07-06_18h11.03.603,ImageRatingTask_S3,2021.1.4,Win32,59.91252771,,,,,,,,,
,,,,,,,,,,,,0,3,3,3,1,fourth,4,22,Female,R,Donders,2021-07-06_18h11.03.603,ImageRatingTask_S3,2021.1.4,Win32,59.91252771,,,,,,,,,
,,,,,,,,,,,,0,4,4,4,1,fifth,4,22,Female,R,Donders,2021-07-06_18h11.03.603,ImageRatingTask_S3,2021.1.4,Win32,59.91252771,,,,,,,,,
,,,,,,,,,,,,0,5,5,5,1,sixth,4,22,Female,R,Donders,2021-07-06_18h11.03.603,ImageRatingTask_S3,2021.1.4,Win32,59.91252771,,,,,,,,,
,,,,,,,,,,,,0,6,6,6,1,seventh,4,22,Female,R,Donders,2021-07-06_18h11.03.603,ImageRatingTask_S3,2021.1.4,Win32,59.91252771,,,,,,,,,
,,,,,,,,,,,,0,7,7,7,1,last,4,22,Female,R,Donders,2021-07-06_18h11.03.603,ImageRatingTask_S3,2021.1.4,Win32,59.91252771,,,,,,,,,
,,,,,,,,,,,,,,,,,,4,22,Female,R,Donders,2021-07-06_18h11.03.603,ImageRatingTask_S3,2021.1.4,Win32,59.91252771,0,71,71,143,1,DreamStudyImages_rs1000x750g/Water/seacliff.jpg,,,
,,4,2.031,5,1.9453,6,2.55,2,3.0494,2,2.0855,0,0,0,0,1,main,4,22,Female,R,Donders,2021-07-06_18h11.03.603,ImageRatingTask_S3,2021.1.4,Win32,59.91252771,,,,,,,,,
,,,,,,,,,,1,0.2258,0,1,1,1,1,second,4,22,Female,R,Donders,2021-07-06_18h11.03.603,ImageRatingTask_S3,2021.1.4,Win32,59.91252771,,,,,,,,,
,,,,,,,,,,,,0,2,2,2,1,third,4,22,Female,R,Donders,2021-07-06_18h11.03.603,ImageRatingTask_S3,2021.1.4,Win32,59.91252771,,,,,,,,,
,,,,,,,,,,,,0,3,3,3,1,fourth,4,22,Female,R,Donders,2021-07-06_18h11.03.603,ImageRatingTask_S3,2021.1.4,Win32,59.91252771,,,,,,,,,
,,,,,,,,,,,,0,4,4,4,1,fifth,4,22,Female,R,Donders,2021-07-06_18h11.03.603,ImageRatingTask_S3,2021.1.4,Win32,59.91252771,,,,,,,,,
,,,,,,,,,,,,0,5,5,5,1,sixth,4,22,Female,R,Donders,2021-07-06_18h11.03.603,ImageRatingTask_S3,2021.1.4,Win32,59.91252771,,,,,,,,,
,,,,,,,,,,,,0,6,6,6,1,seventh,4,22,Female,R,Donders,2021-07-06_18h11.03.603,ImageRatingTask_S3,2021.1.4,Win32,59.91252771,,,,,,,,,
,,,,,,,,,,,,0,7,7,7,1,last,4,22,Female,R,Donders,2021-07-06_18h11.03.603,ImageRatingTask_S3,2021.1.4,Win32,59.91252771,,,,,,,,,
,,,,,,,,,,,,,,,,,,4,22,Female,R,Donders,2021-07-06_18h11.03.603,ImageRatingTask_S3,2021.1.4,Win32,59.91252771,0,72,72,57,1,DreamStudyImages_rs1000x750g/Children/Faces_019_h.jpg,,,
,,4,2.8321,3,1.3214,5,2.0697,1,2.133,6,0.6834,0,0,0,0,1,main,4,22,Female,R,Donders,2021-07-06_18h11.03.603,ImageRatingTask_S3,2021.1.4,Win32,59.91252771,,,,,,,,,
,,,,,,,,,,,,0,1,1,1,1,second,4,22,Female,R,Donders,2021-07-06_18h11.03.603,ImageRatingTask_S3,2021.1.4,Win32,59.91252771,,,,,,,,,
,,,,,,,,,,,,0,2,2,2,1,third,4,22,Female,R,Donders,2021-07-06_18h11.03.603,ImageRatingTask_S3,2021.1.4,Win32,59.91252771,,,,,,,,,
,,,,,,,,,,,,0,3,3,3,1,fourth,4,22,Female,R,Donders,2021-07-06_18h11.03.603,ImageRatingTask_S3,2021.1.4,Win32,59.91252771,,,,,,,,,
,,,,,,,,,,,,0,4,4,4,1,fifth,4,22,Female,R,Donders,2021-07-06_18h11.03.603,ImageRatingTask_S3,2021.1.4,Win32,59.91252771,,,,,,,,,
,,,,,,,,,,,,0,5,5,5,1,sixth,4,22,Female,R,Donders,2021-07-06_18h11.03.603,ImageRatingTask_S3,2021.1.4,Win32,59.91252771,,,,,,,,,
,,,,,,,,,,,,0,6,6,6,1,seventh,4,22,Female,R,Donders,2021-07-06_18h11.03.603,ImageRatingTask_S3,2021.1.4,Win32,59.91252771,,,,,,,,,
,,,,,,,,,,,,0,7,7,7,1,last,4,22,Female,R,Donders,2021-07-06_18h11.03.603,ImageRatingTask_S3,2021.1.4,Win32,59.91252771,,,,,,,,,
,,,,,,,,,,,,,,,,,,4,22,Female,R,Donders,2021-07-06_18h11.03.603,ImageRatingTask_S3,2021.1.4,Win32,59.91252771,0,73,73,30,1,DreamStudyImages_rs1000x750g/Houses/Landscapes_039_v.jpg,,,
,,6,1.7398,2,1.347,6,2.637,1,1.1499,2,0.1872,0,0,0,0,1,main,4,22,Female,R,Donders,2021-07-06_18h11.03.603,ImageRatingTask_S3,2021.1.4,Win32,59.91252771,,,,,,,,,
,,,,,,,,,,,,0,1,1,1,1,second,4,22,Female,R,Donders,2021-07-06_18h11.03.603,ImageRatingTask_S3,2021.1.4,Win32,59.91252771,,,,,,,,,
,,,,,,,,,,,,0,2,2,2,1,third,4,22,Female,R,Donders,2021-07-06_18h11.03.603,ImageRatingTask_S3,2021.1.4,Win32,59.91252771,,,,,,,,,
,,,,,,,,,,,,0,3,3,3,1,fourth,4,22,Female,R,Donders,2021-07-06_18h11.03.603,ImageRatingTask_S3,2021.1.4,Win32,59.91252771,,,,,,,,,
,,,,,,,,,,,,0,4,4,4,1,fifth,4,22,Female,R,Donders,2021-07-06_18h11.03.603,ImageRatingTask_S3,2021.1.4,Win32,59.91252771,,,,,,,,,
,,,,,,,,,,,,0,5,5,5,1,sixth,4,22,Female,R,Donders,2021-07-06_18h11.03.603,ImageRatingTask_S3,2021.1.4,Win32,59.91252771,,,,,,,,,
,,,,,,,,,,,,0,6,6,6,1,seventh,4,22,Female,R,Donders,2021-07-06_18h11.03.603,ImageRatingTask_S3,2021.1.4,Win32,59.91252771,,,,,,,,,
,,,,,,,,,,,,0,7,7,7,1,last,4,22,Female,R,Donders,2021-07-06_18h11.03.603,ImageRatingTask_S3,2021.1.4,Win32,59.91252771,,,,,,,,,
,,,,,,,,,,,,,,,,,,4,22,Female,R,Donders,2021-07-06_18h11.03.603,ImageRatingTask_S3,2021.1.4,Win32,59.91252771,0,74,74,131,1,DreamStudyImages_rs1000x750g/Children/People_055_h.jpg,,,
,,5,2.4608,1,3.4017,5,2.2394,1,0.9884,2,0.2332,0,0,0,0,1,main,4,22,Female,R,Donders,2021-07-06_18h11.03.603,ImageRatingTask_S3,2021.1.4,Win32,59.91252771,,,,,,,,,
,,,,,,,,,,,,0,1,1,1,1,second,4,22,Female,R,Donders,2021-07-06_18h11.03.603,ImageRatingTask_S3,2021.1.4,Win32,59.91252771,,,,,,,,,
,,,,,,,,,,,,0,2,2,2,1,third,4,22,Female,R,Donders,2021-07-06_18h11.03.603,ImageRatingTask_S3,2021.1.4,Win32,59.91252771,,,,,,,,,
,,,,,,,,,,,,0,3,3,3,1,fourth,4,22,Female,R,Donders,2021-07-06_18h11.03.603,ImageRatingTask_S3,2021.1.4,Win32,59.91252771,,,,,,,,,
,,,,,,,,,,,,0,4,4,4,1,fifth,4,22,Female,R,Donders,2021-07-06_18h11.03.603,ImageRatingTask_S3,2021.1.4,Win32,59.91252771,,,,,,,,,
,,,,,,,,,,,,0,5,5,5,1,sixth,4,22,Female,R,Donders,2021-07-06_18h11.03.603,ImageRatingTask_S3,2021.1.4,Win32,59.91252771,,,,,,,,,
,,,,,,,,,,,,0,6,6,6,1,seventh,4,22,Female,R,Donders,2021-07-06_18h11.03.603,ImageRatingTask_S3,2021.1.4,Win32,59.91252771,,,,,,,,,
,,,,,,,,,,,,0,7,7,7,1,last,4,22,Female,R,Donders,2021-07-06_18h11.03.603,ImageRatingTask_S3,2021.1.4,Win32,59.91252771,,,,,,,,,
,,,,,,,,,,,,,,,,,,4,22,Female,R,Donders,2021-07-06_18h11.03.603,ImageRatingTask_S3,2021.1.4,Win32,59.91252771,0,75,75,51,1,DreamStudyImages_rs1000x750g/Children/IAPS2442_child3.jpg,,,
,,5,3.8601,1,1.311,4,2.6891,1,1.2342,8,0.8044,0,0,0,0,1,main,4,22,Female,R,Donders,2021-07-06_18h11.03.603,ImageRatingTask_S3,2021.1.4,Win32,59.91252771,,,,,,,,,
,,,,,,,,,,,,0,1,1,1,1,second,4,22,Female,R,Donders,2021-07-06_18h11.03.603,ImageRatingTask_S3,2021.1.4,Win32,59.91252771,,,,,,,,,
,,,,,,,,,,,,0,2,2,2,1,third,4,22,Female,R,Donders,2021-07-06_18h11.03.603,ImageRatingTask_S3,2021.1.4,Win32,59.91252771,,,,,,,,,
,,,,,,,,,,,,0,3,3,3,1,fourth,4,22,Female,R,Donders,2021-07-06_18h11.03.603,ImageRatingTask_S3,2021.1.4,Win32,59.91252771,,,,,,,,,
,,,,,,,,,,,,0,4,4,4,1,fifth,4,22,Female,R,Donders,2021-07-06_18h11.03.603,ImageRatingTask_S3,2021.1.4,Win32,59.91252771,,,,,,,,,
,,,,,,,,,,,,0,5,5,5,1,sixth,4,22,Female,R,Donders,2021-07-06_18h11.03.603,ImageRatingTask_S3,2021.1.4,Win32,59.91252771,,,,,,,,,
,,,,,,,,,,,,0,6,6,6,1,seventh,4,22,Female,R,Donders,2021-07-06_18h11.03.603,ImageRatingTask_S3,2021.1.4,Win32,59.91252771,,,,,,,,,
,,,,,,,,,,,,0,7,7,7,1,last,4,22,Female,R,Donders,2021-07-06_18h11.03.603,ImageRatingTask_S3,2021.1.4,Win32,59.91252771,,,,,,,,,
,,,,,,,,,,,,,,,,,,4,22,Female,R,Donders,2021-07-06_18h11.03.603,ImageRatingTask_S3,2021.1.4,Win32,59.91252771,0,76,76,45,1,DreamStudyImages_rs1000x750g/Water/Sunset 6.jpg,,,
,,4,2.296,5,6.2925,5,1.6367,1,1.3286,3,0.3167,0,0,0,0,1,main,4,22,Female,R,Donders,2021-07-06_18h11.03.603,ImageRatingTask_S3,2021.1.4,Win32,59.91252771,,,,,,,,,
,,,,,,,,,,,,0,1,1,1,1,second,4,22,Female,R,Donders,2021-07-06_18h11.03.603,ImageRatingTask_S3,2021.1.4,Win32,59.91252771,,,,,,,,,
,,,,,,,,,,,,0,2,2,2,1,third,4,22,Female,R,Donders,2021-07-06_18h11.03.603,ImageRatingTask_S3,2021.1.4,Win32,59.91252771,,,,,,,,,
,,,,,,,,,,,,0,3,3,3,1,fourth,4,22,Female,R,Donders,2021-07-06_18h11.03.603,ImageRatingTask_S3,2021.1.4,Win32,59.91252771,,,,,,,,,
,,,,,,,,,,,,0,4,4,4,1,fifth,4,22,Female,R,Donders,2021-07-06_18h11.03.603,ImageRatingTask_S3,2021.1.4,Win32,59.91252771,,,,,,,,,
,,,,,,,,,,,,0,5,5,5,1,sixth,4,22,Female,R,Donders,2021-07-06_18h11.03.603,ImageRatingTask_S3,2021.1.4,Win32,59.91252771,,,,,,,,,
,,,,,,,,,,,,0,6,6,6,1,seventh,4,22,Female,R,Donders,2021-07-06_18h11.03.603,ImageRatingTask_S3,2021.1.4,Win32,59.91252771,,,,,,,,,
,,,,,,,,,,,,0,7,7,7,1,last,4,22,Female,R,Donders,2021-07-06_18h11.03.603,ImageRatingTask_S3,2021.1.4,Win32,59.91252771,,,,,,,,,
,,,,,,,,,,,,,,,,,,4,22,Female,R,Donders,2021-07-06_18h11.03.603,ImageRatingTask_S3,2021.1.4,Win32,59.91252771,0,77,77,2,1,DreamStudyImages_rs1000x750g/Mammals/Dog 31.jpg,,,
,,4,2.5695,3,2.5963,6,4.1738,1,1.0242,2,0.1787,0,0,0,0,1,main,4,22,Female,R,Donders,2021-07-06_18h11.03.603,ImageRatingTask_S3,2021.1.4,Win32,59.91252771,,,,,,,,,
,,,,,,,,,,,,0,1,1,1,1,second,4,22,Female,R,Donders,2021-07-06_18h11.03.603,ImageRatingTask_S3,2021.1.4,Win32,59.91252771,,,,,,,,,
,,,,,,,,,,,,0,2,2,2,1,third,4,22,Female,R,Donders,2021-07-06_18h11.03.603,ImageRatingTask_S3,2021.1.4,Win32,59.91252771,,,,,,,,,
,,,,,,,,,,,,0,3,3,3,1,fourth,4,22,Female,R,Donders,2021-07-06_18h11.03.603,ImageRatingTask_S3,2021.1.4,Win32,59.91252771,,,,,,,,,
,,,,,,,,,,,,0,4,4,4,1,fifth,4,22,Female,R,Donders,2021-07-06_18h11.03.603,ImageRatingTask_S3,2021.1.4,Win32,59.91252771,,,,,,,,,
,,,,,,,,,,,,0,5,5,5,1,sixth,4,22,Female,R,Donders,2021-07-06_18h11.03.603,ImageRatingTask_S3,2021.1.4,Win32,59.91252771,,,,,,,,,
,,,,,,,,,,,,0,6,6,6,1,seventh,4,22,Female,R,Donders,2021-07-06_18h11.03.603,ImageRatingTask_S3,2021.1.4,Win32,59.91252771,,,,,,,,,
,,,,,,,,,,,,0,7,7,7,1,last,4,22,Female,R,Donders,2021-07-06_18h11.03.603,ImageRatingTask_S3,2021.1.4,Win32,59.91252771,,,,,,,,,
,,,,,,,,,,,,,,,,,,4,22,Female,R,Donders,2021-07-06_18h11.03.603,ImageRatingTask_S3,2021.1.4,Win32,59.91252771,0,78,78,73,1,DreamStudyImages_rs1000x750g/Children/Faces_096_h.jpg,,,
,,3,3.6498,5,1.232,4,1.7388,1,0.9797,7,0.8585,0,0,0,0,1,main,4,22,Female,R,Donders,2021-07-06_18h11.03.603,ImageRatingTask_S3,2021.1.4,Win32,59.91252771,,,,,,,,,
,,,,,,,,,,,,0,1,1,1,1,second,4,22,Female,R,Donders,2021-07-06_18h11.03.603,ImageRatingTask_S3,2021.1.4,Win32,59.91252771,,,,,,,,,
,,,,,,,,,,,,0,2,2,2,1,third,4,22,Female,R,Donders,2021-07-06_18h11.03.603,ImageRatingTask_S3,2021.1.4,Win32,59.91252771,,,,,,,,,
,,,,,,,,,,,,0,3,3,3,1,fourth,4,22,Female,R,Donders,2021-07-06_18h11.03.603,ImageRatingTask_S3,2021.1.4,Win32,59.91252771,,,,,,,,,
,,,,,,,,,,,,0,4,4,4,1,fifth,4,22,Female,R,Donders,2021-07-06_18h11.03.603,ImageRatingTask_S3,2021.1.4,Win32,59.91252771,,,,,,,,,
,,,,,,,,,,,,0,5,5,5,1,sixth,4,22,Female,R,Donders,2021-07-06_18h11.03.603,ImageRatingTask_S3,2021.1.4,Win32,59.91252771,,,,,,,,,
