slider_pre.response,slider_pre.rt,key_val.keys,key_val.rt,key_aro.keys,key_aro.rt,key_qual.keys,key_qual.rt,key_ncat.keys,key_ncat.rt,key_cats.keys,key_cats.rt,ncat_order.thisRepN,ncat_order.thisTrialN,ncat_order.thisN,ncat_order.thisIndex,ncat_order.ran,cond_cat,participant,age,gender,handedness (L/R),site (IMT/Donders),date,expName,psychopyVersion,OS,frameRate,img_trials.thisRepN,img_trials.thisTrialN,img_trials.thisN,img_trials.thisIndex,img_trials.ran,filename,slider_post.response,slider_post.rt,textbox_openfb.text
4,6.1333,3,3.5929,3,1.6277,5,2.0227,1,1.2574,6,1.4974,0,0,0,0,1,main,4,22,Female,R,Donders,2021-07-08_16h32.16.422,ImageRatingTask_S4,2021.1.4,Win32,59.88741167,,,,,,,,,
,,,,,,,,,,,,0,1,1,1,1,second,4,22,Female,R,Donders,2021-07-08_16h32.16.422,ImageRatingTask_S4,2021.1.4,Win32,59.88741167,,,,,,,,,
,,,,,,,,,,,,0,2,2,2,1,third,4,22,Female,R,Donders,2021-07-08_16h32.16.422,ImageRatingTask_S4,2021.1.4,Win32,59.88741167,,,,,,,,,
,,,,,,,,,,,,0,3,3,3,1,fourth,4,22,Female,R,Donders,2021-07-08_16h32.16.422,ImageRatingTask_S4,2021.1.4,Win32,59.88741167,,,,,,,,,
,,,,,,,,,,,,0,4,4,4,1,fifth,4,22,Female,R,Donders,2021-07-08_16h32.16.422,ImageRatingTask_S4,2021.1.4,Win32,59.88741167,,,,,,,,,
,,,,,,,,,,,,0,5,5,5,1,sixth,4,22,Female,R,Donders,2021-07-08_16h32.16.422,ImageRatingTask_S4,2021.1.4,Win32,59.88741167,,,,,,,,,
,,,,,,,,,,,,0,6,6,6,1,seventh,4,22,Female,R,Donders,2021-07-08_16h32.16.422,ImageRatingTask_S4,2021.1.4,Win32,59.88741167,,,,,,,,,
,,,,,,,,,,,,0,7,7,7,1,last,4,22,Female,R,Donders,2021-07-08_16h32.16.422,ImageRatingTask_S4,2021.1.4,Win32,59.88741167,,,,,,,,,
,,,,,,,,,,,,,,,,,,4,22,Female,R,Donders,2021-07-08_16h32.16.422,ImageRatingTask_S4,2021.1.4,Win32,59.88741167,0,0,0,62,1,DreamStudyImages_rs1000x750g/Houses/NDPS39_houseonfire.jpg,,,
,,4,2.5598,1,1.2693,5,1.6063,1,1.3243,3,1.3464,0,0,0,0,1,main,4,22,Female,R,Donders,2021-07-08_16h32.16.422,ImageRatingTask_S4,2021.1.4,Win32,59.88741167,,,,,,,,,
,,,,,,,,,,,,0,1,1,1,1,second,4,22,Female,R,Donders,2021-07-08_16h32.16.422,ImageRatingTask_S4,2021.1.4,Win32,59.88741167,,,,,,,,,
,,,,,,,,,,,,0,2,2,2,1,third,4,22,Female,R,Donders,2021-07-08_16h32.16.422,ImageRatingTask_S4,2021.1.4,Win32,59.88741167,,,,,,,,,
,,,,,,,,,,,,0,3,3,3,1,fourth,4,22,Female,R,Donders,2021-07-08_16h32.16.422,ImageRatingTask_S4,2021.1.4,Win32,59.88741167,,,,,,,,,
,,,,,,,,,,,,0,4,4,4,1,fifth,4,22,Female,R,Donders,2021-07-08_16h32.16.422,ImageRatingTask_S4,2021.1.4,Win32,59.88741167,,,,,,,,,
,,,,,,,,,,,,0,5,5,5,1,sixth,4,22,Female,R,Donders,2021-07-08_16h32.16.422,ImageRatingTask_S4,2021.1.4,Win32,59.88741167,,,,,,,,,
,,,,,,,,,,,,0,6,6,6,1,seventh,4,22,Female,R,Donders,2021-07-08_16h32.16.422,ImageRatingTask_S4,2021.1.4,Win32,59.88741167,,,,,,,,,
,,,,,,,,,,,,0,7,7,7,1,last,4,22,Female,R,Donders,2021-07-08_16h32.16.422,ImageRatingTask_S4,2021.1.4,Win32,59.88741167,,,,,,,,,
,,,,,,,,,,,,,,,,,,4,22,Female,R,Donders,2021-07-08_16h32.16.422,ImageRatingTask_S4,2021.1.4,Win32,59.88741167,0,1,1,48,1,DreamStudyImages_rs1000x750g/Mammals/Bear 2.jpg,,,
,,5,6.0281,1,0.73,5,2.5685,1,1.7193,2,0.1405,0,0,0,0,1,main,4,22,Female,R,Donders,2021-07-08_16h32.16.422,ImageRatingTask_S4,2021.1.4,Win32,59.88741167,,,,,,,,,
,,,,,,,,,,,,0,1,1,1,1,second,4,22,Female,R,Donders,2021-07-08_16h32.16.422,ImageRatingTask_S4,2021.1.4,Win32,59.88741167,,,,,,,,,
,,,,,,,,,,,,0,2,2,2,1,third,4,22,Female,R,Donders,2021-07-08_16h32.16.422,ImageRatingTask_S4,2021.1.4,Win32,59.88741167,,,,,,,,,
,,,,,,,,,,,,0,3,3,3,1,fourth,4,22,Female,R,Donders,2021-07-08_16h32.16.422,ImageRatingTask_S4,2021.1.4,Win32,59.88741167,,,,,,,,,
,,,,,,,,,,,,0,4,4,4,1,fifth,4,22,Female,R,Donders,2021-07-08_16h32.16.422,ImageRatingTask_S4,2021.1.4,Win32,59.88741167,,,,,,,,,
,,,,,,,,,,,,0,5,5,5,1,sixth,4,22,Female,R,Donders,2021-07-08_16h32.16.422,ImageRatingTask_S4,2021.1.4,Win32,59.88741167,,,,,,,,,
,,,,,,,,,,,,0,6,6,6,1,seventh,4,22,Female,R,Donders,2021-07-08_16h32.16.422,ImageRatingTask_S4,2021.1.4,Win32,59.88741167,,,,,,,,,
,,,,,,,,,,,,0,7,7,7,1,last,4,22,Female,R,Donders,2021-07-08_16h32.16.422,ImageRatingTask_S4,2021.1.4,Win32,59.88741167,,,,,,,,,
,,,,,,,,,,,,,,,,,,4,22,Female,R,Donders,2021-07-08_16h32.16.422,ImageRatingTask_S4,2021.1.4,Win32,59.88741167,0,2,2,23,1,DreamStudyImages_rs1000x750g/Children/Faces_110_h.jpg,,,
,,5,3.027,1,0.6581,7,1.6121,1,1.171,6,1.0418,0,0,0,0,1,main,4,22,Female,R,Donders,2021-07-08_16h32.16.422,ImageRatingTask_S4,2021.1.4,Win32,59.88741167,,,,,,,,,
,,,,,,,,,,,,0,1,1,1,1,second,4,22,Female,R,Donders,2021-07-08_16h32.16.422,ImageRatingTask_S4,2021.1.4,Win32,59.88741167,,,,,,,,,
,,,,,,,,,,,,0,2,2,2,1,third,4,22,Female,R,Donders,2021-07-08_16h32.16.422,ImageRatingTask_S4,2021.1.4,Win32,59.88741167,,,,,,,,,
,,,,,,,,,,,,0,3,3,3,1,fourth,4,22,Female,R,Donders,2021-07-08_16h32.16.422,ImageRatingTask_S4,2021.1.4,Win32,59.88741167,,,,,,,,,
,,,,,,,,,,,,0,4,4,4,1,fifth,4,22,Female,R,Donders,2021-07-08_16h32.16.422,ImageRatingTask_S4,2021.1.4,Win32,59.88741167,,,,,,,,,
,,,,,,,,,,,,0,5,5,5,1,sixth,4,22,Female,R,Donders,2021-07-08_16h32.16.422,ImageRatingTask_S4,2021.1.4,Win32,59.88741167,,,,,,,,,
,,,,,,,,,,,,0,6,6,6,1,seventh,4,22,Female,R,Donders,2021-07-08_16h32.16.422,ImageRatingTask_S4,2021.1.4,Win32,59.88741167,,,,,,,,,
,,,,,,,,,,,,0,7,7,7,1,last,4,22,Female,R,Donders,2021-07-08_16h32.16.422,ImageRatingTask_S4,2021.1.4,Win32,59.88741167,,,,,,,,,
,,,,,,,,,,,,,,,,,,4,22,Female,R,Donders,2021-07-08_16h32.16.422,ImageRatingTask_S4,2021.1.4,Win32,59.88741167,0,3,3,51,1,DreamStudyImages_rs1000x750g/Houses/Landscapes_034_h.jpg,,,
,,2,6.5102,4,1.0597,6,3.9311,1,2.3287,3,0.7176,0,0,0,0,1,main,4,22,Female,R,Donders,2021-07-08_16h32.16.422,ImageRatingTask_S4,2021.1.4,Win32,59.88741167,,,,,,,,,
,,,,,,,,,,,,0,1,1,1,1,second,4,22,Female,R,Donders,2021-07-08_16h32.16.422,ImageRatingTask_S4,2021.1.4,Win32,59.88741167,,,,,,,,,
,,,,,,,,,,,,0,2,2,2,1,third,4,22,Female,R,Donders,2021-07-08_16h32.16.422,ImageRatingTask_S4,2021.1.4,Win32,59.88741167,,,,,,,,,
,,,,,,,,,,,,0,3,3,3,1,fourth,4,22,Female,R,Donders,2021-07-08_16h32.16.422,ImageRatingTask_S4,2021.1.4,Win32,59.88741167,,,,,,,,,
,,,,,,,,,,,,0,4,4,4,1,fifth,4,22,Female,R,Donders,2021-07-08_16h32.16.422,ImageRatingTask_S4,2021.1.4,Win32,59.88741167,,,,,,,,,
,,,,,,,,,,,,0,5,5,5,1,sixth,4,22,Female,R,Donders,2021-07-08_16h32.16.422,ImageRatingTask_S4,2021.1.4,Win32,59.88741167,,,,,,,,,
,,,,,,,,,,,,0,6,6,6,1,seventh,4,22,Female,R,Donders,2021-07-08_16h32.16.422,ImageRatingTask_S4,2021.1.4,Win32,59.88741167,,,,,,,,,
,,,,,,,,,,,,0,7,7,7,1,last,4,22,Female,R,Donders,2021-07-08_16h32.16.422,ImageRatingTask_S4,2021.1.4,Win32,59.88741167,,,,,,,,,
,,,,,,,,,,,,,,,,,,4,22,Female,R,Donders,2021-07-08_16h32.16.422,ImageRatingTask_S4,2021.1.4,Win32,59.88741167,0,4,4,60,1,DreamStudyImages_rs1000x750g/Mammals/Animals_209_h.jpg,,,
,,3,9.8409,1,1.6419,6,2.5207,0,2.0496,,,0,0,0,0,1,main,4,22,Female,R,Donders,2021-07-08_16h32.16.422,ImageRatingTask_S4,2021.1.4,Win32,59.88741167,,,,,,,,,
,,,,,,,,,,,,0,1,1,1,1,second,4,22,Female,R,Donders,2021-07-08_16h32.16.422,ImageRatingTask_S4,2021.1.4,Win32,59.88741167,,,,,,,,,
,,,,,,,,,,,,0,2,2,2,1,third,4,22,Female,R,Donders,2021-07-08_16h32.16.422,ImageRatingTask_S4,2021.1.4,Win32,59.88741167,,,,,,,,,
,,,,,,,,,,,,0,3,3,3,1,fourth,4,22,Female,R,Donders,2021-07-08_16h32.16.422,ImageRatingTask_S4,2021.1.4,Win32,59.88741167,,,,,,,,,
,,,,,,,,,,,,0,4,4,4,1,fifth,4,22,Female,R,Donders,2021-07-08_16h32.16.422,ImageRatingTask_S4,2021.1.4,Win32,59.88741167,,,,,,,,,
,,,,,,,,,,,,0,5,5,5,1,sixth,4,22,Female,R,Donders,2021-07-08_16h32.16.422,ImageRatingTask_S4,2021.1.4,Win32,59.88741167,,,,,,,,,
,,,,,,,,,,,,0,6,6,6,1,seventh,4,22,Female,R,Donders,2021-07-08_16h32.16.422,ImageRatingTask_S4,2021.1.4,Win32,59.88741167,,,,,,,,,
,,,,,,,,,,,,0,7,7,7,1,last,4,22,Female,R,Donders,2021-07-08_16h32.16.422,ImageRatingTask_S4,2021.1.4,Win32,59.88741167,,,,,,,,,
,,,,,,,,,,,,,,,,,,4,22,Female,R,Donders,2021-07-08_16h32.16.422,ImageRatingTask_S4,2021.1.4,Win32,59.88741167,0,5,5,72,1,DreamStudyImages_rs1000x750g/Vehicles/Landscapes_005_h.jpg,,,
,,7,5.5367,3,3.0516,6,1.929,1,0.9273,2,0.1292,0,0,0,0,1,main,4,22,Female,R,Donders,2021-07-08_16h32.16.422,ImageRatingTask_S4,2021.1.4,Win32,59.88741167,,,,,,,,,
,,,,,,,,,,,,0,1,1,1,1,second,4,22,Female,R,Donders,2021-07-08_16h32.16.422,ImageRatingTask_S4,2021.1.4,Win32,59.88741167,,,,,,,,,
,,,,,,,,,,,,0,2,2,2,1,third,4,22,Female,R,Donders,2021-07-08_16h32.16.422,ImageRatingTask_S4,2021.1.4,Win32,59.88741167,,,,,,,,,
,,,,,,,,,,,,0,3,3,3,1,fourth,4,22,Female,R,Donders,2021-07-08_16h32.16.422,ImageRatingTask_S4,2021.1.4,Win32,59.88741167,,,,,,,,,
,,,,,,,,,,,,0,4,4,4,1,fifth,4,22,Female,R,Donders,2021-07-08_16h32.16.422,ImageRatingTask_S4,2021.1.4,Win32,59.88741167,,,,,,,,,
,,,,,,,,,,,,0,5,5,5,1,sixth,4,22,Female,R,Donders,2021-07-08_16h32.16.422,ImageRatingTask_S4,2021.1.4,Win32,59.88741167,,,,,,,,,
,,,,,,,,,,,,0,6,6,6,1,seventh,4,22,Female,R,Donders,2021-07-08_16h32.16.422,ImageRatingTask_S4,2021.1.4,Win32,59.88741167,,,,,,,,,
,,,,,,,,,,,,0,7,7,7,1,last,4,22,Female,R,Donders,2021-07-08_16h32.16.422,ImageRatingTask_S4,2021.1.4,Win32,59.88741167,,,,,,,,,
,,,,,,,,,,,,,,,,,,4,22,Female,R,Donders,2021-07-08_16h32.16.422,ImageRatingTask_S4,2021.1.4,Win32,59.88741167,0,6,6,42,1,DreamStudyImages_rs1000x750g/Children/2045.jpg,,,
,,5,4.111,1,1.0326,6,9.3898,1,1.0636,3,0.2793,0,0,0,0,1,main,4,22,Female,R,Donders,2021-07-08_16h32.16.422,ImageRatingTask_S4,2021.1.4,Win32,59.88741167,,,,,,,,,
,,,,,,,,,,,,0,1,1,1,1,second,4,22,Female,R,Donders,2021-07-08_16h32.16.422,ImageRatingTask_S4,2021.1.4,Win32,59.88741167,,,,,,,,,
,,,,,,,,,,,,0,2,2,2,1,third,4,22,Female,R,Donders,2021-07-08_16h32.16.422,ImageRatingTask_S4,2021.1.4,Win32,59.88741167,,,,,,,,,
,,,,,,,,,,,,0,3,3,3,1,fourth,4,22,Female,R,Donders,2021-07-08_16h32.16.422,ImageRatingTask_S4,2021.1.4,Win32,59.88741167,,,,,,,,,
,,,,,,,,,,,,0,4,4,4,1,fifth,4,22,Female,R,Donders,2021-07-08_16h32.16.422,ImageRatingTask_S4,2021.1.4,Win32,59.88741167,,,,,,,,,
,,,,,,,,,,,,0,5,5,5,1,sixth,4,22,Female,R,Donders,2021-07-08_16h32.16.422,ImageRatingTask_S4,2021.1.4,Win32,59.88741167,,,,,,,,,
,,,,,,,,,,,,0,6,6,6,1,seventh,4,22,Female,R,Donders,2021-07-08_16h32.16.422,ImageRatingTask_S4,2021.1.4,Win32,59.88741167,,,,,,,,,
,,,,,,,,,,,,0,7,7,7,1,last,4,22,Female,R,Donders,2021-07-08_16h32.16.422,ImageRatingTask_S4,2021.1.4,Win32,59.88741167,,,,,,,,,
,,,,,,,,,,,,,,,,,,4,22,Female,R,Donders,2021-07-08_16h32.16.422,ImageRatingTask_S4,2021.1.4,Win32,59.88741167,0,7,7,141,1,DreamStudyImages_rs1000x750g/Mammals/Animals_180_h.jpg,,,
,,6,9.208,3,1.5251,8,4.0769,1,1.1133,2,0.1155,0,0,0,0,1,main,4,22,Female,R,Donders,2021-07-08_16h32.16.422,ImageRatingTask_S4,2021.1.4,Win32,59.88741167,,,,,,,,,
,,,,,,,,,,,,0,1,1,1,1,second,4,22,Female,R,Donders,2021-07-08_16h32.16.422,ImageRatingTask_S4,2021.1.4,Win32,59.88741167,,,,,,,,,
,,,,,,,,,,,,0,2,2,2,1,third,4,22,Female,R,Donders,2021-07-08_16h32.16.422,ImageRatingTask_S4,2021.1.4,Win32,59.88741167,,,,,,,,,
,,,,,,,,,,,,0,3,3,3,1,fourth,4,22,Female,R,Donders,2021-07-08_16h32.16.422,ImageRatingTask_S4,2021.1.4,Win32,59.88741167,,,,,,,,,
,,,,,,,,,,,,0,4,4,4,1,fifth,4,22,Female,R,Donders,2021-07-08_16h32.16.422,ImageRatingTask_S4,2021.1.4,Win32,59.88741167,,,,,,,,,
,,,,,,,,,,,,0,5,5,5,1,sixth,4,22,Female,R,Donders,2021-07-08_16h32.16.422,ImageRatingTask_S4,2021.1.4,Win32,59.88741167,,,,,,,,,
,,,,,,,,,,,,0,6,6,6,1,seventh,4,22,Female,R,Donders,2021-07-08_16h32.16.422,ImageRatingTask_S4,2021.1.4,Win32,59.88741167,,,,,,,,,
,,,,,,,,,,,,0,7,7,7,1,last,4,22,Female,R,Donders,2021-07-08_16h32.16.422,ImageRatingTask_S4,2021.1.4,Win32,59.88741167,,,,,,,,,
,,,,,,,,,,,,,,,,,,4,22,Female,R,Donders,2021-07-08_16h32.16.422,ImageRatingTask_S4,2021.1.4,Win32,59.88741167,0,8,8,144,1,DreamStudyImages_rs1000x750g/Children/Faces_100_h.jpg,,,
,,5,24.8181,2,1.3943,3,1.8286,1,2.7225,8,0.6925,0,0,0,0,1,main,4,22,Female,R,Donders,2021-07-08_16h32.16.422,ImageRatingTask_S4,2021.1.4,Win32,59.88741167,,,,,,,,,
,,,,,,,,,,,,0,1,1,1,1,second,4,22,Female,R,Donders,2021-07-08_16h32.16.422,ImageRatingTask_S4,2021.1.4,Win32,59.88741167,,,,,,,,,
,,,,,,,,,,,,0,2,2,2,1,third,4,22,Female,R,Donders,2021-07-08_16h32.16.422,ImageRatingTask_S4,2021.1.4,Win32,59.88741167,,,,,,,,,
,,,,,,,,,,,,0,3,3,3,1,fourth,4,22,Female,R,Donders,2021-07-08_16h32.16.422,ImageRatingTask_S4,2021.1.4,Win32,59.88741167,,,,,,,,,
,,,,,,,,,,,,0,4,4,4,1,fifth,4,22,Female,R,Donders,2021-07-08_16h32.16.422,ImageRatingTask_S4,2021.1.4,Win32,59.88741167,,,,,,,,,
,,,,,,,,,,,,0,5,5,5,1,sixth,4,22,Female,R,Donders,2021-07-08_16h32.16.422,ImageRatingTask_S4,2021.1.4,Win32,59.88741167,,,,,,,,,
,,,,,,,,,,,,0,6,6,6,1,seventh,4,22,Female,R,Donders,2021-07-08_16h32.16.422,ImageRatingTask_S4,2021.1.4,Win32,59.88741167,,,,,,,,,
,,,,,,,,,,,,0,7,7,7,1,last,4,22,Female,R,Donders,2021-07-08_16h32.16.422,ImageRatingTask_S4,2021.1.4,Win32,59.88741167,,,,,,,,,
,,,,,,,,,,,,,,,,,,4,22,Female,R,Donders,2021-07-08_16h32.16.422,ImageRatingTask_S4,2021.1.4,Win32,59.88741167,0,9,9,40,1,DreamStudyImages_rs1000x750g/Water/Lightning 1.jpg,,,
,,4,2.7247,3,1.0313,7,1.6371,1,0.8385,7,0.6206,0,0,0,0,1,main,4,22,Female,R,Donders,2021-07-08_16h32.16.422,ImageRatingTask_S4,2021.1.4,Win32,59.88741167,,,,,,,,,
,,,,,,,,,,,,0,1,1,1,1,second,4,22,Female,R,Donders,2021-07-08_16h32.16.422,ImageRatingTask_S4,2021.1.4,Win32,59.88741167,,,,,,,,,
,,,,,,,,,,,,0,2,2,2,1,third,4,22,Female,R,Donders,2021-07-08_16h32.16.422,ImageRatingTask_S4,2021.1.4,Win32,59.88741167,,,,,,,,,
,,,,,,,,,,,,0,3,3,3,1,fourth,4,22,Female,R,Donders,2021-07-08_16h32.16.422,ImageRatingTask_S4,2021.1.4,Win32,59.88741167,,,,,,,,,
,,,,,,,,,,,,0,4,4,4,1,fifth,4,22,Female,R,Donders,2021-07-08_16h32.16.422,ImageRatingTask_S4,2021.1.4,Win32,59.88741167,,,,,,,,,
,,,,,,,,,,,,0,5,5,5,1,sixth,4,22,Female,R,Donders,2021-07-08_16h32.16.422,ImageRatingTask_S4,2021.1.4,Win32,59.88741167,,,,,,,,,
,,,,,,,,,,,,0,6,6,6,1,seventh,4,22,Female,R,Donders,2021-07-08_16h32.16.422,ImageRatingTask_S4,2021.1.4,Win32,59.88741167,,,,,,,,,
,,,,,,,,,,,,0,7,7,7,1,last,4,22,Female,R,Donders,2021-07-08_16h32.16.422,ImageRatingTask_S4,2021.1.4,Win32,59.88741167,,,,,,,,,
,,,,,,,,,,,,,,,,,,4,22,Female,R,Donders,2021-07-08_16h32.16.422,ImageRatingTask_S4,2021.1.4,Win32,59.88741167,0,10,10,90,1,DreamStudyImages_rs1000x750g/Vehicles/Objects_284_h.jpg,,,
,,5,3.3704,1,0.9602,5,1.9424,1,1.0264,5,0.4109,0,0,0,0,1,main,4,22,Female,R,Donders,2021-07-08_16h32.16.422,ImageRatingTask_S4,2021.1.4,Win32,59.88741167,,,,,,,,,
,,,,,,,,,,,,0,1,1,1,1,second,4,22,Female,R,Donders,2021-07-08_16h32.16.422,ImageRatingTask_S4,2021.1.4,Win32,59.88741167,,,,,,,,,
,,,,,,,,,,,,0,2,2,2,1,third,4,22,Female,R,Donders,2021-07-08_16h32.16.422,ImageRatingTask_S4,2021.1.4,Win32,59.88741167,,,,,,,,,
,,,,,,,,,,,,0,3,3,3,1,fourth,4,22,Female,R,Donders,2021-07-08_16h32.16.422,ImageRatingTask_S4,2021.1.4,Win32,59.88741167,,,,,,,,,
,,,,,,,,,,,,0,4,4,4,1,fifth,4,22,Female,R,Donders,2021-07-08_16h32.16.422,ImageRatingTask_S4,2021.1.4,Win32,59.88741167,,,,,,,,,
,,,,,,,,,,,,0,5,5,5,1,sixth,4,22,Female,R,Donders,2021-07-08_16h32.16.422,ImageRatingTask_S4,2021.1.4,Win32,59.88741167,,,,,,,,,
,,,,,,,,,,,,0,6,6,6,1,seventh,4,22,Female,R,Donders,2021-07-08_16h32.16.422,ImageRatingTask_S4,2021.1.4,Win32,59.88741167,,,,,,,,,
,,,,,,,,,,,,0,7,7,7,1,last,4,22,Female,R,Donders,2021-07-08_16h32.16.422,ImageRatingTask_S4,2021.1.4,Win32,59.88741167,,,,,,,,,
,,,,,,,,,,,,,,,,,,4,22,Female,R,Donders,2021-07-08_16h32.16.422,ImageRatingTask_S4,2021.1.4,Win32,59.88741167,0,11,11,20,1,DreamStudyImages_rs1000x750g/Food/Objects_095_h.jpg,,,
,,5,4.4607,3,1.8767,8,2.8644,1,1.0291,7,0.7894,0,0,0,0,1,main,4,22,Female,R,Donders,2021-07-08_16h32.16.422,ImageRatingTask_S4,2021.1.4,Win32,59.88741167,,,,,,,,,
,,,,,,,,,,,,0,1,1,1,1,second,4,22,Female,R,Donders,2021-07-08_16h32.16.422,ImageRatingTask_S4,2021.1.4,Win32,59.88741167,,,,,,,,,
,,,,,,,,,,,,0,2,2,2,1,third,4,22,Female,R,Donders,2021-07-08_16h32.16.422,ImageRatingTask_S4,2021.1.4,Win32,59.88741167,,,,,,,,,
,,,,,,,,,,,,0,3,3,3,1,fourth,4,22,Female,R,Donders,2021-07-08_16h32.16.422,ImageRatingTask_S4,2021.1.4,Win32,59.88741167,,,,,,,,,
,,,,,,,,,,,,0,4,4,4,1,fifth,4,22,Female,R,Donders,2021-07-08_16h32.16.422,ImageRatingTask_S4,2021.1.4,Win32,59.88741167,,,,,,,,,
,,,,,,,,,,,,0,5,5,5,1,sixth,4,22,Female,R,Donders,2021-07-08_16h32.16.422,ImageRatingTask_S4,2021.1.4,Win32,59.88741167,,,,,,,,,
,,,,,,,,,,,,0,6,6,6,1,seventh,4,22,Female,R,Donders,2021-07-08_16h32.16.422,ImageRatingTask_S4,2021.1.4,Win32,59.88741167,,,,,,,,,
,,,,,,,,,,,,0,7,7,7,1,last,4,22,Female,R,Donders,2021-07-08_16h32.16.422,ImageRatingTask_S4,2021.1.4,Win32,59.88741167,,,,,,,,,
,,,,,,,,,,,,,,,,,,4,22,Female,R,Donders,2021-07-08_16h32.16.422,ImageRatingTask_S4,2021.1.4,Win32,59.88741167,0,12,12,67,1,DreamStudyImages_rs1000x750g/Vehicles/7135.jpg,,,
,,2,2.8605,5,1.6123,7,1.6229,1,0.918,2,0.1088,0,0,0,0,1,main,4,22,Female,R,Donders,2021-07-08_16h32.16.422,ImageRatingTask_S4,2021.1.4,Win32,59.88741167,,,,,,,,,
,,,,,,,,,,,,0,1,1,1,1,second,4,22,Female,R,Donders,2021-07-08_16h32.16.422,ImageRatingTask_S4,2021.1.4,Win32,59.88741167,,,,,,,,,
,,,,,,,,,,,,0,2,2,2,1,third,4,22,Female,R,Donders,2021-07-08_16h32.16.422,ImageRatingTask_S4,2021.1.4,Win32,59.88741167,,,,,,,,,
,,,,,,,,,,,,0,3,3,3,1,fourth,4,22,Female,R,Donders,2021-07-08_16h32.16.422,ImageRatingTask_S4,2021.1.4,Win32,59.88741167,,,,,,,,,
,,,,,,,,,,,,0,4,4,4,1,fifth,4,22,Female,R,Donders,2021-07-08_16h32.16.422,ImageRatingTask_S4,2021.1.4,Win32,59.88741167,,,,,,,,,
,,,,,,,,,,,,0,5,5,5,1,sixth,4,22,Female,R,Donders,2021-07-08_16h32.16.422,ImageRatingTask_S4,2021.1.4,Win32,59.88741167,,,,,,,,,
,,,,,,,,,,,,0,6,6,6,1,seventh,4,22,Female,R,Donders,2021-07-08_16h32.16.422,ImageRatingTask_S4,2021.1.4,Win32,59.88741167,,,,,,,,,
,,,,,,,,,,,,0,7,7,7,1,last,4,22,Female,R,Donders,2021-07-08_16h32.16.422,ImageRatingTask_S4,2021.1.4,Win32,59.88741167,,,,,,,,,
,,,,,,,,,,,,,,,,,,4,22,Female,R,Donders,2021-07-08_16h32.16.422,ImageRatingTask_S4,2021.1.4,Win32,59.88741167,0,13,13,120,1,DreamStudyImages_rs1000x750g/Children/People_039_v.jpg,,,
,,4,7.2265,3,1.4767,5,1.5898,1,1.1415,5,0.8914,0,0,0,0,1,main,4,22,Female,R,Donders,2021-07-08_16h32.16.422,ImageRatingTask_S4,2021.1.4,Win32,59.88741167,,,,,,,,,
,,,,,,,,,,,,0,1,1,1,1,second,4,22,Female,R,Donders,2021-07-08_16h32.16.422,ImageRatingTask_S4,2021.1.4,Win32,59.88741167,,,,,,,,,
,,,,,,,,,,,,0,2,2,2,1,third,4,22,Female,R,Donders,2021-07-08_16h32.16.422,ImageRatingTask_S4,2021.1.4,Win32,59.88741167,,,,,,,,,
,,,,,,,,,,,,0,3,3,3,1,fourth,4,22,Female,R,Donders,2021-07-08_16h32.16.422,ImageRatingTask_S4,2021.1.4,Win32,59.88741167,,,,,,,,,
,,,,,,,,,,,,0,4,4,4,1,fifth,4,22,Female,R,Donders,2021-07-08_16h32.16.422,ImageRatingTask_S4,2021.1.4,Win32,59.88741167,,,,,,,,,
,,,,,,,,,,,,0,5,5,5,1,sixth,4,22,Female,R,Donders,2021-07-08_16h32.16.422,ImageRatingTask_S4,2021.1.4,Win32,59.88741167,,,,,,,,,
,,,,,,,,,,,,0,6,6,6,1,seventh,4,22,Female,R,Donders,2021-07-08_16h32.16.422,ImageRatingTask_S4,2021.1.4,Win32,59.88741167,,,,,,,,,
,,,,,,,,,,,,0,7,7,7,1,last,4,22,Female,R,Donders,2021-07-08_16h32.16.422,ImageRatingTask_S4,2021.1.4,Win32,59.88741167,,,,,,,,,
,,,,,,,,,,,,,,,,,,4,22,Female,R,Donders,2021-07-08_16h32.16.422,ImageRatingTask_S4,2021.1.4,Win32,59.88741167,0,14,14,7,1,DreamStudyImages_rs1000x750g/Food/IAPS7470_pancakes.jpg,,,
,,5,2.3071,1,0.7435,7,1.5887,1,0.625,7,0.6055,0,0,0,0,1,main,4,22,Female,R,Donders,2021-07-08_16h32.16.422,ImageRatingTask_S4,2021.1.4,Win32,59.88741167,,,,,,,,,
,,,,,,,,,,,,0,1,1,1,1,second,4,22,Female,R,Donders,2021-07-08_16h32.16.422,ImageRatingTask_S4,2021.1.4,Win32,59.88741167,,,,,,,,,
,,,,,,,,,,,,0,2,2,2,1,third,4,22,Female,R,Donders,2021-07-08_16h32.16.422,ImageRatingTask_S4,2021.1.4,Win32,59.88741167,,,,,,,,,
,,,,,,,,,,,,0,3,3,3,1,fourth,4,22,Female,R,Donders,2021-07-08_16h32.16.422,ImageRatingTask_S4,2021.1.4,Win32,59.88741167,,,,,,,,,
,,,,,,,,,,,,0,4,4,4,1,fifth,4,22,Female,R,Donders,2021-07-08_16h32.16.422,ImageRatingTask_S4,2021.1.4,Win32,59.88741167,,,,,,,,,
,,,,,,,,,,,,0,5,5,5,1,sixth,4,22,Female,R,Donders,2021-07-08_16h32.16.422,ImageRatingTask_S4,2021.1.4,Win32,59.88741167,,,,,,,,,
,,,,,,,,,,,,0,6,6,6,1,seventh,4,22,Female,R,Donders,2021-07-08_16h32.16.422,ImageRatingTask_S4,2021.1.4,Win32,59.88741167,,,,,,,,,
,,,,,,,,,,,,0,7,7,7,1,last,4,22,Female,R,Donders,2021-07-08_16h32.16.422,ImageRatingTask_S4,2021.1.4,Win32,59.88741167,,,,,,,,,
,,,,,,,,,,,,,,,,,,4,22,Female,R,Donders,2021-07-08_16h32.16.422,ImageRatingTask_S4,2021.1.4,Win32,59.88741167,0,15,15,55,1,DreamStudyImages_rs1000x750g/Vehicles/Objects_309_h.jpg,,,
,,6,4.4424,1,1.2994,7,2.9088,1,1.3375,8,0.3756,0,0,0,0,1,main,4,22,Female,R,Donders,2021-07-08_16h32.16.422,ImageRatingTask_S4,2021.1.4,Win32,59.88741167,,,,,,,,,
,,,,,,,,,,,,0,1,1,1,1,second,4,22,Female,R,Donders,2021-07-08_16h32.16.422,ImageRatingTask_S4,2021.1.4,Win32,59.88741167,,,,,,,,,
,,,,,,,,,,,,0,2,2,2,1,third,4,22,Female,R,Donders,2021-07-08_16h32.16.422,ImageRatingTask_S4,2021.1.4,Win32,59.88741167,,,,,,,,,
,,,,,,,,,,,,0,3,3,3,1,fourth,4,22,Female,R,Donders,2021-07-08_16h32.16.422,ImageRatingTask_S4,2021.1.4,Win32,59.88741167,,,,,,,,,
,,,,,,,,,,,,0,4,4,4,1,fifth,4,22,Female,R,Donders,2021-07-08_16h32.16.422,ImageRatingTask_S4,2021.1.4,Win32,59.88741167,,,,,,,,,
,,,,,,,,,,,,0,5,5,5,1,sixth,4,22,Female,R,Donders,2021-07-08_16h32.16.422,ImageRatingTask_S4,2021.1.4,Win32,59.88741167,,,,,,,,,
,,,,,,,,,,,,0,6,6,6,1,seventh,4,22,Female,R,Donders,2021-07-08_16h32.16.422,ImageRatingTask_S4,2021.1.4,Win32,59.88741167,,,,,,,,,
,,,,,,,,,,,,0,7,7,7,1,last,4,22,Female,R,Donders,2021-07-08_16h32.16.422,ImageRatingTask_S4,2021.1.4,Win32,59.88741167,,,,,,,,,
,,,,,,,,,,,,,,,,,,4,22,Female,R,Donders,2021-07-08_16h32.16.422,ImageRatingTask_S4,2021.1.4,Win32,59.88741167,0,16,16,18,1,DreamStudyImages_rs1000x750g/Water/Landscapes_136_h.jpg,,,
,,7,2.9575,1,1.3923,5,2.3764,1,0.9718,8,0.6146,0,0,0,0,1,main,4,22,Female,R,Donders,2021-07-08_16h32.16.422,ImageRatingTask_S4,2021.1.4,Win32,59.88741167,,,,,,,,,
,,,,,,,,,,,,0,1,1,1,1,second,4,22,Female,R,Donders,2021-07-08_16h32.16.422,ImageRatingTask_S4,2021.1.4,Win32,59.88741167,,,,,,,,,
,,,,,,,,,,,,0,2,2,2,1,third,4,22,Female,R,Donders,2021-07-08_16h32.16.422,ImageRatingTask_S4,2021.1.4,Win32,59.88741167,,,,,,,,,
,,,,,,,,,,,,0,3,3,3,1,fourth,4,22,Female,R,Donders,2021-07-08_16h32.16.422,ImageRatingTask_S4,2021.1.4,Win32,59.88741167,,,,,,,,,
,,,,,,,,,,,,0,4,4,4,1,fifth,4,22,Female,R,Donders,2021-07-08_16h32.16.422,ImageRatingTask_S4,2021.1.4,Win32,59.88741167,,,,,,,,,
,,,,,,,,,,,,0,5,5,5,1,sixth,4,22,Female,R,Donders,2021-07-08_16h32.16.422,ImageRatingTask_S4,2021.1.4,Win32,59.88741167,,,,,,,,,
,,,,,,,,,,,,0,6,6,6,1,seventh,4,22,Female,R,Donders,2021-07-08_16h32.16.422,ImageRatingTask_S4,2021.1.4,Win32,59.88741167,,,,,,,,,
,,,,,,,,,,,,0,7,7,7,1,last,4,22,Female,R,Donders,2021-07-08_16h32.16.422,ImageRatingTask_S4,2021.1.4,Win32,59.88741167,,,,,,,,,
,,,,,,,,,,,,,,,,,,4,22,Female,R,Donders,2021-07-08_16h32.16.422,ImageRatingTask_S4,2021.1.4,Win32,59.88741167,0,17,17,94,1,DreamStudyImages_rs1000x750g/Water/5210.jpg,,,
,,5,3.3621,1,1.1274,7,1.7429,1,0.8571,2,0.1287,0,0,0,0,1,main,4,22,Female,R,Donders,2021-07-08_16h32.16.422,ImageRatingTask_S4,2021.1.4,Win32,59.88741167,,,,,,,,,
,,,,,,,,,,,,0,1,1,1,1,second,4,22,Female,R,Donders,2021-07-08_16h32.16.422,ImageRatingTask_S4,2021.1.4,Win32,59.88741167,,,,,,,,,
,,,,,,,,,,,,0,2,2,2,1,third,4,22,Female,R,Donders,2021-07-08_16h32.16.422,ImageRatingTask_S4,2021.1.4,Win32,59.88741167,,,,,,,,,
,,,,,,,,,,,,0,3,3,3,1,fourth,4,22,Female,R,Donders,2021-07-08_16h32.16.422,ImageRatingTask_S4,2021.1.4,Win32,59.88741167,,,,,,,,,
,,,,,,,,,,,,0,4,4,4,1,fifth,4,22,Female,R,Donders,2021-07-08_16h32.16.422,ImageRatingTask_S4,2021.1.4,Win32,59.88741167,,,,,,,,,
,,,,,,,,,,,,0,5,5,5,1,sixth,4,22,Female,R,Donders,2021-07-08_16h32.16.422,ImageRatingTask_S4,2021.1.4,Win32,59.88741167,,,,,,,,,
,,,,,,,,,,,,0,6,6,6,1,seventh,4,22,Female,R,Donders,2021-07-08_16h32.16.422,ImageRatingTask_S4,2021.1.4,Win32,59.88741167,,,,,,,,,
,,,,,,,,,,,,0,7,7,7,1,last,4,22,Female,R,Donders,2021-07-08_16h32.16.422,ImageRatingTask_S4,2021.1.4,Win32,59.88741167,,,,,,,,,
,,,,,,,,,,,,,,,,,,4,22,Female,R,Donders,2021-07-08_16h32.16.422,ImageRatingTask_S4,2021.1.4,Win32,59.88741167,0,18,18,16,1,DreamStudyImages_rs1000x750g/Children/Faces_048_h.jpg,,,
,,5,4.1235,2,0.9951,4,1.6289,1,1.0373,7,0.5071,0,0,0,0,1,main,4,22,Female,R,Donders,2021-07-08_16h32.16.422,ImageRatingTask_S4,2021.1.4,Win32,59.88741167,,,,,,,,,
,,,,,,,,,,,,0,1,1,1,1,second,4,22,Female,R,Donders,2021-07-08_16h32.16.422,ImageRatingTask_S4,2021.1.4,Win32,59.88741167,,,,,,,,,
,,,,,,,,,,,,0,2,2,2,1,third,4,22,Female,R,Donders,2021-07-08_16h32.16.422,ImageRatingTask_S4,2021.1.4,Win32,59.88741167,,,,,,,,,
,,,,,,,,,,,,0,3,3,3,1,fourth,4,22,Female,R,Donders,2021-07-08_16h32.16.422,ImageRatingTask_S4,2021.1.4,Win32,59.88741167,,,,,,,,,
,,,,,,,,,,,,0,4,4,4,1,fifth,4,22,Female,R,Donders,2021-07-08_16h32.16.422,ImageRatingTask_S4,2021.1.4,Win32,59.88741167,,,,,,,,,
,,,,,,,,,,,,0,5,5,5,1,sixth,4,22,Female,R,Donders,2021-07-08_16h32.16.422,ImageRatingTask_S4,2021.1.4,Win32,59.88741167,,,,,,,,,
,,,,,,,,,,,,0,6,6,6,1,seventh,4,22,Female,R,Donders,2021-07-08_16h32.16.422,ImageRatingTask_S4,2021.1.4,Win32,59.88741167,,,,,,,,,
,,,,,,,,,,,,0,7,7,7,1,last,4,22,Female,R,Donders,2021-07-08_16h32.16.422,ImageRatingTask_S4,2021.1.4,Win32,59.88741167,,,,,,,,,
,,,,,,,,,,,,,,,,,,4,22,Female,R,Donders,2021-07-08_16h32.16.422,ImageRatingTask_S4,2021.1.4,Win32,59.88741167,0,19,19,5,1,DreamStudyImages_rs1000x750g/Vehicles/IAPS6910_aircraft.jpg,,,
,,3,2.1417,5,10.6364,5,1.8785,1,1.2786,4,1.2616,0,0,0,0,1,main,4,22,Female,R,Donders,2021-07-08_16h32.16.422,ImageRatingTask_S4,2021.1.4,Win32,59.88741167,,,,,,,,,
,,,,,,,,,,,,0,1,1,1,1,second,4,22,Female,R,Donders,2021-07-08_16h32.16.422,ImageRatingTask_S4,2021.1.4,Win32,59.88741167,,,,,,,,,
,,,,,,,,,,,,0,2,2,2,1,third,4,22,Female,R,Donders,2021-07-08_16h32.16.422,ImageRatingTask_S4,2021.1.4,Win32,59.88741167,,,,,,,,,
,,,,,,,,,,,,0,3,3,3,1,fourth,4,22,Female,R,Donders,2021-07-08_16h32.16.422,ImageRatingTask_S4,2021.1.4,Win32,59.88741167,,,,,,,,,
,,,,,,,,,,,,0,4,4,4,1,fifth,4,22,Female,R,Donders,2021-07-08_16h32.16.422,ImageRatingTask_S4,2021.1.4,Win32,59.88741167,,,,,,,,,
,,,,,,,,,,,,0,5,5,5,1,sixth,4,22,Female,R,Donders,2021-07-08_16h32.16.422,ImageRatingTask_S4,2021.1.4,Win32,59.88741167,,,,,,,,,
,,,,,,,,,,,,0,6,6,6,1,seventh,4,22,Female,R,Donders,2021-07-08_16h32.16.422,ImageRatingTask_S4,2021.1.4,Win32,59.88741167,,,,,,,,,
,,,,,,,,,,,,0,7,7,7,1,last,4,22,Female,R,Donders,2021-07-08_16h32.16.422,ImageRatingTask_S4,2021.1.4,Win32,59.88741167,,,,,,,,,
,,,,,,,,,,,,,,,,,,4,22,Female,R,Donders,2021-07-08_16h32.16.422,ImageRatingTask_S4,2021.1.4,Win32,59.88741167,0,20,20,70,1,DreamStudyImages_rs1000x750g/Mammals/Opossum 1.jpg,,,
,,5,4.5457,2,1.191,6,1.6057,1,0.9203,6,0.4657,0,0,0,0,1,main,4,22,Female,R,Donders,2021-07-08_16h32.16.422,ImageRatingTask_S4,2021.1.4,Win32,59.88741167,,,,,,,,,
,,,,,,,,,,,,0,1,1,1,1,second,4,22,Female,R,Donders,2021-07-08_16h32.16.422,ImageRatingTask_S4,2021.1.4,Win32,59.88741167,,,,,,,,,
,,,,,,,,,,,,0,2,2,2,1,third,4,22,Female,R,Donders,2021-07-08_16h32.16.422,ImageRatingTask_S4,2021.1.4,Win32,59.88741167,,,,,,,,,
,,,,,,,,,,,,0,3,3,3,1,fourth,4,22,Female,R,Donders,2021-07-08_16h32.16.422,ImageRatingTask_S4,2021.1.4,Win32,59.88741167,,,,,,,,,
,,,,,,,,,,,,0,4,4,4,1,fifth,4,22,Female,R,Donders,2021-07-08_16h32.16.422,ImageRatingTask_S4,2021.1.4,Win32,59.88741167,,,,,,,,,
,,,,,,,,,,,,0,5,5,5,1,sixth,4,22,Female,R,Donders,2021-07-08_16h32.16.422,ImageRatingTask_S4,2021.1.4,Win32,59.88741167,,,,,,,,,
,,,,,,,,,,,,0,6,6,6,1,seventh,4,22,Female,R,Donders,2021-07-08_16h32.16.422,ImageRatingTask_S4,2021.1.4,Win32,59.88741167,,,,,,,,,
,,,,,,,,,,,,0,7,7,7,1,last,4,22,Female,R,Donders,2021-07-08_16h32.16.422,ImageRatingTask_S4,2021.1.4,Win32,59.88741167,,,,,,,,,
,,,,,,,,,,,,,,,,,,4,22,Female,R,Donders,2021-07-08_16h32.16.422,ImageRatingTask_S4,2021.1.4,Win32,59.88741167,0,21,21,146,1,DreamStudyImages_rs1000x750g/Houses/IAPS9468_doortag.jpg,,,
,,6,5.6927,1,1.0662,4,1.7385,1,1.89,6,0.7716,0,0,0,0,1,main,4,22,Female,R,Donders,2021-07-08_16h32.16.422,ImageRatingTask_S4,2021.1.4,Win32,59.88741167,,,,,,,,,
,,,,,,,,,,,,0,1,1,1,1,second,4,22,Female,R,Donders,2021-07-08_16h32.16.422,ImageRatingTask_S4,2021.1.4,Win32,59.88741167,,,,,,,,,
,,,,,,,,,,,,0,2,2,2,1,third,4,22,Female,R,Donders,2021-07-08_16h32.16.422,ImageRatingTask_S4,2021.1.4,Win32,59.88741167,,,,,,,,,
,,,,,,,,,,,,0,3,3,3,1,fourth,4,22,Female,R,Donders,2021-07-08_16h32.16.422,ImageRatingTask_S4,2021.1.4,Win32,59.88741167,,,,,,,,,
,,,,,,,,,,,,0,4,4,4,1,fifth,4,22,Female,R,Donders,2021-07-08_16h32.16.422,ImageRatingTask_S4,2021.1.4,Win32,59.88741167,,,,,,,,,
,,,,,,,,,,,,0,5,5,5,1,sixth,4,22,Female,R,Donders,2021-07-08_16h32.16.422,ImageRatingTask_S4,2021.1.4,Win32,59.88741167,,,,,,,,,
,,,,,,,,,,,,0,6,6,6,1,seventh,4,22,Female,R,Donders,2021-07-08_16h32.16.422,ImageRatingTask_S4,2021.1.4,Win32,59.88741167,,,,,,,,,
,,,,,,,,,,,,0,7,7,7,1,last,4,22,Female,R,Donders,2021-07-08_16h32.16.422,ImageRatingTask_S4,2021.1.4,Win32,59.88741167,,,,,,,,,
,,,,,,,,,,,,,,,,,,4,22,Female,R,Donders,2021-07-08_16h32.16.422,ImageRatingTask_S4,2021.1.4,Win32,59.88741167,0,22,22,133,1,DreamStudyImages_rs1000x750g/Houses/IAPS5779_house3.jpg,,,
,,2,2.8252,5,1.409,6,4.9875,1,1.1449,3,0.4831,0,0,0,0,1,main,4,22,Female,R,Donders,2021-07-08_16h32.16.422,ImageRatingTask_S4,2021.1.4,Win32,59.88741167,,,,,,,,,
,,,,,,,,,,,,0,1,1,1,1,second,4,22,Female,R,Donders,2021-07-08_16h32.16.422,ImageRatingTask_S4,2021.1.4,Win32,59.88741167,,,,,,,,,
,,,,,,,,,,,,0,2,2,2,1,third,4,22,Female,R,Donders,2021-07-08_16h32.16.422,ImageRatingTask_S4,2021.1.4,Win32,59.88741167,,,,,,,,,
,,,,,,,,,,,,0,3,3,3,1,fourth,4,22,Female,R,Donders,2021-07-08_16h32.16.422,ImageRatingTask_S4,2021.1.4,Win32,59.88741167,,,,,,,,,
,,,,,,,,,,,,0,4,4,4,1,fifth,4,22,Female,R,Donders,2021-07-08_16h32.16.422,ImageRatingTask_S4,2021.1.4,Win32,59.88741167,,,,,,,,,
,,,,,,,,,,,,0,5,5,5,1,sixth,4,22,Female,R,Donders,2021-07-08_16h32.16.422,ImageRatingTask_S4,2021.1.4,Win32,59.88741167,,,,,,,,,
,,,,,,,,,,,,0,6,6,6,1,seventh,4,22,Female,R,Donders,2021-07-08_16h32.16.422,ImageRatingTask_S4,2021.1.4,Win32,59.88741167,,,,,,,,,
,,,,,,,,,,,,0,7,7,7,1,last,4,22,Female,R,Donders,2021-07-08_16h32.16.422,ImageRatingTask_S4,2021.1.4,Win32,59.88741167,,,,,,,,,
,,,,,,,,,,,,,,,,,,4,22,Female,R,Donders,2021-07-08_16h32.16.422,ImageRatingTask_S4,2021.1.4,Win32,59.88741167,0,23,23,123,1,DreamStudyImages_rs1000x750g/Mammals/Animals_066_h.jpg,,,
,,2,2.0535,6,1.2033,3,2.1409,1,0.9675,6,0.6676,0,0,0,0,1,main,4,22,Female,R,Donders,2021-07-08_16h32.16.422,ImageRatingTask_S4,2021.1.4,Win32,59.88741167,,,,,,,,,
,,,,,,,,,,,,0,1,1,1,1,second,4,22,Female,R,Donders,2021-07-08_16h32.16.422,ImageRatingTask_S4,2021.1.4,Win32,59.88741167,,,,,,,,,
,,,,,,,,,,,,0,2,2,2,1,third,4,22,Female,R,Donders,2021-07-08_16h32.16.422,ImageRatingTask_S4,2021.1.4,Win32,59.88741167,,,,,,,,,
,,,,,,,,,,,,0,3,3,3,1,fourth,4,22,Female,R,Donders,2021-07-08_16h32.16.422,ImageRatingTask_S4,2021.1.4,Win32,59.88741167,,,,,,,,,
,,,,,,,,,,,,0,4,4,4,1,fifth,4,22,Female,R,Donders,2021-07-08_16h32.16.422,ImageRatingTask_S4,2021.1.4,Win32,59.88741167,,,,,,,,,
,,,,,,,,,,,,0,5,5,5,1,sixth,4,22,Female,R,Donders,2021-07-08_16h32.16.422,ImageRatingTask_S4,2021.1.4,Win32,59.88741167,,,,,,,,,
,,,,,,,,,,,,0,6,6,6,1,seventh,4,22,Female,R,Donders,2021-07-08_16h32.16.422,ImageRatingTask_S4,2021.1.4,Win32,59.88741167,,,,,,,,,
,,,,,,,,,,,,0,7,7,7,1,last,4,22,Female,R,Donders,2021-07-08_16h32.16.422,ImageRatingTask_S4,2021.1.4,Win32,59.88741167,,,,,,,,,
,,,,,,,,,,,,,,,,,,4,22,Female,R,Donders,2021-07-08_16h32.16.422,ImageRatingTask_S4,2021.1.4,Win32,59.88741167,0,24,24,1,1,DreamStudyImages_rs1000x750g/Houses/NDPS4_buildings2_water_CROPPED.jpg,,,
,,4,5.2391,2,1.3967,5,1.9884,1,1.0097,3,0.2585,0,0,0,0,1,main,4,22,Female,R,Donders,2021-07-08_16h32.16.422,ImageRatingTask_S4,2021.1.4,Win32,59.88741167,,,,,,,,,
,,,,,,,,,,,,0,1,1,1,1,second,4,22,Female,R,Donders,2021-07-08_16h32.16.422,ImageRatingTask_S4,2021.1.4,Win32,59.88741167,,,,,,,,,
,,,,,,,,,,,,0,2,2,2,1,third,4,22,Female,R,Donders,2021-07-08_16h32.16.422,ImageRatingTask_S4,2021.1.4,Win32,59.88741167,,,,,,,,,
,,,,,,,,,,,,0,3,3,3,1,fourth,4,22,Female,R,Donders,2021-07-08_16h32.16.422,ImageRatingTask_S4,2021.1.4,Win32,59.88741167,,,,,,,,,
,,,,,,,,,,,,0,4,4,4,1,fifth,4,22,Female,R,Donders,2021-07-08_16h32.16.422,ImageRatingTask_S4,2021.1.4,Win32,59.88741167,,,,,,,,,
,,,,,,,,,,,,0,5,5,5,1,sixth,4,22,Female,R,Donders,2021-07-08_16h32.16.422,ImageRatingTask_S4,2021.1.4,Win32,59.88741167,,,,,,,,,
,,,,,,,,,,,,0,6,6,6,1,seventh,4,22,Female,R,Donders,2021-07-08_16h32.16.422,ImageRatingTask_S4,2021.1.4,Win32,59.88741167,,,,,,,,,
,,,,,,,,,,,,0,7,7,7,1,last,4,22,Female,R,Donders,2021-07-08_16h32.16.422,ImageRatingTask_S4,2021.1.4,Win32,59.88741167,,,,,,,,,
,,,,,,,,,,,,,,,,,,4,22,Female,R,Donders,2021-07-08_16h32.16.422,ImageRatingTask_S4,2021.1.4,Win32,59.88741167,0,25,25,30,1,DreamStudyImages_rs1000x750g/Mammals/Cat 6.jpg,,,
,,5,2.3055,1,1.3112,4,2.159,1,1.0141,7,0.5055,0,0,0,0,1,main,4,22,Female,R,Donders,2021-07-08_16h32.16.422,ImageRatingTask_S4,2021.1.4,Win32,59.88741167,,,,,,,,,
,,,,,,,,,,,,0,1,1,1,1,second,4,22,Female,R,Donders,2021-07-08_16h32.16.422,ImageRatingTask_S4,2021.1.4,Win32,59.88741167,,,,,,,,,
,,,,,,,,,,,,0,2,2,2,1,third,4,22,Female,R,Donders,2021-07-08_16h32.16.422,ImageRatingTask_S4,2021.1.4,Win32,59.88741167,,,,,,,,,
,,,,,,,,,,,,0,3,3,3,1,fourth,4,22,Female,R,Donders,2021-07-08_16h32.16.422,ImageRatingTask_S4,2021.1.4,Win32,59.88741167,,,,,,,,,
,,,,,,,,,,,,0,4,4,4,1,fifth,4,22,Female,R,Donders,2021-07-08_16h32.16.422,ImageRatingTask_S4,2021.1.4,Win32,59.88741167,,,,,,,,,
,,,,,,,,,,,,0,5,5,5,1,sixth,4,22,Female,R,Donders,2021-07-08_16h32.16.422,ImageRatingTask_S4,2021.1.4,Win32,59.88741167,,,,,,,,,
,,,,,,,,,,,,0,6,6,6,1,seventh,4,22,Female,R,Donders,2021-07-08_16h32.16.422,ImageRatingTask_S4,2021.1.4,Win32,59.88741167,,,,,,,,,
,,,,,,,,,,,,0,7,7,7,1,last,4,22,Female,R,Donders,2021-07-08_16h32.16.422,ImageRatingTask_S4,2021.1.4,Win32,59.88741167,,,,,,,,,
,,,,,,,,,,,,,,,,,,4,22,Female,R,Donders,2021-07-08_16h32.16.422,ImageRatingTask_S4,2021.1.4,Win32,59.88741167,0,26,26,100,1,DreamStudyImages_rs1000x750g/Vehicles/7590.jpg,,,
,,1,3.3929,2,2.9612,6,1.9621,1,0.8927,2,0.2248,0,0,0,0,1,main,4,22,Female,R,Donders,2021-07-08_16h32.16.422,ImageRatingTask_S4,2021.1.4,Win32,59.88741167,,,,,,,,,
,,,,,,,,,,,,0,1,1,1,1,second,4,22,Female,R,Donders,2021-07-08_16h32.16.422,ImageRatingTask_S4,2021.1.4,Win32,59.88741167,,,,,,,,,
,,,,,,,,,,,,0,2,2,2,1,third,4,22,Female,R,Donders,2021-07-08_16h32.16.422,ImageRatingTask_S4,2021.1.4,Win32,59.88741167,,,,,,,,,
,,,,,,,,,,,,0,3,3,3,1,fourth,4,22,Female,R,Donders,2021-07-08_16h32.16.422,ImageRatingTask_S4,2021.1.4,Win32,59.88741167,,,,,,,,,
,,,,,,,,,,,,0,4,4,4,1,fifth,4,22,Female,R,Donders,2021-07-08_16h32.16.422,ImageRatingTask_S4,2021.1.4,Win32,59.88741167,,,,,,,,,
,,,,,,,,,,,,0,5,5,5,1,sixth,4,22,Female,R,Donders,2021-07-08_16h32.16.422,ImageRatingTask_S4,2021.1.4,Win32,59.88741167,,,,,,,,,
,,,,,,,,,,,,0,6,6,6,1,seventh,4,22,Female,R,Donders,2021-07-08_16h32.16.422,ImageRatingTask_S4,2021.1.4,Win32,59.88741167,,,,,,,,,
,,,,,,,,,,,,0,7,7,7,1,last,4,22,Female,R,Donders,2021-07-08_16h32.16.422,ImageRatingTask_S4,2021.1.4,Win32,59.88741167,,,,,,,,,
,,,,,,,,,,,,,,,,,,4,22,Female,R,Donders,2021-07-08_16h32.16.422,ImageRatingTask_S4,2021.1.4,Win32,59.88741167,0,27,27,22,1,DreamStudyImages_rs1000x750g/Children/Faces_012_v.jpg,,,
,,4,2.706,2,1.4072,5,3.2046,1,1.0804,2,0.1138,0,0,0,0,1,main,4,22,Female,R,Donders,2021-07-08_16h32.16.422,ImageRatingTask_S4,2021.1.4,Win32,59.88741167,,,,,,,,,
,,,,,,,,,,,,0,1,1,1,1,second,4,22,Female,R,Donders,2021-07-08_16h32.16.422,ImageRatingTask_S4,2021.1.4,Win32,59.88741167,,,,,,,,,
,,,,,,,,,,,,0,2,2,2,1,third,4,22,Female,R,Donders,2021-07-08_16h32.16.422,ImageRatingTask_S4,2021.1.4,Win32,59.88741167,,,,,,,,,
,,,,,,,,,,,,0,3,3,3,1,fourth,4,22,Female,R,Donders,2021-07-08_16h32.16.422,ImageRatingTask_S4,2021.1.4,Win32,59.88741167,,,,,,,,,
,,,,,,,,,,,,0,4,4,4,1,fifth,4,22,Female,R,Donders,2021-07-08_16h32.16.422,ImageRatingTask_S4,2021.1.4,Win32,59.88741167,,,,,,,,,
,,,,,,,,,,,,0,5,5,5,1,sixth,4,22,Female,R,Donders,2021-07-08_16h32.16.422,ImageRatingTask_S4,2021.1.4,Win32,59.88741167,,,,,,,,,
,,,,,,,,,,,,0,6,6,6,1,seventh,4,22,Female,R,Donders,2021-07-08_16h32.16.422,ImageRatingTask_S4,2021.1.4,Win32,59.88741167,,,,,,,,,
,,,,,,,,,,,,0,7,7,7,1,last,4,22,Female,R,Donders,2021-07-08_16h32.16.422,ImageRatingTask_S4,2021.1.4,Win32,59.88741167,,,,,,,,,
,,,,,,,,,,,,,,,,,,4,22,Female,R,Donders,2021-07-08_16h32.16.422,ImageRatingTask_S4,2021.1.4,Win32,59.88741167,0,28,28,31,1,DreamStudyImages_rs1000x750g/Children/IAPS2058_baby6.jpg,,,
,,7,3.4528,2,1.3331,6,4.6231,1,0.956,2,0.1245,0,0,0,0,1,main,4,22,Female,R,Donders,2021-07-08_16h32.16.422,ImageRatingTask_S4,2021.1.4,Win32,59.88741167,,,,,,,,,
,,,,,,,,,,,,0,1,1,1,1,second,4,22,Female,R,Donders,2021-07-08_16h32.16.422,ImageRatingTask_S4,2021.1.4,Win32,59.88741167,,,,,,,,,
,,,,,,,,,,,,0,2,2,2,1,third,4,22,Female,R,Donders,2021-07-08_16h32.16.422,ImageRatingTask_S4,2021.1.4,Win32,59.88741167,,,,,,,,,
,,,,,,,,,,,,0,3,3,3,1,fourth,4,22,Female,R,Donders,2021-07-08_16h32.16.422,ImageRatingTask_S4,2021.1.4,Win32,59.88741167,,,,,,,,,
,,,,,,,,,,,,0,4,4,4,1,fifth,4,22,Female,R,Donders,2021-07-08_16h32.16.422,ImageRatingTask_S4,2021.1.4,Win32,59.88741167,,,,,,,,,
,,,,,,,,,,,,0,5,5,5,1,sixth,4,22,Female,R,Donders,2021-07-08_16h32.16.422,ImageRatingTask_S4,2021.1.4,Win32,59.88741167,,,,,,,,,
,,,,,,,,,,,,0,6,6,6,1,seventh,4,22,Female,R,Donders,2021-07-08_16h32.16.422,ImageRatingTask_S4,2021.1.4,Win32,59.88741167,,,,,,,,,
,,,,,,,,,,,,0,7,7,7,1,last,4,22,Female,R,Donders,2021-07-08_16h32.16.422,ImageRatingTask_S4,2021.1.4,Win32,59.88741167,,,,,,,,,
,,,,,,,,,,,,,,,,,,4,22,Female,R,Donders,2021-07-08_16h32.16.422,ImageRatingTask_S4,2021.1.4,Win32,59.88741167,0,29,29,154,1,DreamStudyImages_rs1000x750g/Children/Siblings 1.jpg,,,
,,7,1.8419,3,1.6646,5,15.0904,1,0.9293,2,0.1181,0,0,0,0,1,main,4,22,Female,R,Donders,2021-07-08_16h32.16.422,ImageRatingTask_S4,2021.1.4,Win32,59.88741167,,,,,,,,,
,,,,,,,,,,,,0,1,1,1,1,second,4,22,Female,R,Donders,2021-07-08_16h32.16.422,ImageRatingTask_S4,2021.1.4,Win32,59.88741167,,,,,,,,,
,,,,,,,,,,,,0,2,2,2,1,third,4,22,Female,R,Donders,2021-07-08_16h32.16.422,ImageRatingTask_S4,2021.1.4,Win32,59.88741167,,,,,,,,,
,,,,,,,,,,,,0,3,3,3,1,fourth,4,22,Female,R,Donders,2021-07-08_16h32.16.422,ImageRatingTask_S4,2021.1.4,Win32,59.88741167,,,,,,,,,
,,,,,,,,,,,,0,4,4,4,1,fifth,4,22,Female,R,Donders,2021-07-08_16h32.16.422,ImageRatingTask_S4,2021.1.4,Win32,59.88741167,,,,,,,,,
,,,,,,,,,,,,0,5,5,5,1,sixth,4,22,Female,R,Donders,2021-07-08_16h32.16.422,ImageRatingTask_S4,2021.1.4,Win32,59.88741167,,,,,,,,,
,,,,,,,,,,,,0,6,6,6,1,seventh,4,22,Female,R,Donders,2021-07-08_16h32.16.422,ImageRatingTask_S4,2021.1.4,Win32,59.88741167,,,,,,,,,
,,,,,,,,,,,,0,7,7,7,1,last,4,22,Female,R,Donders,2021-07-08_16h32.16.422,ImageRatingTask_S4,2021.1.4,Win32,59.88741167,,,,,,,,,
,,,,,,,,,,,,,,,,,,4,22,Female,R,Donders,2021-07-08_16h32.16.422,ImageRatingTask_S4,2021.1.4,Win32,59.88741167,0,30,30,17,1,DreamStudyImages_rs1000x750g/Children/Surprise 2.jpg,,,
,,5,3.2416,2,1.5075,7,1.8544,1,1.4007,7,0.579,0,0,0,0,1,main,4,22,Female,R,Donders,2021-07-08_16h32.16.422,ImageRatingTask_S4,2021.1.4,Win32,59.88741167,,,,,,,,,
,,,,,,,,,,,,0,1,1,1,1,second,4,22,Female,R,Donders,2021-07-08_16h32.16.422,ImageRatingTask_S4,2021.1.4,Win32,59.88741167,,,,,,,,,
,,,,,,,,,,,,0,2,2,2,1,third,4,22,Female,R,Donders,2021-07-08_16h32.16.422,ImageRatingTask_S4,2021.1.4,Win32,59.88741167,,,,,,,,,
,,,,,,,,,,,,0,3,3,3,1,fourth,4,22,Female,R,Donders,2021-07-08_16h32.16.422,ImageRatingTask_S4,2021.1.4,Win32,59.88741167,,,,,,,,,
,,,,,,,,,,,,0,4,4,4,1,fifth,4,22,Female,R,Donders,2021-07-08_16h32.16.422,ImageRatingTask_S4,2021.1.4,Win32,59.88741167,,,,,,,,,
,,,,,,,,,,,,0,5,5,5,1,sixth,4,22,Female,R,Donders,2021-07-08_16h32.16.422,ImageRatingTask_S4,2021.1.4,Win32,59.88741167,,,,,,,,,
,,,,,,,,,,,,0,6,6,6,1,seventh,4,22,Female,R,Donders,2021-07-08_16h32.16.422,ImageRatingTask_S4,2021.1.4,Win32,59.88741167,,,,,,,,,
,,,,,,,,,,,,0,7,7,7,1,last,4,22,Female,R,Donders,2021-07-08_16h32.16.422,ImageRatingTask_S4,2021.1.4,Win32,59.88741167,,,,,,,,,
,,,,,,,,,,,,,,,,,,4,22,Female,R,Donders,2021-07-08_16h32.16.422,ImageRatingTask_S4,2021.1.4,Win32,59.88741167,0,31,31,97,1,DreamStudyImages_rs1000x750g/Vehicles/Objects_244_h.jpg,,,
,,2,2.4017,7,1.4023,4,3.4687,0,2.7618,,,0,0,0,0,1,main,4,22,Female,R,Donders,2021-07-08_16h32.16.422,ImageRatingTask_S4,2021.1.4,Win32,59.88741167,,,,,,,,,
,,,,,,,,,,,,0,1,1,1,1,second,4,22,Female,R,Donders,2021-07-08_16h32.16.422,ImageRatingTask_S4,2021.1.4,Win32,59.88741167,,,,,,,,,
,,,,,,,,,,,,0,2,2,2,1,third,4,22,Female,R,Donders,2021-07-08_16h32.16.422,ImageRatingTask_S4,2021.1.4,Win32,59.88741167,,,,,,,,,
,,,,,,,,,,,,0,3,3,3,1,fourth,4,22,Female,R,Donders,2021-07-08_16h32.16.422,ImageRatingTask_S4,2021.1.4,Win32,59.88741167,,,,,,,,,
,,,,,,,,,,,,0,4,4,4,1,fifth,4,22,Female,R,Donders,2021-07-08_16h32.16.422,ImageRatingTask_S4,2021.1.4,Win32,59.88741167,,,,,,,,,
,,,,,,,,,,,,0,5,5,5,1,sixth,4,22,Female,R,Donders,2021-07-08_16h32.16.422,ImageRatingTask_S4,2021.1.4,Win32,59.88741167,,,,,,,,,
,,,,,,,,,,,,0,6,6,6,1,seventh,4,22,Female,R,Donders,2021-07-08_16h32.16.422,ImageRatingTask_S4,2021.1.4,Win32,59.88741167,,,,,,,,,
,,,,,,,,,,,,0,7,7,7,1,last,4,22,Female,R,Donders,2021-07-08_16h32.16.422,ImageRatingTask_S4,2021.1.4,Win32,59.88741167,,,,,,,,,
,,,,,,,,,,,,,,,,,,4,22,Female,R,Donders,2021-07-08_16h32.16.422,ImageRatingTask_S4,2021.1.4,Win32,59.88741167,0,32,32,107,1,DreamStudyImages_rs1000x750g/Food/Objects_106_v.jpg,,,
,,6,3.4578,2,8.6273,5,1.5826,1,1.3549,2,0.0821,0,0,0,0,1,main,4,22,Female,R,Donders,2021-07-08_16h32.16.422,ImageRatingTask_S4,2021.1.4,Win32,59.88741167,,,,,,,,,
,,,,,,,,,,,,0,1,1,1,1,second,4,22,Female,R,Donders,2021-07-08_16h32.16.422,ImageRatingTask_S4,2021.1.4,Win32,59.88741167,,,,,,,,,
,,,,,,,,,,,,0,2,2,2,1,third,4,22,Female,R,Donders,2021-07-08_16h32.16.422,ImageRatingTask_S4,2021.1.4,Win32,59.88741167,,,,,,,,,
,,,,,,,,,,,,0,3,3,3,1,fourth,4,22,Female,R,Donders,2021-07-08_16h32.16.422,ImageRatingTask_S4,2021.1.4,Win32,59.88741167,,,,,,,,,
,,,,,,,,,,,,0,4,4,4,1,fifth,4,22,Female,R,Donders,2021-07-08_16h32.16.422,ImageRatingTask_S4,2021.1.4,Win32,59.88741167,,,,,,,,,
,,,,,,,,,,,,0,5,5,5,1,sixth,4,22,Female,R,Donders,2021-07-08_16h32.16.422,ImageRatingTask_S4,2021.1.4,Win32,59.88741167,,,,,,,,,
,,,,,,,,,,,,0,6,6,6,1,seventh,4,22,Female,R,Donders,2021-07-08_16h32.16.422,ImageRatingTask_S4,2021.1.4,Win32,59.88741167,,,,,,,,,
,,,,,,,,,,,,0,7,7,7,1,last,4,22,Female,R,Donders,2021-07-08_16h32.16.422,ImageRatingTask_S4,2021.1.4,Win32,59.88741167,,,,,,,,,
,,,,,,,,,,,,,,,,,,4,22,Female,R,Donders,2021-07-08_16h32.16.422,ImageRatingTask_S4,2021.1.4,Win32,59.88741167,0,33,33,13,1,DreamStudyImages_rs1000x750g/Children/Gazing 6.jpg,,,
,,1,1.5569,6,1.1763,6,2.5215,1,1.2565,3,1.8173,0,0,0,0,1,main,4,22,Female,R,Donders,2021-07-08_16h32.16.422,ImageRatingTask_S4,2021.1.4,Win32,59.88741167,,,,,,,,,
,,,,,,,,,,,,0,1,1,1,1,second,4,22,Female,R,Donders,2021-07-08_16h32.16.422,ImageRatingTask_S4,2021.1.4,Win32,59.88741167,,,,,,,,,
,,,,,,,,,,,,0,2,2,2,1,third,4,22,Female,R,Donders,2021-07-08_16h32.16.422,ImageRatingTask_S4,2021.1.4,Win32,59.88741167,,,,,,,,,
,,,,,,,,,,,,0,3,3,3,1,fourth,4,22,Female,R,Donders,2021-07-08_16h32.16.422,ImageRatingTask_S4,2021.1.4,Win32,59.88741167,,,,,,,,,
,,,,,,,,,,,,0,4,4,4,1,fifth,4,22,Female,R,Donders,2021-07-08_16h32.16.422,ImageRatingTask_S4,2021.1.4,Win32,59.88741167,,,,,,,,,
,,,,,,,,,,,,0,5,5,5,1,sixth,4,22,Female,R,Donders,2021-07-08_16h32.16.422,ImageRatingTask_S4,2021.1.4,Win32,59.88741167,,,,,,,,,
,,,,,,,,,,,,0,6,6,6,1,seventh,4,22,Female,R,Donders,2021-07-08_16h32.16.422,ImageRatingTask_S4,2021.1.4,Win32,59.88741167,,,,,,,,,
,,,,,,,,,,,,0,7,7,7,1,last,4,22,Female,R,Donders,2021-07-08_16h32.16.422,ImageRatingTask_S4,2021.1.4,Win32,59.88741167,,,,,,,,,
,,,,,,,,,,,,,,,,,,4,22,Female,R,Donders,2021-07-08_16h32.16.422,ImageRatingTask_S4,2021.1.4,Win32,59.88741167,0,34,34,143,1,DreamStudyImages_rs1000x750g/Mammals/Animals_075_h.jpg,,,
,,7,5.5942,3,5.444,6,4.8604,1,1.0142,2,0.1451,0,0,0,0,1,main,4,22,Female,R,Donders,2021-07-08_16h32.16.422,ImageRatingTask_S4,2021.1.4,Win32,59.88741167,,,,,,,,,
,,,,,,,,,,,,0,1,1,1,1,second,4,22,Female,R,Donders,2021-07-08_16h32.16.422,ImageRatingTask_S4,2021.1.4,Win32,59.88741167,,,,,,,,,
,,,,,,,,,,,,0,2,2,2,1,third,4,22,Female,R,Donders,2021-07-08_16h32.16.422,ImageRatingTask_S4,2021.1.4,Win32,59.88741167,,,,,,,,,
,,,,,,,,,,,,0,3,3,3,1,fourth,4,22,Female,R,Donders,2021-07-08_16h32.16.422,ImageRatingTask_S4,2021.1.4,Win32,59.88741167,,,,,,,,,
,,,,,,,,,,,,0,4,4,4,1,fifth,4,22,Female,R,Donders,2021-07-08_16h32.16.422,ImageRatingTask_S4,2021.1.4,Win32,59.88741167,,,,,,,,,
,,,,,,,,,,,,0,5,5,5,1,sixth,4,22,Female,R,Donders,2021-07-08_16h32.16.422,ImageRatingTask_S4,2021.1.4,Win32,59.88741167,,,,,,,,,
,,,,,,,,,,,,0,6,6,6,1,seventh,4,22,Female,R,Donders,2021-07-08_16h32.16.422,ImageRatingTask_S4,2021.1.4,Win32,59.88741167,,,,,,,,,
,,,,,,,,,,,,0,7,7,7,1,last,4,22,Female,R,Donders,2021-07-08_16h32.16.422,ImageRatingTask_S4,2021.1.4,Win32,59.88741167,,,,,,,,,
,,,,,,,,,,,,,,,,,,4,22,Female,R,Donders,2021-07-08_16h32.16.422,ImageRatingTask_S4,2021.1.4,Win32,59.88741167,0,35,35,91,1,DreamStudyImages_rs1000x750g/Children/Faces_136_v.jpg,,,
,,5,2.3803,2,19.069,5,1.8264,1,1.0232,3,0.5757,0,0,0,0,1,main,4,22,Female,R,Donders,2021-07-08_16h32.16.422,ImageRatingTask_S4,2021.1.4,Win32,59.88741167,,,,,,,,,
,,,,,,,,,,,,0,1,1,1,1,second,4,22,Female,R,Donders,2021-07-08_16h32.16.422,ImageRatingTask_S4,2021.1.4,Win32,59.88741167,,,,,,,,,
,,,,,,,,,,,,0,2,2,2,1,third,4,22,Female,R,Donders,2021-07-08_16h32.16.422,ImageRatingTask_S4,2021.1.4,Win32,59.88741167,,,,,,,,,
,,,,,,,,,,,,0,3,3,3,1,fourth,4,22,Female,R,Donders,2021-07-08_16h32.16.422,ImageRatingTask_S4,2021.1.4,Win32,59.88741167,,,,,,,,,
,,,,,,,,,,,,0,4,4,4,1,fifth,4,22,Female,R,Donders,2021-07-08_16h32.16.422,ImageRatingTask_S4,2021.1.4,Win32,59.88741167,,,,,,,,,
,,,,,,,,,,,,0,5,5,5,1,sixth,4,22,Female,R,Donders,2021-07-08_16h32.16.422,ImageRatingTask_S4,2021.1.4,Win32,59.88741167,,,,,,,,,
,,,,,,,,,,,,0,6,6,6,1,seventh,4,22,Female,R,Donders,2021-07-08_16h32.16.422,ImageRatingTask_S4,2021.1.4,Win32,59.88741167,,,,,,,,,
,,,,,,,,,,,,0,7,7,7,1,last,4,22,Female,R,Donders,2021-07-08_16h32.16.422,ImageRatingTask_S4,2021.1.4,Win32,59.88741167,,,,,,,,,
,,,,,,,,,,,,,,,,,,4,22,Female,R,Donders,2021-07-08_16h32.16.422,ImageRatingTask_S4,2021.1.4,Win32,59.88741167,0,36,36,95,1,DreamStudyImages_rs1000x750g/Mammals/IAPS1510_dog8.jpg,,,
,,5,2.7886,1,1.1418,4,1.7185,0,1.9354,,,0,0,0,0,1,main,4,22,Female,R,Donders,2021-07-08_16h32.16.422,ImageRatingTask_S4,2021.1.4,Win32,59.88741167,,,,,,,,,
,,,,,,,,,,,,0,1,1,1,1,second,4,22,Female,R,Donders,2021-07-08_16h32.16.422,ImageRatingTask_S4,2021.1.4,Win32,59.88741167,,,,,,,,,
,,,,,,,,,,,,0,2,2,2,1,third,4,22,Female,R,Donders,2021-07-08_16h32.16.422,ImageRatingTask_S4,2021.1.4,Win32,59.88741167,,,,,,,,,
,,,,,,,,,,,,0,3,3,3,1,fourth,4,22,Female,R,Donders,2021-07-08_16h32.16.422,ImageRatingTask_S4,2021.1.4,Win32,59.88741167,,,,,,,,,
,,,,,,,,,,,,0,4,4,4,1,fifth,4,22,Female,R,Donders,2021-07-08_16h32.16.422,ImageRatingTask_S4,2021.1.4,Win32,59.88741167,,,,,,,,,
,,,,,,,,,,,,0,5,5,5,1,sixth,4,22,Female,R,Donders,2021-07-08_16h32.16.422,ImageRatingTask_S4,2021.1.4,Win32,59.88741167,,,,,,,,,
,,,,,,,,,,,,0,6,6,6,1,seventh,4,22,Female,R,Donders,2021-07-08_16h32.16.422,ImageRatingTask_S4,2021.1.4,Win32,59.88741167,,,,,,,,,
,,,,,,,,,,,,0,7,7,7,1,last,4,22,Female,R,Donders,2021-07-08_16h32.16.422,ImageRatingTask_S4,2021.1.4,Win32,59.88741167,,,,,,,,,
,,,,,,,,,,,,,,,,,,4,22,Female,R,Donders,2021-07-08_16h32.16.422,ImageRatingTask_S4,2021.1.4,Win32,59.88741167,0,37,37,2,1,DreamStudyImages_rs1000x750g/Houses/Objects_193_v.jpg,,,
,,7,3.7579,2,1.324,6,1.6995,1,1.9165,5,0.6562,0,0,0,0,1,main,4,22,Female,R,Donders,2021-07-08_16h32.16.422,ImageRatingTask_S4,2021.1.4,Win32,59.88741167,,,,,,,,,
,,,,,,,,,,,,0,1,1,1,1,second,4,22,Female,R,Donders,2021-07-08_16h32.16.422,ImageRatingTask_S4,2021.1.4,Win32,59.88741167,,,,,,,,,
,,,,,,,,,,,,0,2,2,2,1,third,4,22,Female,R,Donders,2021-07-08_16h32.16.422,ImageRatingTask_S4,2021.1.4,Win32,59.88741167,,,,,,,,,
,,,,,,,,,,,,0,3,3,3,1,fourth,4,22,Female,R,Donders,2021-07-08_16h32.16.422,ImageRatingTask_S4,2021.1.4,Win32,59.88741167,,,,,,,,,
,,,,,,,,,,,,0,4,4,4,1,fifth,4,22,Female,R,Donders,2021-07-08_16h32.16.422,ImageRatingTask_S4,2021.1.4,Win32,59.88741167,,,,,,,,,
,,,,,,,,,,,,0,5,5,5,1,sixth,4,22,Female,R,Donders,2021-07-08_16h32.16.422,ImageRatingTask_S4,2021.1.4,Win32,59.88741167,,,,,,,,,
,,,,,,,,,,,,0,6,6,6,1,seventh,4,22,Female,R,Donders,2021-07-08_16h32.16.422,ImageRatingTask_S4,2021.1.4,Win32,59.88741167,,,,,,,,,
,,,,,,,,,,,,0,7,7,7,1,last,4,22,Female,R,Donders,2021-07-08_16h32.16.422,ImageRatingTask_S4,2021.1.4,Win32,59.88741167,,,,,,,,,
,,,,,,,,,,,,,,,,,,4,22,Female,R,Donders,2021-07-08_16h32.16.422,ImageRatingTask_S4,2021.1.4,Win32,59.88741167,0,38,38,155,1,DreamStudyImages_rs1000x750g/Food/Wedding 4.jpg,,,
,,7,6.5259,2,1.1276,6,1.6742,1,2.1373,3,0.812,0,0,0,0,1,main,4,22,Female,R,Donders,2021-07-08_16h32.16.422,ImageRatingTask_S4,2021.1.4,Win32,59.88741167,,,,,,,,,
,,,,,,,,,,,,0,1,1,1,1,second,4,22,Female,R,Donders,2021-07-08_16h32.16.422,ImageRatingTask_S4,2021.1.4,Win32,59.88741167,,,,,,,,,
,,,,,,,,,,,,0,2,2,2,1,third,4,22,Female,R,Donders,2021-07-08_16h32.16.422,ImageRatingTask_S4,2021.1.4,Win32,59.88741167,,,,,,,,,
,,,,,,,,,,,,0,3,3,3,1,fourth,4,22,Female,R,Donders,2021-07-08_16h32.16.422,ImageRatingTask_S4,2021.1.4,Win32,59.88741167,,,,,,,,,
,,,,,,,,,,,,0,4,4,4,1,fifth,4,22,Female,R,Donders,2021-07-08_16h32.16.422,ImageRatingTask_S4,2021.1.4,Win32,59.88741167,,,,,,,,,
,,,,,,,,,,,,0,5,5,5,1,sixth,4,22,Female,R,Donders,2021-07-08_16h32.16.422,ImageRatingTask_S4,2021.1.4,Win32,59.88741167,,,,,,,,,
,,,,,,,,,,,,0,6,6,6,1,seventh,4,22,Female,R,Donders,2021-07-08_16h32.16.422,ImageRatingTask_S4,2021.1.4,Win32,59.88741167,,,,,,,,,
,,,,,,,,,,,,0,7,7,7,1,last,4,22,Female,R,Donders,2021-07-08_16h32.16.422,ImageRatingTask_S4,2021.1.4,Win32,59.88741167,,,,,,,,,
,,,,,,,,,,,,,,,,,,4,22,Female,R,Donders,2021-07-08_16h32.16.422,ImageRatingTask_S4,2021.1.4,Win32,59.88741167,0,39,39,77,1,DreamStudyImages_rs1000x750g/Mammals/Chipmunk 2.jpg,,,
,,7,2.5056,1,1.1941,5,1.9229,1,1.1259,8,0.6944,0,0,0,0,1,main,4,22,Female,R,Donders,2021-07-08_16h32.16.422,ImageRatingTask_S4,2021.1.4,Win32,59.88741167,,,,,,,,,
,,,,,,,,,,,,0,1,1,1,1,second,4,22,Female,R,Donders,2021-07-08_16h32.16.422,ImageRatingTask_S4,2021.1.4,Win32,59.88741167,,,,,,,,,
,,,,,,,,,,,,0,2,2,2,1,third,4,22,Female,R,Donders,2021-07-08_16h32.16.422,ImageRatingTask_S4,2021.1.4,Win32,59.88741167,,,,,,,,,
,,,,,,,,,,,,0,3,3,3,1,fourth,4,22,Female,R,Donders,2021-07-08_16h32.16.422,ImageRatingTask_S4,2021.1.4,Win32,59.88741167,,,,,,,,,
,,,,,,,,,,,,0,4,4,4,1,fifth,4,22,Female,R,Donders,2021-07-08_16h32.16.422,ImageRatingTask_S4,2021.1.4,Win32,59.88741167,,,,,,,,,
,,,,,,,,,,,,0,5,5,5,1,sixth,4,22,Female,R,Donders,2021-07-08_16h32.16.422,ImageRatingTask_S4,2021.1.4,Win32,59.88741167,,,,,,,,,
,,,,,,,,,,,,0,6,6,6,1,seventh,4,22,Female,R,Donders,2021-07-08_16h32.16.422,ImageRatingTask_S4,2021.1.4,Win32,59.88741167,,,,,,,,,
,,,,,,,,,,,,0,7,7,7,1,last,4,22,Female,R,Donders,2021-07-08_16h32.16.422,ImageRatingTask_S4,2021.1.4,Win32,59.88741167,,,,,,,,,
,,,,,,,,,,,,,,,,,,4,22,Female,R,Donders,2021-07-08_16h32.16.422,ImageRatingTask_S4,2021.1.4,Win32,59.88741167,0,40,40,84,1,DreamStudyImages_rs1000x750g/Water/IAPS5780_lake2.jpg,,,
,,5,3.6061,1,1.2736,8,1.9727,1,2.6918,8,1.3904,0,0,0,0,1,main,4,22,Female,R,Donders,2021-07-08_16h32.16.422,ImageRatingTask_S4,2021.1.4,Win32,59.88741167,,,,,,,,,
,,,,,,,,,,,,0,1,1,1,1,second,4,22,Female,R,Donders,2021-07-08_16h32.16.422,ImageRatingTask_S4,2021.1.4,Win32,59.88741167,,,,,,,,,
,,,,,,,,,,,,0,2,2,2,1,third,4,22,Female,R,Donders,2021-07-08_16h32.16.422,ImageRatingTask_S4,2021.1.4,Win32,59.88741167,,,,,,,,,
,,,,,,,,,,,,0,3,3,3,1,fourth,4,22,Female,R,Donders,2021-07-08_16h32.16.422,ImageRatingTask_S4,2021.1.4,Win32,59.88741167,,,,,,,,,
,,,,,,,,,,,,0,4,4,4,1,fifth,4,22,Female,R,Donders,2021-07-08_16h32.16.422,ImageRatingTask_S4,2021.1.4,Win32,59.88741167,,,,,,,,,
,,,,,,,,,,,,0,5,5,5,1,sixth,4,22,Female,R,Donders,2021-07-08_16h32.16.422,ImageRatingTask_S4,2021.1.4,Win32,59.88741167,,,,,,,,,
,,,,,,,,,,,,0,6,6,6,1,seventh,4,22,Female,R,Donders,2021-07-08_16h32.16.422,ImageRatingTask_S4,2021.1.4,Win32,59.88741167,,,,,,,,,
,,,,,,,,,,,,0,7,7,7,1,last,4,22,Female,R,Donders,2021-07-08_16h32.16.422,ImageRatingTask_S4,2021.1.4,Win32,59.88741167,,,,,,,,,
,,,,,,,,,,,,,,,,,,4,22,Female,R,Donders,2021-07-08_16h32.16.422,ImageRatingTask_S4,2021.1.4,Win32,59.88741167,0,41,41,54,1,DreamStudyImages_rs1000x750g/Water/Landscapes_179_h.jpg,,,
,,8,2.6528,1,1.8089,5,3.3113,1,0.9979,8,0.5855,0,0,0,0,1,main,4,22,Female,R,Donders,2021-07-08_16h32.16.422,ImageRatingTask_S4,2021.1.4,Win32,59.88741167,,,,,,,,,
,,,,,,,,,,,,0,1,1,1,1,second,4,22,Female,R,Donders,2021-07-08_16h32.16.422,ImageRatingTask_S4,2021.1.4,Win32,59.88741167,,,,,,,,,
,,,,,,,,,,,,0,2,2,2,1,third,4,22,Female,R,Donders,2021-07-08_16h32.16.422,ImageRatingTask_S4,2021.1.4,Win32,59.88741167,,,,,,,,,
,,,,,,,,,,,,0,3,3,3,1,fourth,4,22,Female,R,Donders,2021-07-08_16h32.16.422,ImageRatingTask_S4,2021.1.4,Win32,59.88741167,,,,,,,,,
,,,,,,,,,,,,0,4,4,4,1,fifth,4,22,Female,R,Donders,2021-07-08_16h32.16.422,ImageRatingTask_S4,2021.1.4,Win32,59.88741167,,,,,,,,,
,,,,,,,,,,,,0,5,5,5,1,sixth,4,22,Female,R,Donders,2021-07-08_16h32.16.422,ImageRatingTask_S4,2021.1.4,Win32,59.88741167,,,,,,,,,
,,,,,,,,,,,,0,6,6,6,1,seventh,4,22,Female,R,Donders,2021-07-08_16h32.16.422,ImageRatingTask_S4,2021.1.4,Win32,59.88741167,,,,,,,,,
,,,,,,,,,,,,0,7,7,7,1,last,4,22,Female,R,Donders,2021-07-08_16h32.16.422,ImageRatingTask_S4,2021.1.4,Win32,59.88741167,,,,,,,,,
,,,,,,,,,,,,,,,,,,4,22,Female,R,Donders,2021-07-08_16h32.16.422,ImageRatingTask_S4,2021.1.4,Win32,59.88741167,0,42,42,89,1,DreamStudyImages_rs1000x750g/Water/Lake 8.jpg,,,
,,3,4.0736,3,1.7433,5,2.6661,0,1.828,,,0,0,0,0,1,main,4,22,Female,R,Donders,2021-07-08_16h32.16.422,ImageRatingTask_S4,2021.1.4,Win32,59.88741167,,,,,,,,,
,,,,,,,,,,,,0,1,1,1,1,second,4,22,Female,R,Donders,2021-07-08_16h32.16.422,ImageRatingTask_S4,2021.1.4,Win32,59.88741167,,,,,,,,,
,,,,,,,,,,,,0,2,2,2,1,third,4,22,Female,R,Donders,2021-07-08_16h32.16.422,ImageRatingTask_S4,2021.1.4,Win32,59.88741167,,,,,,,,,
,,,,,,,,,,,,0,3,3,3,1,fourth,4,22,Female,R,Donders,2021-07-08_16h32.16.422,ImageRatingTask_S4,2021.1.4,Win32,59.88741167,,,,,,,,,
,,,,,,,,,,,,0,4,4,4,1,fifth,4,22,Female,R,Donders,2021-07-08_16h32.16.422,ImageRatingTask_S4,2021.1.4,Win32,59.88741167,,,,,,,,,
,,,,,,,,,,,,0,5,5,5,1,sixth,4,22,Female,R,Donders,2021-07-08_16h32.16.422,ImageRatingTask_S4,2021.1.4,Win32,59.88741167,,,,,,,,,
,,,,,,,,,,,,0,6,6,6,1,seventh,4,22,Female,R,Donders,2021-07-08_16h32.16.422,ImageRatingTask_S4,2021.1.4,Win32,59.88741167,,,,,,,,,
,,,,,,,,,,,,0,7,7,7,1,last,4,22,Female,R,Donders,2021-07-08_16h32.16.422,ImageRatingTask_S4,2021.1.4,Win32,59.88741167,,,,,,,,,
,,,,,,,,,,,,,,,,,,4,22,Female,R,Donders,2021-07-08_16h32.16.422,ImageRatingTask_S4,2021.1.4,Win32,59.88741167,0,43,43,3,1,DreamStudyImages_rs1000x750g/Water/objects_108_v.jpg,,,
,,4,4.9289,2,2.1368,1,1.5903,1,2.3225,8,0.3617,0,0,0,0,1,main,4,22,Female,R,Donders,2021-07-08_16h32.16.422,ImageRatingTask_S4,2021.1.4,Win32,59.88741167,,,,,,,,,
,,,,,,,,,,,,0,1,1,1,1,second,4,22,Female,R,Donders,2021-07-08_16h32.16.422,ImageRatingTask_S4,2021.1.4,Win32,59.88741167,,,,,,,,,
,,,,,,,,,,,,0,2,2,2,1,third,4,22,Female,R,Donders,2021-07-08_16h32.16.422,ImageRatingTask_S4,2021.1.4,Win32,59.88741167,,,,,,,,,
,,,,,,,,,,,,0,3,3,3,1,fourth,4,22,Female,R,Donders,2021-07-08_16h32.16.422,ImageRatingTask_S4,2021.1.4,Win32,59.88741167,,,,,,,,,
,,,,,,,,,,,,0,4,4,4,1,fifth,4,22,Female,R,Donders,2021-07-08_16h32.16.422,ImageRatingTask_S4,2021.1.4,Win32,59.88741167,,,,,,,,,
,,,,,,,,,,,,0,5,5,5,1,sixth,4,22,Female,R,Donders,2021-07-08_16h32.16.422,ImageRatingTask_S4,2021.1.4,Win32,59.88741167,,,,,,,,,
,,,,,,,,,,,,0,6,6,6,1,seventh,4,22,Female,R,Donders,2021-07-08_16h32.16.422,ImageRatingTask_S4,2021.1.4,Win32,59.88741167,,,,,,,,,
,,,,,,,,,,,,0,7,7,7,1,last,4,22,Female,R,Donders,2021-07-08_16h32.16.422,ImageRatingTask_S4,2021.1.4,Win32,59.88741167,,,,,,,,,
,,,,,,,,,,,,,,,,,,4,22,Female,R,Donders,2021-07-08_16h32.16.422,ImageRatingTask_S4,2021.1.4,Win32,59.88741167,0,44,44,83,1,DreamStudyImages_rs1000x750g/Houses/Landscapes_086_v.jpg,,,
,,2,10.311,4,7.1915,5,2.856,1,0.8148,6,0.5461,0,0,0,0,1,main,4,22,Female,R,Donders,2021-07-08_16h32.16.422,ImageRatingTask_S4,2021.1.4,Win32,59.88741167,,,,,,,,,
,,,,,,,,,,,,0,1,1,1,1,second,4,22,Female,R,Donders,2021-07-08_16h32.16.422,ImageRatingTask_S4,2021.1.4,Win32,59.88741167,,,,,,,,,
,,,,,,,,,,,,0,2,2,2,1,third,4,22,Female,R,Donders,2021-07-08_16h32.16.422,ImageRatingTask_S4,2021.1.4,Win32,59.88741167,,,,,,,,,
,,,,,,,,,,,,0,3,3,3,1,fourth,4,22,Female,R,Donders,2021-07-08_16h32.16.422,ImageRatingTask_S4,2021.1.4,Win32,59.88741167,,,,,,,,,
,,,,,,,,,,,,0,4,4,4,1,fifth,4,22,Female,R,Donders,2021-07-08_16h32.16.422,ImageRatingTask_S4,2021.1.4,Win32,59.88741167,,,,,,,,,
,,,,,,,,,,,,0,5,5,5,1,sixth,4,22,Female,R,Donders,2021-07-08_16h32.16.422,ImageRatingTask_S4,2021.1.4,Win32,59.88741167,,,,,,,,,
,,,,,,,,,,,,0,6,6,6,1,seventh,4,22,Female,R,Donders,2021-07-08_16h32.16.422,ImageRatingTask_S4,2021.1.4,Win32,59.88741167,,,,,,,,,
,,,,,,,,,,,,0,7,7,7,1,last,4,22,Female,R,Donders,2021-07-08_16h32.16.422,ImageRatingTask_S4,2021.1.4,Win32,59.88741167,,,,,,,,,
,,,,,,,,,,,,,,,,,,4,22,Female,R,Donders,2021-07-08_16h32.16.422,ImageRatingTask_S4,2021.1.4,Win32,59.88741167,0,45,45,114,1,DreamStudyImages_rs1000x750g/Houses/9470.jpg,,,
,,5,2.5853,1,0.9712,5,1.5355,1,1.0373,6,0.5807,0,0,0,0,1,main,4,22,Female,R,Donders,2021-07-08_16h32.16.422,ImageRatingTask_S4,2021.1.4,Win32,59.88741167,,,,,,,,,
,,,,,,,,,,,,0,1,1,1,1,second,4,22,Female,R,Donders,2021-07-08_16h32.16.422,ImageRatingTask_S4,2021.1.4,Win32,59.88741167,,,,,,,,,
,,,,,,,,,,,,0,2,2,2,1,third,4,22,Female,R,Donders,2021-07-08_16h32.16.422,ImageRatingTask_S4,2021.1.4,Win32,59.88741167,,,,,,,,,
,,,,,,,,,,,,0,3,3,3,1,fourth,4,22,Female,R,Donders,2021-07-08_16h32.16.422,ImageRatingTask_S4,2021.1.4,Win32,59.88741167,,,,,,,,,
,,,,,,,,,,,,0,4,4,4,1,fifth,4,22,Female,R,Donders,2021-07-08_16h32.16.422,ImageRatingTask_S4,2021.1.4,Win32,59.88741167,,,,,,,,,
,,,,,,,,,,,,0,5,5,5,1,sixth,4,22,Female,R,Donders,2021-07-08_16h32.16.422,ImageRatingTask_S4,2021.1.4,Win32,59.88741167,,,,,,,,,
,,,,,,,,,,,,0,6,6,6,1,seventh,4,22,Female,R,Donders,2021-07-08_16h32.16.422,ImageRatingTask_S4,2021.1.4,Win32,59.88741167,,,,,,,,,
,,,,,,,,,,,,0,7,7,7,1,last,4,22,Female,R,Donders,2021-07-08_16h32.16.422,ImageRatingTask_S4,2021.1.4,Win32,59.88741167,,,,,,,,,
,,,,,,,,,,,,,,,,,,4,22,Female,R,Donders,2021-07-08_16h32.16.422,ImageRatingTask_S4,2021.1.4,Win32,59.88741167,0,46,46,33,1,DreamStudyImages_rs1000x750g/Houses/IAPS7242_building.jpg,,,
,,5,2.8424,2,2.1443,6,5.2134,1,1.0757,7,0.5187,0,0,0,0,1,main,4,22,Female,R,Donders,2021-07-08_16h32.16.422,ImageRatingTask_S4,2021.1.4,Win32,59.88741167,,,,,,,,,
,,,,,,,,,,,,0,1,1,1,1,second,4,22,Female,R,Donders,2021-07-08_16h32.16.422,ImageRatingTask_S4,2021.1.4,Win32,59.88741167,,,,,,,,,
,,,,,,,,,,,,0,2,2,2,1,third,4,22,Female,R,Donders,2021-07-08_16h32.16.422,ImageRatingTask_S4,2021.1.4,Win32,59.88741167,,,,,,,,,
,,,,,,,,,,,,0,3,3,3,1,fourth,4,22,Female,R,Donders,2021-07-08_16h32.16.422,ImageRatingTask_S4,2021.1.4,Win32,59.88741167,,,,,,,,,
,,,,,,,,,,,,0,4,4,4,1,fifth,4,22,Female,R,Donders,2021-07-08_16h32.16.422,ImageRatingTask_S4,2021.1.4,Win32,59.88741167,,,,,,,,,
,,,,,,,,,,,,0,5,5,5,1,sixth,4,22,Female,R,Donders,2021-07-08_16h32.16.422,ImageRatingTask_S4,2021.1.4,Win32,59.88741167,,,,,,,,,
,,,,,,,,,,,,0,6,6,6,1,seventh,4,22,Female,R,Donders,2021-07-08_16h32.16.422,ImageRatingTask_S4,2021.1.4,Win32,59.88741167,,,,,,,,,
,,,,,,,,,,,,0,7,7,7,1,last,4,22,Female,R,Donders,2021-07-08_16h32.16.422,ImageRatingTask_S4,2021.1.4,Win32,59.88741167,,,,,,,,,
,,,,,,,,,,,,,,,,,,4,22,Female,R,Donders,2021-07-08_16h32.16.422,ImageRatingTask_S4,2021.1.4,Win32,59.88741167,0,47,47,127,1,DreamStudyImages_rs1000x750g/Vehicles/Objects_288_h.jpg,,,
,,5,1.8426,2,5.3391,5,2.7514,1,1.0539,2,0.1256,0,0,0,0,1,main,4,22,Female,R,Donders,2021-07-08_16h32.16.422,ImageRatingTask_S4,2021.1.4,Win32,59.88741167,,,,,,,,,
,,,,,,,,,,,,0,1,1,1,1,second,4,22,Female,R,Donders,2021-07-08_16h32.16.422,ImageRatingTask_S4,2021.1.4,Win32,59.88741167,,,,,,,,,
,,,,,,,,,,,,0,2,2,2,1,third,4,22,Female,R,Donders,2021-07-08_16h32.16.422,ImageRatingTask_S4,2021.1.4,Win32,59.88741167,,,,,,,,,
,,,,,,,,,,,,0,3,3,3,1,fourth,4,22,Female,R,Donders,2021-07-08_16h32.16.422,ImageRatingTask_S4,2021.1.4,Win32,59.88741167,,,,,,,,,
,,,,,,,,,,,,0,4,4,4,1,fifth,4,22,Female,R,Donders,2021-07-08_16h32.16.422,ImageRatingTask_S4,2021.1.4,Win32,59.88741167,,,,,,,,,
,,,,,,,,,,,,0,5,5,5,1,sixth,4,22,Female,R,Donders,2021-07-08_16h32.16.422,ImageRatingTask_S4,2021.1.4,Win32,59.88741167,,,,,,,,,
,,,,,,,,,,,,0,6,6,6,1,seventh,4,22,Female,R,Donders,2021-07-08_16h32.16.422,ImageRatingTask_S4,2021.1.4,Win32,59.88741167,,,,,,,,,
,,,,,,,,,,,,0,7,7,7,1,last,4,22,Female,R,Donders,2021-07-08_16h32.16.422,ImageRatingTask_S4,2021.1.4,Win32,59.88741167,,,,,,,,,
,,,,,,,,,,,,,,,,,,4,22,Female,R,Donders,2021-07-08_16h32.16.422,ImageRatingTask_S4,2021.1.4,Win32,59.88741167,0,48,48,36,1,DreamStudyImages_rs1000x750g/Children/Faces_055_h.jpg,,,
,,7,13.2697,4,2.2458,6,2.4201,1,1.1584,7,0.7836,0,0,0,0,1,main,4,22,Female,R,Donders,2021-07-08_16h32.16.422,ImageRatingTask_S4,2021.1.4,Win32,59.88741167,,,,,,,,,
,,,,,,,,,,,,0,1,1,1,1,second,4,22,Female,R,Donders,2021-07-08_16h32.16.422,ImageRatingTask_S4,2021.1.4,Win32,59.88741167,,,,,,,,,
,,,,,,,,,,,,0,2,2,2,1,third,4,22,Female,R,Donders,2021-07-08_16h32.16.422,ImageRatingTask_S4,2021.1.4,Win32,59.88741167,,,,,,,,,
,,,,,,,,,,,,0,3,3,3,1,fourth,4,22,Female,R,Donders,2021-07-08_16h32.16.422,ImageRatingTask_S4,2021.1.4,Win32,59.88741167,,,,,,,,,
,,,,,,,,,,,,0,4,4,4,1,fifth,4,22,Female,R,Donders,2021-07-08_16h32.16.422,ImageRatingTask_S4,2021.1.4,Win32,59.88741167,,,,,,,,,
,,,,,,,,,,,,0,5,5,5,1,sixth,4,22,Female,R,Donders,2021-07-08_16h32.16.422,ImageRatingTask_S4,2021.1.4,Win32,59.88741167,,,,,,,,,
,,,,,,,,,,,,0,6,6,6,1,seventh,4,22,Female,R,Donders,2021-07-08_16h32.16.422,ImageRatingTask_S4,2021.1.4,Win32,59.88741167,,,,,,,,,
,,,,,,,,,,,,0,7,7,7,1,last,4,22,Female,R,Donders,2021-07-08_16h32.16.422,ImageRatingTask_S4,2021.1.4,Win32,59.88741167,,,,,,,,,
,,,,,,,,,,,,,,,,,,4,22,Female,R,Donders,2021-07-08_16h32.16.422,ImageRatingTask_S4,2021.1.4,Win32,59.88741167,0,49,49,117,1,DreamStudyImages_rs1000x750g/Vehicles/bluevan.jpg,,,
,,3,2.6986,6,1.5909,6,7.157,1,1.281,5,0.4308,0,0,0,0,1,main,4,22,Female,R,Donders,2021-07-08_16h32.16.422,ImageRatingTask_S4,2021.1.4,Win32,59.88741167,,,,,,,,,
,,,,,,,,,,,,0,1,1,1,1,second,4,22,Female,R,Donders,2021-07-08_16h32.16.422,ImageRatingTask_S4,2021.1.4,Win32,59.88741167,,,,,,,,,
,,,,,,,,,,,,0,2,2,2,1,third,4,22,Female,R,Donders,2021-07-08_16h32.16.422,ImageRatingTask_S4,2021.1.4,Win32,59.88741167,,,,,,,,,
,,,,,,,,,,,,0,3,3,3,1,fourth,4,22,Female,R,Donders,2021-07-08_16h32.16.422,ImageRatingTask_S4,2021.1.4,Win32,59.88741167,,,,,,,,,
,,,,,,,,,,,,0,4,4,4,1,fifth,4,22,Female,R,Donders,2021-07-08_16h32.16.422,ImageRatingTask_S4,2021.1.4,Win32,59.88741167,,,,,,,,,
,,,,,,,,,,,,0,5,5,5,1,sixth,4,22,Female,R,Donders,2021-07-08_16h32.16.422,ImageRatingTask_S4,2021.1.4,Win32,59.88741167,,,,,,,,,
,,,,,,,,,,,,0,6,6,6,1,seventh,4,22,Female,R,Donders,2021-07-08_16h32.16.422,ImageRatingTask_S4,2021.1.4,Win32,59.88741167,,,,,,,,,
,,,,,,,,,,,,0,7,7,7,1,last,4,22,Female,R,Donders,2021-07-08_16h32.16.422,ImageRatingTask_S4,2021.1.4,Win32,59.88741167,,,,,,,,,
,,,,,,,,,,,,,,,,,,4,22,Female,R,Donders,2021-07-08_16h32.16.422,ImageRatingTask_S4,2021.1.4,Win32,59.88741167,0,50,50,88,1,DreamStudyImages_rs1000x750g/Food/Objects_092_v.jpg,,,
,,6,2.5916,1,1.0963,3,6.728,1,1.1789,7,0.6436,0,0,0,0,1,main,4,22,Female,R,Donders,2021-07-08_16h32.16.422,ImageRatingTask_S4,2021.1.4,Win32,59.88741167,,,,,,,,,
,,,,,,,,,,,,0,1,1,1,1,second,4,22,Female,R,Donders,2021-07-08_16h32.16.422,ImageRatingTask_S4,2021.1.4,Win32,59.88741167,,,,,,,,,
,,,,,,,,,,,,0,2,2,2,1,third,4,22,Female,R,Donders,2021-07-08_16h32.16.422,ImageRatingTask_S4,2021.1.4,Win32,59.88741167,,,,,,,,,
,,,,,,,,,,,,0,3,3,3,1,fourth,4,22,Female,R,Donders,2021-07-08_16h32.16.422,ImageRatingTask_S4,2021.1.4,Win32,59.88741167,,,,,,,,,
,,,,,,,,,,,,0,4,4,4,1,fifth,4,22,Female,R,Donders,2021-07-08_16h32.16.422,ImageRatingTask_S4,2021.1.4,Win32,59.88741167,,,,,,,,,
,,,,,,,,,,,,0,5,5,5,1,sixth,4,22,Female,R,Donders,2021-07-08_16h32.16.422,ImageRatingTask_S4,2021.1.4,Win32,59.88741167,,,,,,,,,
,,,,,,,,,,,,0,6,6,6,1,seventh,4,22,Female,R,Donders,2021-07-08_16h32.16.422,ImageRatingTask_S4,2021.1.4,Win32,59.88741167,,,,,,,,,
,,,,,,,,,,,,0,7,7,7,1,last,4,22,Female,R,Donders,2021-07-08_16h32.16.422,ImageRatingTask_S4,2021.1.4,Win32,59.88741167,,,,,,,,,
,,,,,,,,,,,,,,,,,,4,22,Female,R,Donders,2021-07-08_16h32.16.422,ImageRatingTask_S4,2021.1.4,Win32,59.88741167,0,51,51,68,1,DreamStudyImages_rs1000x750g/Vehicles/8531.jpg,,,
,,5,4.0904,3,0.9927,5,5.0548,1,6.5628,5,0.6606,0,0,0,0,1,main,4,22,Female,R,Donders,2021-07-08_16h32.16.422,ImageRatingTask_S4,2021.1.4,Win32,59.88741167,,,,,,,,,
,,,,,,,,,,,,0,1,1,1,1,second,4,22,Female,R,Donders,2021-07-08_16h32.16.422,ImageRatingTask_S4,2021.1.4,Win32,59.88741167,,,,,,,,,
,,,,,,,,,,,,0,2,2,2,1,third,4,22,Female,R,Donders,2021-07-08_16h32.16.422,ImageRatingTask_S4,2021.1.4,Win32,59.88741167,,,,,,,,,
,,,,,,,,,,,,0,3,3,3,1,fourth,4,22,Female,R,Donders,2021-07-08_16h32.16.422,ImageRatingTask_S4,2021.1.4,Win32,59.88741167,,,,,,,,,
,,,,,,,,,,,,0,4,4,4,1,fifth,4,22,Female,R,Donders,2021-07-08_16h32.16.422,ImageRatingTask_S4,2021.1.4,Win32,59.88741167,,,,,,,,,
,,,,,,,,,,,,0,5,5,5,1,sixth,4,22,Female,R,Donders,2021-07-08_16h32.16.422,ImageRatingTask_S4,2021.1.4,Win32,59.88741167,,,,,,,,,
,,,,,,,,,,,,0,6,6,6,1,seventh,4,22,Female,R,Donders,2021-07-08_16h32.16.422,ImageRatingTask_S4,2021.1.4,Win32,59.88741167,,,,,,,,,
,,,,,,,,,,,,0,7,7,7,1,last,4,22,Female,R,Donders,2021-07-08_16h32.16.422,ImageRatingTask_S4,2021.1.4,Win32,59.88741167,,,,,,,,,
,,,,,,,,,,,,,,,,,,4,22,Female,R,Donders,2021-07-08_16h32.16.422,ImageRatingTask_S4,2021.1.4,Win32,59.88741167,0,52,52,64,1,DreamStudyImages_rs1000x750g/Food/Objects_069_h.jpg,,,
,,2,26.1123,6,1.5619,6,3.445,1,0.9435,3,0.6429,0,0,0,0,1,main,4,22,Female,R,Donders,2021-07-08_16h32.16.422,ImageRatingTask_S4,2021.1.4,Win32,59.88741167,,,,,,,,,
,,,,,,,,,,,,0,1,1,1,1,second,4,22,Female,R,Donders,2021-07-08_16h32.16.422,ImageRatingTask_S4,2021.1.4,Win32,59.88741167,,,,,,,,,
,,,,,,,,,,,,0,2,2,2,1,third,4,22,Female,R,Donders,2021-07-08_16h32.16.422,ImageRatingTask_S4,2021.1.4,Win32,59.88741167,,,,,,,,,
,,,,,,,,,,,,0,3,3,3,1,fourth,4,22,Female,R,Donders,2021-07-08_16h32.16.422,ImageRatingTask_S4,2021.1.4,Win32,59.88741167,,,,,,,,,
,,,,,,,,,,,,0,4,4,4,1,fifth,4,22,Female,R,Donders,2021-07-08_16h32.16.422,ImageRatingTask_S4,2021.1.4,Win32,59.88741167,,,,,,,,,
,,,,,,,,,,,,0,5,5,5,1,sixth,4,22,Female,R,Donders,2021-07-08_16h32.16.422,ImageRatingTask_S4,2021.1.4,Win32,59.88741167,,,,,,,,,
,,,,,,,,,,,,0,6,6,6,1,seventh,4,22,Female,R,Donders,2021-07-08_16h32.16.422,ImageRatingTask_S4,2021.1.4,Win32,59.88741167,,,,,,,,,
,,,,,,,,,,,,0,7,7,7,1,last,4,22,Female,R,Donders,2021-07-08_16h32.16.422,ImageRatingTask_S4,2021.1.4,Win32,59.88741167,,,,,,,,,
,,,,,,,,,,,,,,,,,,4,22,Female,R,Donders,2021-07-08_16h32.16.422,ImageRatingTask_S4,2021.1.4,Win32,59.88741167,0,53,53,150,1,DreamStudyImages_rs1000x750g/Mammals/Dog 25.jpg,,,
,,8,2.8397,6,1.8239,6,3.0781,1,1.0383,3,0.7662,0,0,0,0,1,main,4,22,Female,R,Donders,2021-07-08_16h32.16.422,ImageRatingTask_S4,2021.1.4,Win32,59.88741167,,,,,,,,,
,,,,,,,,,,,,0,1,1,1,1,second,4,22,Female,R,Donders,2021-07-08_16h32.16.422,ImageRatingTask_S4,2021.1.4,Win32,59.88741167,,,,,,,,,
,,,,,,,,,,,,0,2,2,2,1,third,4,22,Female,R,Donders,2021-07-08_16h32.16.422,ImageRatingTask_S4,2021.1.4,Win32,59.88741167,,,,,,,,,
,,,,,,,,,,,,0,3,3,3,1,fourth,4,22,Female,R,Donders,2021-07-08_16h32.16.422,ImageRatingTask_S4,2021.1.4,Win32,59.88741167,,,,,,,,,
,,,,,,,,,,,,0,4,4,4,1,fifth,4,22,Female,R,Donders,2021-07-08_16h32.16.422,ImageRatingTask_S4,2021.1.4,Win32,59.88741167,,,,,,,,,
,,,,,,,,,,,,0,5,5,5,1,sixth,4,22,Female,R,Donders,2021-07-08_16h32.16.422,ImageRatingTask_S4,2021.1.4,Win32,59.88741167,,,,,,,,,
,,,,,,,,,,,,0,6,6,6,1,seventh,4,22,Female,R,Donders,2021-07-08_16h32.16.422,ImageRatingTask_S4,2021.1.4,Win32,59.88741167,,,,,,,,,
,,,,,,,,,,,,0,7,7,7,1,last,4,22,Female,R,Donders,2021-07-08_16h32.16.422,ImageRatingTask_S4,2021.1.4,Win32,59.88741167,,,,,,,,,
,,,,,,,,,,,,,,,,,,4,22,Female,R,Donders,2021-07-08_16h32.16.422,ImageRatingTask_S4,2021.1.4,Win32,59.88741167,0,54,54,57,1,DreamStudyImages_rs1000x750g/Mammals/Dog 18.jpg,,,
,,3,2.7219,2,1.3896,4,1.8419,1,2.3559,5,0.9091,0,0,0,0,1,main,4,22,Female,R,Donders,2021-07-08_16h32.16.422,ImageRatingTask_S4,2021.1.4,Win32,59.88741167,,,,,,,,,
,,,,,,,,,,,,0,1,1,1,1,second,4,22,Female,R,Donders,2021-07-08_16h32.16.422,ImageRatingTask_S4,2021.1.4,Win32,59.88741167,,,,,,,,,
,,,,,,,,,,,,0,2,2,2,1,third,4,22,Female,R,Donders,2021-07-08_16h32.16.422,ImageRatingTask_S4,2021.1.4,Win32,59.88741167,,,,,,,,,
,,,,,,,,,,,,0,3,3,3,1,fourth,4,22,Female,R,Donders,2021-07-08_16h32.16.422,ImageRatingTask_S4,2021.1.4,Win32,59.88741167,,,,,,,,,
,,,,,,,,,,,,0,4,4,4,1,fifth,4,22,Female,R,Donders,2021-07-08_16h32.16.422,ImageRatingTask_S4,2021.1.4,Win32,59.88741167,,,,,,,,,
,,,,,,,,,,,,0,5,5,5,1,sixth,4,22,Female,R,Donders,2021-07-08_16h32.16.422,ImageRatingTask_S4,2021.1.4,Win32,59.88741167,,,,,,,,,
,,,,,,,,,,,,0,6,6,6,1,seventh,4,22,Female,R,Donders,2021-07-08_16h32.16.422,ImageRatingTask_S4,2021.1.4,Win32,59.88741167,,,,,,,,,
,,,,,,,,,,,,0,7,7,7,1,last,4,22,Female,R,Donders,2021-07-08_16h32.16.422,ImageRatingTask_S4,2021.1.4,Win32,59.88741167,,,,,,,,,
,,,,,,,,,,,,,,,,,,4,22,Female,R,Donders,2021-07-08_16h32.16.422,ImageRatingTask_S4,2021.1.4,Win32,59.88741167,0,55,55,132,1,DreamStudyImages_rs1000x750g/Food/IAPS7480_pasta.jpg,,,
,,8,1.9203,1,3.9438,6,3.5,1,2.6182,8,0.7018,0,0,0,0,1,main,4,22,Female,R,Donders,2021-07-08_16h32.16.422,ImageRatingTask_S4,2021.1.4,Win32,59.88741167,,,,,,,,,
,,,,,,,,,,,,0,1,1,1,1,second,4,22,Female,R,Donders,2021-07-08_16h32.16.422,ImageRatingTask_S4,2021.1.4,Win32,59.88741167,,,,,,,,,
,,,,,,,,,,,,0,2,2,2,1,third,4,22,Female,R,Donders,2021-07-08_16h32.16.422,ImageRatingTask_S4,2021.1.4,Win32,59.88741167,,,,,,,,,
,,,,,,,,,,,,0,3,3,3,1,fourth,4,22,Female,R,Donders,2021-07-08_16h32.16.422,ImageRatingTask_S4,2021.1.4,Win32,59.88741167,,,,,,,,,
,,,,,,,,,,,,0,4,4,4,1,fifth,4,22,Female,R,Donders,2021-07-08_16h32.16.422,ImageRatingTask_S4,2021.1.4,Win32,59.88741167,,,,,,,,,
,,,,,,,,,,,,0,5,5,5,1,sixth,4,22,Female,R,Donders,2021-07-08_16h32.16.422,ImageRatingTask_S4,2021.1.4,Win32,59.88741167,,,,,,,,,
,,,,,,,,,,,,0,6,6,6,1,seventh,4,22,Female,R,Donders,2021-07-08_16h32.16.422,ImageRatingTask_S4,2021.1.4,Win32,59.88741167,,,,,,,,,
,,,,,,,,,,,,0,7,7,7,1,last,4,22,Female,R,Donders,2021-07-08_16h32.16.422,ImageRatingTask_S4,2021.1.4,Win32,59.88741167,,,,,,,,,
,,,,,,,,,,,,,,,,,,4,22,Female,R,Donders,2021-07-08_16h32.16.422,ImageRatingTask_S4,2021.1.4,Win32,59.88741167,0,56,56,81,1,DreamStudyImages_rs1000x750g/Water/Beach 2.jpg,,,
,,2,22.5549,4,6.0434,7,2.025,1,1.0407,6,0.7236,0,0,0,0,1,main,4,22,Female,R,Donders,2021-07-08_16h32.16.422,ImageRatingTask_S4,2021.1.4,Win32,59.88741167,,,,,,,,,
,,,,,,,,,,,,0,1,1,1,1,second,4,22,Female,R,Donders,2021-07-08_16h32.16.422,ImageRatingTask_S4,2021.1.4,Win32,59.88741167,,,,,,,,,
,,,,,,,,,,,,0,2,2,2,1,third,4,22,Female,R,Donders,2021-07-08_16h32.16.422,ImageRatingTask_S4,2021.1.4,Win32,59.88741167,,,,,,,,,
,,,,,,,,,,,,0,3,3,3,1,fourth,4,22,Female,R,Donders,2021-07-08_16h32.16.422,ImageRatingTask_S4,2021.1.4,Win32,59.88741167,,,,,,,,,
,,,,,,,,,,,,0,4,4,4,1,fifth,4,22,Female,R,Donders,2021-07-08_16h32.16.422,ImageRatingTask_S4,2021.1.4,Win32,59.88741167,,,,,,,,,
,,,,,,,,,,,,0,5,5,5,1,sixth,4,22,Female,R,Donders,2021-07-08_16h32.16.422,ImageRatingTask_S4,2021.1.4,Win32,59.88741167,,,,,,,,,
,,,,,,,,,,,,0,6,6,6,1,seventh,4,22,Female,R,Donders,2021-07-08_16h32.16.422,ImageRatingTask_S4,2021.1.4,Win32,59.88741167,,,,,,,,,
,,,,,,,,,,,,0,7,7,7,1,last,4,22,Female,R,Donders,2021-07-08_16h32.16.422,ImageRatingTask_S4,2021.1.4,Win32,59.88741167,,,,,,,,,
,,,,,,,,,,,,,,,,,,4,22,Female,R,Donders,2021-07-08_16h32.16.422,ImageRatingTask_S4,2021.1.4,Win32,59.88741167,0,57,57,103,1,DreamStudyImages_rs1000x750g/Houses/Landscapes_001_h.jpg,,,
,,5,12.3288,1,1.1704,3,1.6699,1,1.2406,7,0.6307,0,0,0,0,1,main,4,22,Female,R,Donders,2021-07-08_16h32.16.422,ImageRatingTask_S4,2021.1.4,Win32,59.88741167,,,,,,,,,
,,,,,,,,,,,,0,1,1,1,1,second,4,22,Female,R,Donders,2021-07-08_16h32.16.422,ImageRatingTask_S4,2021.1.4,Win32,59.88741167,,,,,,,,,
,,,,,,,,,,,,0,2,2,2,1,third,4,22,Female,R,Donders,2021-07-08_16h32.16.422,ImageRatingTask_S4,2021.1.4,Win32,59.88741167,,,,,,,,,
,,,,,,,,,,,,0,3,3,3,1,fourth,4,22,Female,R,Donders,2021-07-08_16h32.16.422,ImageRatingTask_S4,2021.1.4,Win32,59.88741167,,,,,,,,,
,,,,,,,,,,,,0,4,4,4,1,fifth,4,22,Female,R,Donders,2021-07-08_16h32.16.422,ImageRatingTask_S4,2021.1.4,Win32,59.88741167,,,,,,,,,
,,,,,,,,,,,,0,5,5,5,1,sixth,4,22,Female,R,Donders,2021-07-08_16h32.16.422,ImageRatingTask_S4,2021.1.4,Win32,59.88741167,,,,,,,,,
,,,,,,,,,,,,0,6,6,6,1,seventh,4,22,Female,R,Donders,2021-07-08_16h32.16.422,ImageRatingTask_S4,2021.1.4,Win32,59.88741167,,,,,,,,,
,,,,,,,,,,,,0,7,7,7,1,last,4,22,Female,R,Donders,2021-07-08_16h32.16.422,ImageRatingTask_S4,2021.1.4,Win32,59.88741167,,,,,,,,,
,,,,,,,,,,,,,,,,,,4,22,Female,R,Donders,2021-07-08_16h32.16.422,ImageRatingTask_S4,2021.1.4,Win32,59.88741167,0,58,58,61,1,DreamStudyImages_rs1000x750g/Vehicles/IAPS7130_truck.jpg,,,
,,5,24.1691,1,1.2086,6,1.8942,1,0.9183,7,0.5409,0,0,0,0,1,main,4,22,Female,R,Donders,2021-07-08_16h32.16.422,ImageRatingTask_S4,2021.1.4,Win32,59.88741167,,,,,,,,,
,,,,,,,,,,,,0,1,1,1,1,second,4,22,Female,R,Donders,2021-07-08_16h32.16.422,ImageRatingTask_S4,2021.1.4,Win32,59.88741167,,,,,,,,,
,,,,,,,,,,,,0,2,2,2,1,third,4,22,Female,R,Donders,2021-07-08_16h32.16.422,ImageRatingTask_S4,2021.1.4,Win32,59.88741167,,,,,,,,,
,,,,,,,,,,,,0,3,3,3,1,fourth,4,22,Female,R,Donders,2021-07-08_16h32.16.422,ImageRatingTask_S4,2021.1.4,Win32,59.88741167,,,,,,,,,
,,,,,,,,,,,,0,4,4,4,1,fifth,4,22,Female,R,Donders,2021-07-08_16h32.16.422,ImageRatingTask_S4,2021.1.4,Win32,59.88741167,,,,,,,,,
,,,,,,,,,,,,0,5,5,5,1,sixth,4,22,Female,R,Donders,2021-07-08_16h32.16.422,ImageRatingTask_S4,2021.1.4,Win32,59.88741167,,,,,,,,,
,,,,,,,,,,,,0,6,6,6,1,seventh,4,22,Female,R,Donders,2021-07-08_16h32.16.422,ImageRatingTask_S4,2021.1.4,Win32,59.88741167,,,,,,,,,
,,,,,,,,,,,,0,7,7,7,1,last,4,22,Female,R,Donders,2021-07-08_16h32.16.422,ImageRatingTask_S4,2021.1.4,Win32,59.88741167,,,,,,,,,
,,,,,,,,,,,,,,,,,,4,22,Female,R,Donders,2021-07-08_16h32.16.422,ImageRatingTask_S4,2021.1.4,Win32,59.88741167,0,59,59,4,1,DreamStudyImages_rs1000x750g/Vehicles/fireengine.jpg,,,
,,4,6.4979,2,1.3361,7,1.7278,1,1.0411,3,0.6799,0,0,0,0,1,main,4,22,Female,R,Donders,2021-07-08_16h32.16.422,ImageRatingTask_S4,2021.1.4,Win32,59.88741167,,,,,,,,,
,,,,,,,,,,,,0,1,1,1,1,second,4,22,Female,R,Donders,2021-07-08_16h32.16.422,ImageRatingTask_S4,2021.1.4,Win32,59.88741167,,,,,,,,,
,,,,,,,,,,,,0,2,2,2,1,third,4,22,Female,R,Donders,2021-07-08_16h32.16.422,ImageRatingTask_S4,2021.1.4,Win32,59.88741167,,,,,,,,,
,,,,,,,,,,,,0,3,3,3,1,fourth,4,22,Female,R,Donders,2021-07-08_16h32.16.422,ImageRatingTask_S4,2021.1.4,Win32,59.88741167,,,,,,,,,
,,,,,,,,,,,,0,4,4,4,1,fifth,4,22,Female,R,Donders,2021-07-08_16h32.16.422,ImageRatingTask_S4,2021.1.4,Win32,59.88741167,,,,,,,,,
,,,,,,,,,,,,0,5,5,5,1,sixth,4,22,Female,R,Donders,2021-07-08_16h32.16.422,ImageRatingTask_S4,2021.1.4,Win32,59.88741167,,,,,,,,,
,,,,,,,,,,,,0,6,6,6,1,seventh,4,22,Female,R,Donders,2021-07-08_16h32.16.422,ImageRatingTask_S4,2021.1.4,Win32,59.88741167,,,,,,,,,
,,,,,,,,,,,,0,7,7,7,1,last,4,22,Female,R,Donders,2021-07-08_16h32.16.422,ImageRatingTask_S4,2021.1.4,Win32,59.88741167,,,,,,,,,
,,,,,,,,,,,,,,,,,,4,22,Female,R,Donders,2021-07-08_16h32.16.422,ImageRatingTask_S4,2021.1.4,Win32,59.88741167,0,60,60,75,1,DreamStudyImages_rs1000x750g/Mammals/Animals_113_h.jpg,,,
,,2,2.2258,7,1.0741,6,5.056,1,1.096,8,0.6372,0,0,0,0,1,main,4,22,Female,R,Donders,2021-07-08_16h32.16.422,ImageRatingTask_S4,2021.1.4,Win32,59.88741167,,,,,,,,,
,,,,,,,,,,,,0,1,1,1,1,second,4,22,Female,R,Donders,2021-07-08_16h32.16.422,ImageRatingTask_S4,2021.1.4,Win32,59.88741167,,,,,,,,,
,,,,,,,,,,,,0,2,2,2,1,third,4,22,Female,R,Donders,2021-07-08_16h32.16.422,ImageRatingTask_S4,2021.1.4,Win32,59.88741167,,,,,,,,,
,,,,,,,,,,,,0,3,3,3,1,fourth,4,22,Female,R,Donders,2021-07-08_16h32.16.422,ImageRatingTask_S4,2021.1.4,Win32,59.88741167,,,,,,,,,
,,,,,,,,,,,,0,4,4,4,1,fifth,4,22,Female,R,Donders,2021-07-08_16h32.16.422,ImageRatingTask_S4,2021.1.4,Win32,59.88741167,,,,,,,,,
,,,,,,,,,,,,0,5,5,5,1,sixth,4,22,Female,R,Donders,2021-07-08_16h32.16.422,ImageRatingTask_S4,2021.1.4,Win32,59.88741167,,,,,,,,,
,,,,,,,,,,,,0,6,6,6,1,seventh,4,22,Female,R,Donders,2021-07-08_16h32.16.422,ImageRatingTask_S4,2021.1.4,Win32,59.88741167,,,,,,,,,
,,,,,,,,,,,,0,7,7,7,1,last,4,22,Female,R,Donders,2021-07-08_16h32.16.422,ImageRatingTask_S4,2021.1.4,Win32,59.88741167,,,,,,,,,
,,,,,,,,,,,,,,,,,,4,22,Female,R,Donders,2021-07-08_16h32.16.422,ImageRatingTask_S4,2021.1.4,Win32,59.88741167,0,61,61,159,1,DreamStudyImages_rs1000x750g/Water/Landscapes_111_h.jpg,,,
,,6,2.4586,1,1.4134,6,1.9209,1,0.9724,2,0.1146,0,0,0,0,1,main,4,22,Female,R,Donders,2021-07-08_16h32.16.422,ImageRatingTask_S4,2021.1.4,Win32,59.88741167,,,,,,,,,
,,,,,,,,,,,,0,1,1,1,1,second,4,22,Female,R,Donders,2021-07-08_16h32.16.422,ImageRatingTask_S4,2021.1.4,Win32,59.88741167,,,,,,,,,
,,,,,,,,,,,,0,2,2,2,1,third,4,22,Female,R,Donders,2021-07-08_16h32.16.422,ImageRatingTask_S4,2021.1.4,Win32,59.88741167,,,,,,,,,
,,,,,,,,,,,,0,3,3,3,1,fourth,4,22,Female,R,Donders,2021-07-08_16h32.16.422,ImageRatingTask_S4,2021.1.4,Win32,59.88741167,,,,,,,,,
,,,,,,,,,,,,0,4,4,4,1,fifth,4,22,Female,R,Donders,2021-07-08_16h32.16.422,ImageRatingTask_S4,2021.1.4,Win32,59.88741167,,,,,,,,,
,,,,,,,,,,,,0,5,5,5,1,sixth,4,22,Female,R,Donders,2021-07-08_16h32.16.422,ImageRatingTask_S4,2021.1.4,Win32,59.88741167,,,,,,,,,
,,,,,,,,,,,,0,6,6,6,1,seventh,4,22,Female,R,Donders,2021-07-08_16h32.16.422,ImageRatingTask_S4,2021.1.4,Win32,59.88741167,,,,,,,,,
,,,,,,,,,,,,0,7,7,7,1,last,4,22,Female,R,Donders,2021-07-08_16h32.16.422,ImageRatingTask_S4,2021.1.4,Win32,59.88741167,,,,,,,,,
,,,,,,,,,,,,,,,,,,4,22,Female,R,Donders,2021-07-08_16h32.16.422,ImageRatingTask_S4,2021.1.4,Win32,59.88741167,0,62,62,158,1,DreamStudyImages_rs1000x750g/Children/Faces_104_h.jpg,,,
,,6,15.3393,4,1.4983,5,2.6955,1,2.1532,7,0.5769,0,0,0,0,1,main,4,22,Female,R,Donders,2021-07-08_16h32.16.422,ImageRatingTask_S4,2021.1.4,Win32,59.88741167,,,,,,,,,
,,,,,,,,,,,,0,1,1,1,1,second,4,22,Female,R,Donders,2021-07-08_16h32.16.422,ImageRatingTask_S4,2021.1.4,Win32,59.88741167,,,,,,,,,
,,,,,,,,,,,,0,2,2,2,1,third,4,22,Female,R,Donders,2021-07-08_16h32.16.422,ImageRatingTask_S4,2021.1.4,Win32,59.88741167,,,,,,,,,
,,,,,,,,,,,,0,3,3,3,1,fourth,4,22,Female,R,Donders,2021-07-08_16h32.16.422,ImageRatingTask_S4,2021.1.4,Win32,59.88741167,,,,,,,,,
,,,,,,,,,,,,0,4,4,4,1,fifth,4,22,Female,R,Donders,2021-07-08_16h32.16.422,ImageRatingTask_S4,2021.1.4,Win32,59.88741167,,,,,,,,,
,,,,,,,,,,,,0,5,5,5,1,sixth,4,22,Female,R,Donders,2021-07-08_16h32.16.422,ImageRatingTask_S4,2021.1.4,Win32,59.88741167,,,,,,,,,
,,,,,,,,,,,,0,6,6,6,1,seventh,4,22,Female,R,Donders,2021-07-08_16h32.16.422,ImageRatingTask_S4,2021.1.4,Win32,59.88741167,,,,,,,,,
,,,,,,,,,,,,0,7,7,7,1,last,4,22,Female,R,Donders,2021-07-08_16h32.16.422,ImageRatingTask_S4,2021.1.4,Win32,59.88741167,,,,,,,,,
,,,,,,,,,,,,,,,,,,4,22,Female,R,Donders,2021-07-08_16h32.16.422,ImageRatingTask_S4,2021.1.4,Win32,59.88741167,0,63,63,156,1,DreamStudyImages_rs1000x750g/Vehicles/Thunderstorm 3.jpg,,,
,,3,2.3034,6,1.3923,6,1.9279,1,0.9744,8,0.5915,0,0,0,0,1,main,4,22,Female,R,Donders,2021-07-08_16h32.16.422,ImageRatingTask_S4,2021.1.4,Win32,59.88741167,,,,,,,,,
,,,,,,,,,,,,0,1,1,1,1,second,4,22,Female,R,Donders,2021-07-08_16h32.16.422,ImageRatingTask_S4,2021.1.4,Win32,59.88741167,,,,,,,,,
,,,,,,,,,,,,0,2,2,2,1,third,4,22,Female,R,Donders,2021-07-08_16h32.16.422,ImageRatingTask_S4,2021.1.4,Win32,59.88741167,,,,,,,,,
,,,,,,,,,,,,0,3,3,3,1,fourth,4,22,Female,R,Donders,2021-07-08_16h32.16.422,ImageRatingTask_S4,2021.1.4,Win32,59.88741167,,,,,,,,,
,,,,,,,,,,,,0,4,4,4,1,fifth,4,22,Female,R,Donders,2021-07-08_16h32.16.422,ImageRatingTask_S4,2021.1.4,Win32,59.88741167,,,,,,,,,
,,,,,,,,,,,,0,5,5,5,1,sixth,4,22,Female,R,Donders,2021-07-08_16h32.16.422,ImageRatingTask_S4,2021.1.4,Win32,59.88741167,,,,,,,,,
,,,,,,,,,,,,0,6,6,6,1,seventh,4,22,Female,R,Donders,2021-07-08_16h32.16.422,ImageRatingTask_S4,2021.1.4,Win32,59.88741167,,,,,,,,,
,,,,,,,,,,,,0,7,7,7,1,last,4,22,Female,R,Donders,2021-07-08_16h32.16.422,ImageRatingTask_S4,2021.1.4,Win32,59.88741167,,,,,,,,,
,,,,,,,,,,,,,,,,,,4,22,Female,R,Donders,2021-07-08_16h32.16.422,ImageRatingTask_S4,2021.1.4,Win32,59.88741167,0,64,64,136,1,DreamStudyImages_rs1000x750g/Water/98.jpg,,,
,,1,5.3808,7,2.403,6,4.8899,1,10.9772,4,0.7305,0,0,0,0,1,main,4,22,Female,R,Donders,2021-07-08_16h32.16.422,ImageRatingTask_S4,2021.1.4,Win32,59.88741167,,,,,,,,,
,,,,,,,,,,,,0,1,1,1,1,second,4,22,Female,R,Donders,2021-07-08_16h32.16.422,ImageRatingTask_S4,2021.1.4,Win32,59.88741167,,,,,,,,,
,,,,,,,,,,,,0,2,2,2,1,third,4,22,Female,R,Donders,2021-07-08_16h32.16.422,ImageRatingTask_S4,2021.1.4,Win32,59.88741167,,,,,,,,,
,,,,,,,,,,,,0,3,3,3,1,fourth,4,22,Female,R,Donders,2021-07-08_16h32.16.422,ImageRatingTask_S4,2021.1.4,Win32,59.88741167,,,,,,,,,
,,,,,,,,,,,,0,4,4,4,1,fifth,4,22,Female,R,Donders,2021-07-08_16h32.16.422,ImageRatingTask_S4,2021.1.4,Win32,59.88741167,,,,,,,,,
,,,,,,,,,,,,0,5,5,5,1,sixth,4,22,Female,R,Donders,2021-07-08_16h32.16.422,ImageRatingTask_S4,2021.1.4,Win32,59.88741167,,,,,,,,,
,,,,,,,,,,,,0,6,6,6,1,seventh,4,22,Female,R,Donders,2021-07-08_16h32.16.422,ImageRatingTask_S4,2021.1.4,Win32,59.88741167,,,,,,,,,
,,,,,,,,,,,,0,7,7,7,1,last,4,22,Female,R,Donders,2021-07-08_16h32.16.422,ImageRatingTask_S4,2021.1.4,Win32,59.88741167,,,,,,,,,
,,,,,,,,,,,,,,,,,,4,22,Female,R,Donders,2021-07-08_16h32.16.422,ImageRatingTask_S4,2021.1.4,Win32,59.88741167,0,65,65,73,1,DreamStudyImages_rs1000x750g/Mammals/Animals_038_h.jpg,,,
,,3,4.9056,1,2.8141,5,1.8393,1,1.6615,7,0.4582,0,0,0,0,1,main,4,22,Female,R,Donders,2021-07-08_16h32.16.422,ImageRatingTask_S4,2021.1.4,Win32,59.88741167,,,,,,,,,
,,,,,,,,,,,,0,1,1,1,1,second,4,22,Female,R,Donders,2021-07-08_16h32.16.422,ImageRatingTask_S4,2021.1.4,Win32,59.88741167,,,,,,,,,
,,,,,,,,,,,,0,2,2,2,1,third,4,22,Female,R,Donders,2021-07-08_16h32.16.422,ImageRatingTask_S4,2021.1.4,Win32,59.88741167,,,,,,,,,
,,,,,,,,,,,,0,3,3,3,1,fourth,4,22,Female,R,Donders,2021-07-08_16h32.16.422,ImageRatingTask_S4,2021.1.4,Win32,59.88741167,,,,,,,,,
,,,,,,,,,,,,0,4,4,4,1,fifth,4,22,Female,R,Donders,2021-07-08_16h32.16.422,ImageRatingTask_S4,2021.1.4,Win32,59.88741167,,,,,,,,,
,,,,,,,,,,,,0,5,5,5,1,sixth,4,22,Female,R,Donders,2021-07-08_16h32.16.422,ImageRatingTask_S4,2021.1.4,Win32,59.88741167,,,,,,,,,
,,,,,,,,,,,,0,6,6,6,1,seventh,4,22,Female,R,Donders,2021-07-08_16h32.16.422,ImageRatingTask_S4,2021.1.4,Win32,59.88741167,,,,,,,,,
,,,,,,,,,,,,0,7,7,7,1,last,4,22,Female,R,Donders,2021-07-08_16h32.16.422,ImageRatingTask_S4,2021.1.4,Win32,59.88741167,,,,,,,,,
,,,,,,,,,,,,,,,,,,4,22,Female,R,Donders,2021-07-08_16h32.16.422,ImageRatingTask_S4,2021.1.4,Win32,59.88741167,0,66,66,116,1,DreamStudyImages_rs1000x750g/Vehicles/Objects_298_h.jpg,,,
,,4,4.2926,2,7.7417,6,2.4162,1,2.9042,6,0.6634,0,0,0,0,1,main,4,22,Female,R,Donders,2021-07-08_16h32.16.422,ImageRatingTask_S4,2021.1.4,Win32,59.88741167,,,,,,,,,
,,,,,,,,,,,,0,1,1,1,1,second,4,22,Female,R,Donders,2021-07-08_16h32.16.422,ImageRatingTask_S4,2021.1.4,Win32,59.88741167,,,,,,,,,
,,,,,,,,,,,,0,2,2,2,1,third,4,22,Female,R,Donders,2021-07-08_16h32.16.422,ImageRatingTask_S4,2021.1.4,Win32,59.88741167,,,,,,,,,
,,,,,,,,,,,,0,3,3,3,1,fourth,4,22,Female,R,Donders,2021-07-08_16h32.16.422,ImageRatingTask_S4,2021.1.4,Win32,59.88741167,,,,,,,,,
,,,,,,,,,,,,0,4,4,4,1,fifth,4,22,Female,R,Donders,2021-07-08_16h32.16.422,ImageRatingTask_S4,2021.1.4,Win32,59.88741167,,,,,,,,,
,,,,,,,,,,,,0,5,5,5,1,sixth,4,22,Female,R,Donders,2021-07-08_16h32.16.422,ImageRatingTask_S4,2021.1.4,Win32,59.88741167,,,,,,,,,
,,,,,,,,,,,,0,6,6,6,1,seventh,4,22,Female,R,Donders,2021-07-08_16h32.16.422,ImageRatingTask_S4,2021.1.4,Win32,59.88741167,,,,,,,,,
,,,,,,,,,,,,0,7,7,7,1,last,4,22,Female,R,Donders,2021-07-08_16h32.16.422,ImageRatingTask_S4,2021.1.4,Win32,59.88741167,,,,,,,,,
,,,,,,,,,,,,,,,,,,4,22,Female,R,Donders,2021-07-08_16h32.16.422,ImageRatingTask_S4,2021.1.4,Win32,59.88741167,0,67,67,142,1,DreamStudyImages_rs1000x750g/Houses/Objects_234_h.jpg,,,
,,2,1.9336,5,1.6782,5,2.6712,1,2.5674,3,0.8172,0,0,0,0,1,main,4,22,Female,R,Donders,2021-07-08_16h32.16.422,ImageRatingTask_S4,2021.1.4,Win32,59.88741167,,,,,,,,,
,,,,,,,,,,,,0,1,1,1,1,second,4,22,Female,R,Donders,2021-07-08_16h32.16.422,ImageRatingTask_S4,2021.1.4,Win32,59.88741167,,,,,,,,,
,,,,,,,,,,,,0,2,2,2,1,third,4,22,Female,R,Donders,2021-07-08_16h32.16.422,ImageRatingTask_S4,2021.1.4,Win32,59.88741167,,,,,,,,,
,,,,,,,,,,,,0,3,3,3,1,fourth,4,22,Female,R,Donders,2021-07-08_16h32.16.422,ImageRatingTask_S4,2021.1.4,Win32,59.88741167,,,,,,,,,
,,,,,,,,,,,,0,4,4,4,1,fifth,4,22,Female,R,Donders,2021-07-08_16h32.16.422,ImageRatingTask_S4,2021.1.4,Win32,59.88741167,,,,,,,,,
,,,,,,,,,,,,0,5,5,5,1,sixth,4,22,Female,R,Donders,2021-07-08_16h32.16.422,ImageRatingTask_S4,2021.1.4,Win32,59.88741167,,,,,,,,,
,,,,,,,,,,,,0,6,6,6,1,seventh,4,22,Female,R,Donders,2021-07-08_16h32.16.422,ImageRatingTask_S4,2021.1.4,Win32,59.88741167,,,,,,,,,
,,,,,,,,,,,,0,7,7,7,1,last,4,22,Female,R,Donders,2021-07-08_16h32.16.422,ImageRatingTask_S4,2021.1.4,Win32,59.88741167,,,,,,,,,
,,,,,,,,,,,,,,,,,,4,22,Female,R,Donders,2021-07-08_16h32.16.422,ImageRatingTask_S4,2021.1.4,Win32,59.88741167,0,68,68,26,1,DreamStudyImages_rs1000x750g/Mammals/Animal carcass 6.jpg,,,
,,6,5.0411,1,1.2907,7,2.1056,1,0.8124,8,0.6246,0,0,0,0,1,main,4,22,Female,R,Donders,2021-07-08_16h32.16.422,ImageRatingTask_S4,2021.1.4,Win32,59.88741167,,,,,,,,,
,,,,,,,,,,,,0,1,1,1,1,second,4,22,Female,R,Donders,2021-07-08_16h32.16.422,ImageRatingTask_S4,2021.1.4,Win32,59.88741167,,,,,,,,,
,,,,,,,,,,,,0,2,2,2,1,third,4,22,Female,R,Donders,2021-07-08_16h32.16.422,ImageRatingTask_S4,2021.1.4,Win32,59.88741167,,,,,,,,,
,,,,,,,,,,,,0,3,3,3,1,fourth,4,22,Female,R,Donders,2021-07-08_16h32.16.422,ImageRatingTask_S4,2021.1.4,Win32,59.88741167,,,,,,,,,
,,,,,,,,,,,,0,4,4,4,1,fifth,4,22,Female,R,Donders,2021-07-08_16h32.16.422,ImageRatingTask_S4,2021.1.4,Win32,59.88741167,,,,,,,,,
,,,,,,,,,,,,0,5,5,5,1,sixth,4,22,Female,R,Donders,2021-07-08_16h32.16.422,ImageRatingTask_S4,2021.1.4,Win32,59.88741167,,,,,,,,,
,,,,,,,,,,,,0,6,6,6,1,seventh,4,22,Female,R,Donders,2021-07-08_16h32.16.422,ImageRatingTask_S4,2021.1.4,Win32,59.88741167,,,,,,,,,
,,,,,,,,,,,,0,7,7,7,1,last,4,22,Female,R,Donders,2021-07-08_16h32.16.422,ImageRatingTask_S4,2021.1.4,Win32,59.88741167,,,,,,,,,
,,,,,,,,,,,,,,,,,,4,22,Female,R,Donders,2021-07-08_16h32.16.422,ImageRatingTask_S4,2021.1.4,Win32,59.88741167,0,69,69,126,1,DreamStudyImages_rs1000x750g/Water/Landscapes_148_h.jpg,,,
,,2,2.4674,3,3.2281,5,4.7785,1,1.9536,2,0.162,0,0,0,0,1,main,4,22,Female,R,Donders,2021-07-08_16h32.16.422,ImageRatingTask_S4,2021.1.4,Win32,59.88741167,,,,,,,,,
,,,,,,,,,,,,0,1,1,1,1,second,4,22,Female,R,Donders,2021-07-08_16h32.16.422,ImageRatingTask_S4,2021.1.4,Win32,59.88741167,,,,,,,,,
,,,,,,,,,,,,0,2,2,2,1,third,4,22,Female,R,Donders,2021-07-08_16h32.16.422,ImageRatingTask_S4,2021.1.4,Win32,59.88741167,,,,,,,,,
,,,,,,,,,,,,0,3,3,3,1,fourth,4,22,Female,R,Donders,2021-07-08_16h32.16.422,ImageRatingTask_S4,2021.1.4,Win32,59.88741167,,,,,,,,,
,,,,,,,,,,,,0,4,4,4,1,fifth,4,22,Female,R,Donders,2021-07-08_16h32.16.422,ImageRatingTask_S4,2021.1.4,Win32,59.88741167,,,,,,,,,
,,,,,,,,,,,,0,5,5,5,1,sixth,4,22,Female,R,Donders,2021-07-08_16h32.16.422,ImageRatingTask_S4,2021.1.4,Win32,59.88741167,,,,,,,,,
,,,,,,,,,,,,0,6,6,6,1,seventh,4,22,Female,R,Donders,2021-07-08_16h32.16.422,ImageRatingTask_S4,2021.1.4,Win32,59.88741167,,,,,,,,,
,,,,,,,,,,,,0,7,7,7,1,last,4,22,Female,R,Donders,2021-07-08_16h32.16.422,ImageRatingTask_S4,2021.1.4,Win32,59.88741167,,,,,,,,,
,,,,,,,,,,,,,,,,,,4,22,Female,R,Donders,2021-07-08_16h32.16.422,ImageRatingTask_S4,2021.1.4,Win32,59.88741167,0,70,70,49,1,DreamStudyImages_rs1000x750g/Children/IAPS2301_boy5.jpg,,,
,,5,2.56,2,1.2847,4,8.4037,1,1.3602,3,0.6798,0,0,0,0,1,main,4,22,Female,R,Donders,2021-07-08_16h32.16.422,ImageRatingTask_S4,2021.1.4,Win32,59.88741167,,,,,,,,,
,,,,,,,,,,,,0,1,1,1,1,second,4,22,Female,R,Donders,2021-07-08_16h32.16.422,ImageRatingTask_S4,2021.1.4,Win32,59.88741167,,,,,,,,,
,,,,,,,,,,,,0,2,2,2,1,third,4,22,Female,R,Donders,2021-07-08_16h32.16.422,ImageRatingTask_S4,2021.1.4,Win32,59.88741167,,,,,,,,,
,,,,,,,,,,,,0,3,3,3,1,fourth,4,22,Female,R,Donders,2021-07-08_16h32.16.422,ImageRatingTask_S4,2021.1.4,Win32,59.88741167,,,,,,,,,
,,,,,,,,,,,,0,4,4,4,1,fifth,4,22,Female,R,Donders,2021-07-08_16h32.16.422,ImageRatingTask_S4,2021.1.4,Win32,59.88741167,,,,,,,,,
,,,,,,,,,,,,0,5,5,5,1,sixth,4,22,Female,R,Donders,2021-07-08_16h32.16.422,ImageRatingTask_S4,2021.1.4,Win32,59.88741167,,,,,,,,,
,,,,,,,,,,,,0,6,6,6,1,seventh,4,22,Female,R,Donders,2021-07-08_16h32.16.422,ImageRatingTask_S4,2021.1.4,Win32,59.88741167,,,,,,,,,
,,,,,,,,,,,,0,7,7,7,1,last,4,22,Female,R,Donders,2021-07-08_16h32.16.422,ImageRatingTask_S4,2021.1.4,Win32,59.88741167,,,,,,,,,
,,,,,,,,,,,,,,,,,,4,22,Female,R,Donders,2021-07-08_16h32.16.422,ImageRatingTask_S4,2021.1.4,Win32,59.88741167,0,71,71,0,1,DreamStudyImages_rs1000x750g/Mammals/Gorrila 1.jpg,,,
,,5,1.7913,1,1.1037,5,1.6905,1,0.7232,7,0.5761,0,0,0,0,1,main,4,22,Female,R,Donders,2021-07-08_16h32.16.422,ImageRatingTask_S4,2021.1.4,Win32,59.88741167,,,,,,,,,
,,,,,,,,,,,,0,1,1,1,1,second,4,22,Female,R,Donders,2021-07-08_16h32.16.422,ImageRatingTask_S4,2021.1.4,Win32,59.88741167,,,,,,,,,
,,,,,,,,,,,,0,2,2,2,1,third,4,22,Female,R,Donders,2021-07-08_16h32.16.422,ImageRatingTask_S4,2021.1.4,Win32,59.88741167,,,,,,,,,
,,,,,,,,,,,,0,3,3,3,1,fourth,4,22,Female,R,Donders,2021-07-08_16h32.16.422,ImageRatingTask_S4,2021.1.4,Win32,59.88741167,,,,,,,,,
,,,,,,,,,,,,0,4,4,4,1,fifth,4,22,Female,R,Donders,2021-07-08_16h32.16.422,ImageRatingTask_S4,2021.1.4,Win32,59.88741167,,,,,,,,,
,,,,,,,,,,,,0,5,5,5,1,sixth,4,22,Female,R,Donders,2021-07-08_16h32.16.422,ImageRatingTask_S4,2021.1.4,Win32,59.88741167,,,,,,,,,
,,,,,,,,,,,,0,6,6,6,1,seventh,4,22,Female,R,Donders,2021-07-08_16h32.16.422,ImageRatingTask_S4,2021.1.4,Win32,59.88741167,,,,,,,,,
,,,,,,,,,,,,0,7,7,7,1,last,4,22,Female,R,Donders,2021-07-08_16h32.16.422,ImageRatingTask_S4,2021.1.4,Win32,59.88741167,,,,,,,,,
,,,,,,,,,,,,,,,,,,4,22,Female,R,Donders,2021-07-08_16h32.16.422,ImageRatingTask_S4,2021.1.4,Win32,59.88741167,0,72,72,125,1,DreamStudyImages_rs1000x750g/Vehicles/Car race 2.jpg,,,
,,6,1.9834,2,1.0276,5,2.0442,1,1.0386,5,0.3936,0,0,0,0,1,main,4,22,Female,R,Donders,2021-07-08_16h32.16.422,ImageRatingTask_S4,2021.1.4,Win32,59.88741167,,,,,,,,,
,,,,,,,,,,,,0,1,1,1,1,second,4,22,Female,R,Donders,2021-07-08_16h32.16.422,ImageRatingTask_S4,2021.1.4,Win32,59.88741167,,,,,,,,,
,,,,,,,,,,,,0,2,2,2,1,third,4,22,Female,R,Donders,2021-07-08_16h32.16.422,ImageRatingTask_S4,2021.1.4,Win32,59.88741167,,,,,,,,,
,,,,,,,,,,,,0,3,3,3,1,fourth,4,22,Female,R,Donders,2021-07-08_16h32.16.422,ImageRatingTask_S4,2021.1.4,Win32,59.88741167,,,,,,,,,
,,,,,,,,,,,,0,4,4,4,1,fifth,4,22,Female,R,Donders,2021-07-08_16h32.16.422,ImageRatingTask_S4,2021.1.4,Win32,59.88741167,,,,,,,,,
,,,,,,,,,,,,0,5,5,5,1,sixth,4,22,Female,R,Donders,2021-07-08_16h32.16.422,ImageRatingTask_S4,2021.1.4,Win32,59.88741167,,,,,,,,,
,,,,,,,,,,,,0,6,6,6,1,seventh,4,22,Female,R,Donders,2021-07-08_16h32.16.422,ImageRatingTask_S4,2021.1.4,Win32,59.88741167,,,,,,,,,
,,,,,,,,,,,,0,7,7,7,1,last,4,22,Female,R,Donders,2021-07-08_16h32.16.422,ImageRatingTask_S4,2021.1.4,Win32,59.88741167,,,,,,,,,
,,,,,,,,,,,,,,,,,,4,22,Female,R,Donders,2021-07-08_16h32.16.422,ImageRatingTask_S4,2021.1.4,Win32,59.88741167,0,73,73,28,1,DreamStudyImages_rs1000x750g/Food/IAPS7460_fries.jpg,,,
,,7,2.6585,1,1.3141,7,1.3755,1,0.9617,6,0.8296,0,0,0,0,1,main,4,22,Female,R,Donders,2021-07-08_16h32.16.422,ImageRatingTask_S4,2021.1.4,Win32,59.88741167,,,,,,,,,
,,,,,,,,,,,,0,1,1,1,1,second,4,22,Female,R,Donders,2021-07-08_16h32.16.422,ImageRatingTask_S4,2021.1.4,Win32,59.88741167,,,,,,,,,
,,,,,,,,,,,,0,2,2,2,1,third,4,22,Female,R,Donders,2021-07-08_16h32.16.422,ImageRatingTask_S4,2021.1.4,Win32,59.88741167,,,,,,,,,
,,,,,,,,,,,,0,3,3,3,1,fourth,4,22,Female,R,Donders,2021-07-08_16h32.16.422,ImageRatingTask_S4,2021.1.4,Win32,59.88741167,,,,,,,,,
,,,,,,,,,,,,0,4,4,4,1,fifth,4,22,Female,R,Donders,2021-07-08_16h32.16.422,ImageRatingTask_S4,2021.1.4,Win32,59.88741167,,,,,,,,,
,,,,,,,,,,,,0,5,5,5,1,sixth,4,22,Female,R,Donders,2021-07-08_16h32.16.422,ImageRatingTask_S4,2021.1.4,Win32,59.88741167,,,,,,,,,
,,,,,,,,,,,,0,6,6,6,1,seventh,4,22,Female,R,Donders,2021-07-08_16h32.16.422,ImageRatingTask_S4,2021.1.4,Win32,59.88741167,,,,,,,,,
,,,,,,,,,,,,0,7,7,7,1,last,4,22,Female,R,Donders,2021-07-08_16h32.16.422,ImageRatingTask_S4,2021.1.4,Win32,59.88741167,,,,,,,,,
,,,,,,,,,,,,,,,,,,4,22,Female,R,Donders,2021-07-08_16h32.16.422,ImageRatingTask_S4,2021.1.4,Win32,59.88741167,0,74,74,50,1,DreamStudyImages_rs1000x750g/Houses/Landscapes_090_h_CROPPED.jpg,,,
,,5,3.1102,1,1.2095,7,2.1436,1,1.3112,5,0.4558,0,0,0,0,1,main,4,22,Female,R,Donders,2021-07-08_16h32.16.422,ImageRatingTask_S4,2021.1.4,Win32,59.88741167,,,,,,,,,
,,,,,,,,,,,,0,1,1,1,1,second,4,22,Female,R,Donders,2021-07-08_16h32.16.422,ImageRatingTask_S4,2021.1.4,Win32,59.88741167,,,,,,,,,
,,,,,,,,,,,,0,2,2,2,1,third,4,22,Female,R,Donders,2021-07-08_16h32.16.422,ImageRatingTask_S4,2021.1.4,Win32,59.88741167,,,,,,,,,
,,,,,,,,,,,,0,3,3,3,1,fourth,4,22,Female,R,Donders,2021-07-08_16h32.16.422,ImageRatingTask_S4,2021.1.4,Win32,59.88741167,,,,,,,,,
,,,,,,,,,,,,0,4,4,4,1,fifth,4,22,Female,R,Donders,2021-07-08_16h32.16.422,ImageRatingTask_S4,2021.1.4,Win32,59.88741167,,,,,,,,,
,,,,,,,,,,,,0,5,5,5,1,sixth,4,22,Female,R,Donders,2021-07-08_16h32.16.422,ImageRatingTask_S4,2021.1.4,Win32,59.88741167,,,,,,,,,
,,,,,,,,,,,,0,6,6,6,1,seventh,4,22,Female,R,Donders,2021-07-08_16h32.16.422,ImageRatingTask_S4,2021.1.4,Win32,59.88741167,,,,,,,,,
,,,,,,,,,,,,0,7,7,7,1,last,4,22,Female,R,Donders,2021-07-08_16h32.16.422,ImageRatingTask_S4,2021.1.4,Win32,59.88741167,,,,,,,,,
,,,,,,,,,,,,,,,,,,4,22,Female,R,Donders,2021-07-08_16h32.16.422,ImageRatingTask_S4,2021.1.4,Win32,59.88741167,0,75,75,76,1,DreamStudyImages_rs1000x750g/Food/Objects_052_h.jpg,,,
,,4,2.5704,1,1.0099,4,5.2269,1,0.977,5,0.4629,0,0,0,0,1,main,4,22,Female,R,Donders,2021-07-08_16h32.16.422,ImageRatingTask_S4,2021.1.4,Win32,59.88741167,,,,,,,,,
,,,,,,,,,,,,0,1,1,1,1,second,4,22,Female,R,Donders,2021-07-08_16h32.16.422,ImageRatingTask_S4,2021.1.4,Win32,59.88741167,,,,,,,,,
,,,,,,,,,,,,0,2,2,2,1,third,4,22,Female,R,Donders,2021-07-08_16h32.16.422,ImageRatingTask_S4,2021.1.4,Win32,59.88741167,,,,,,,,,
,,,,,,,,,,,,0,3,3,3,1,fourth,4,22,Female,R,Donders,2021-07-08_16h32.16.422,ImageRatingTask_S4,2021.1.4,Win32,59.88741167,,,,,,,,,
,,,,,,,,,,,,0,4,4,4,1,fifth,4,22,Female,R,Donders,2021-07-08_16h32.16.422,ImageRatingTask_S4,2021.1.4,Win32,59.88741167,,,,,,,,,
,,,,,,,,,,,,0,5,5,5,1,sixth,4,22,Female,R,Donders,2021-07-08_16h32.16.422,ImageRatingTask_S4,2021.1.4,Win32,59.88741167,,,,,,,,,
,,,,,,,,,,,,0,6,6,6,1,seventh,4,22,Female,R,Donders,2021-07-08_16h32.16.422,ImageRatingTask_S4,2021.1.4,Win32,59.88741167,,,,,,,,,
,,,,,,,,,,,,0,7,7,7,1,last,4,22,Female,R,Donders,2021-07-08_16h32.16.422,ImageRatingTask_S4,2021.1.4,Win32,59.88741167,,,,,,,,,
,,,,,,,,,,,,,,,,,,4,22,Female,R,Donders,2021-07-08_16h32.16.422,ImageRatingTask_S4,2021.1.4,Win32,59.88741167,0,76,76,58,1,DreamStudyImages_rs1000x750g/Food/IAPS7476_soup.jpg,,,
,,6,8.4706,1,1.0832,7,1.6476,1,0.8607,6,0.6457,0,0,0,0,1,main,4,22,Female,R,Donders,2021-07-08_16h32.16.422,ImageRatingTask_S4,2021.1.4,Win32,59.88741167,,,,,,,,,
,,,,,,,,,,,,0,1,1,1,1,second,4,22,Female,R,Donders,2021-07-08_16h32.16.422,ImageRatingTask_S4,2021.1.4,Win32,59.88741167,,,,,,,,,
,,,,,,,,,,,,0,2,2,2,1,third,4,22,Female,R,Donders,2021-07-08_16h32.16.422,ImageRatingTask_S4,2021.1.4,Win32,59.88741167,,,,,,,,,
,,,,,,,,,,,,0,3,3,3,1,fourth,4,22,Female,R,Donders,2021-07-08_16h32.16.422,ImageRatingTask_S4,2021.1.4,Win32,59.88741167,,,,,,,,,
,,,,,,,,,,,,0,4,4,4,1,fifth,4,22,Female,R,Donders,2021-07-08_16h32.16.422,ImageRatingTask_S4,2021.1.4,Win32,59.88741167,,,,,,,,,
,,,,,,,,,,,,0,5,5,5,1,sixth,4,22,Female,R,Donders,2021-07-08_16h32.16.422,ImageRatingTask_S4,2021.1.4,Win32,59.88741167,,,,,,,,,
,,,,,,,,,,,,0,6,6,6,1,seventh,4,22,Female,R,Donders,2021-07-08_16h32.16.422,ImageRatingTask_S4,2021.1.4,Win32,59.88741167,,,,,,,,,
,,,,,,,,,,,,0,7,7,7,1,last,4,22,Female,R,Donders,2021-07-08_16h32.16.422,ImageRatingTask_S4,2021.1.4,Win32,59.88741167,,,,,,,,,
,,,,,,,,,,,,,,,,,,4,22,Female,R,Donders,2021-07-08_16h32.16.422,ImageRatingTask_S4,2021.1.4,Win32,59.88741167,0,77,77,52,1,DreamStudyImages_rs1000x750g/Houses/Landscapes_087_h.jpg,,,
,,3,5.614,4,2.1937,7,2.4797,1,1.4089,3,0.9169,0,0,0,0,1,main,4,22,Female,R,Donders,2021-07-08_16h32.16.422,ImageRatingTask_S4,2021.1.4,Win32,59.88741167,,,,,,,,,
,,,,,,,,,,,,0,1,1,1,1,second,4,22,Female,R,Donders,2021-07-08_16h32.16.422,ImageRatingTask_S4,2021.1.4,Win32,59.88741167,,,,,,,,,
,,,,,,,,,,,,0,2,2,2,1,third,4,22,Female,R,Donders,2021-07-08_16h32.16.422,ImageRatingTask_S4,2021.1.4,Win32,59.88741167,,,,,,,,,
,,,,,,,,,,,,0,3,3,3,1,fourth,4,22,Female,R,Donders,2021-07-08_16h32.16.422,ImageRatingTask_S4,2021.1.4,Win32,59.88741167,,,,,,,,,
,,,,,,,,,,,,0,4,4,4,1,fifth,4,22,Female,R,Donders,2021-07-08_16h32.16.422,ImageRatingTask_S4,2021.1.4,Win32,59.88741167,,,,,,,,,
,,,,,,,,,,,,0,5,5,5,1,sixth,4,22,Female,R,Donders,2021-07-08_16h32.16.422,ImageRatingTask_S4,2021.1.4,Win32,59.88741167,,,,,,,,,
,,,,,,,,,,,,0,6,6,6,1,seventh,4,22,Female,R,Donders,2021-07-08_16h32.16.422,ImageRatingTask_S4,2021.1.4,Win32,59.88741167,,,,,,,,,
,,,,,,,,,,,,0,7,7,7,1,last,4,22,Female,R,Donders,2021-07-08_16h32.16.422,ImageRatingTask_S4,2021.1.4,Win32,59.88741167,,,,,,,,,
,,,,,,,,,,,,,,,,,,4,22,Female,R,Donders,2021-07-08_16h32.16.422,ImageRatingTask_S4,2021.1.4,Win32,59.88741167,0,78,78,46,1,DreamStudyImages_rs1000x750g/Mammals/Animals_148_h.jpg,,,
,,6,8.117,1,1.0602,6,4.0305,1,0.9692,8,0.5473,0,0,0,0,1,main,4,22,Female,R,Donders,2021-07-08_16h32.16.422,ImageRatingTask_S4,2021.1.4,Win32,59.88741167,,,,,,,,,
,,,,,,,,,,,,0,1,1,1,1,second,4,22,Female,R,Donders,2021-07-08_16h32.16.422,ImageRatingTask_S4,2021.1.4,Win32,59.88741167,,,,,,,,,
,,,,,,,,,,,,0,2,2,2,1,third,4,22,Female,R,Donders,2021-07-08_16h32.16.422,ImageRatingTask_S4,2021.1.4,Win32,59.88741167,,,,,,,,,
,,,,,,,,,,,,0,3,3,3,1,fourth,4,22,Female,R,Donders,2021-07-08_16h32.16.422,ImageRatingTask_S4,2021.1.4,Win32,59.88741167,,,,,,,,,
,,,,,,,,,,,,0,4,4,4,1,fifth,4,22,Female,R,Donders,2021-07-08_16h32.16.422,ImageRatingTask_S4,2021.1.4,Win32,59.88741167,,,,,,,,,
,,,,,,,,,,,,0,5,5,5,1,sixth,4,22,Female,R,Donders,2021-07-08_16h32.16.422,ImageRatingTask_S4,2021.1.4,Win32,59.88741167,,,,,,,,,
