slider_pre.response,slider_pre.rt,key_val.keys,key_val.rt,key_aro.keys,key_aro.rt,key_qual.keys,key_qual.rt,key_ncat.keys,key_ncat.rt,key_cats.keys,key_cats.rt,ncat_order.thisRepN,ncat_order.thisTrialN,ncat_order.thisN,ncat_order.thisIndex,ncat_order.ran,cond_cat,participant,age,gender,handedness (L/R),site (IMT/Donders),date,expName,psychopyVersion,OS,frameRate,img_trials.thisRepN,img_trials.thisTrialN,img_trials.thisN,img_trials.thisIndex,img_trials.ran,filename,slider_post.response,slider_post.rt,key_fb.keys,key_fb.rt,fb.thisRepN,fb.thisTrialN,fb.thisN,fb.thisIndex,fb.ran,fb_qst,textbox_openfb.text
5,3.6708,7,4.4939,3,1.1436,5,1.9024,1,1.0395,3,0.5362,0,0,0,0,1,main,4,22,Female,R,Donders,2021-07-08_18h44.04.026,ImageRatingTask_S5,2021.1.4,Win32,60.0240096,,,,,,,,,,,,,,,,,
,,,,,,,,,,,,0,1,1,1,1,second,4,22,Female,R,Donders,2021-07-08_18h44.04.026,ImageRatingTask_S5,2021.1.4,Win32,60.0240096,,,,,,,,,,,,,,,,,
,,,,,,,,,,,,0,2,2,2,1,third,4,22,Female,R,Donders,2021-07-08_18h44.04.026,ImageRatingTask_S5,2021.1.4,Win32,60.0240096,,,,,,,,,,,,,,,,,
,,,,,,,,,,,,0,3,3,3,1,fourth,4,22,Female,R,Donders,2021-07-08_18h44.04.026,ImageRatingTask_S5,2021.1.4,Win32,60.0240096,,,,,,,,,,,,,,,,,
,,,,,,,,,,,,0,4,4,4,1,fifth,4,22,Female,R,Donders,2021-07-08_18h44.04.026,ImageRatingTask_S5,2021.1.4,Win32,60.0240096,,,,,,,,,,,,,,,,,
,,,,,,,,,,,,0,5,5,5,1,sixth,4,22,Female,R,Donders,2021-07-08_18h44.04.026,ImageRatingTask_S5,2021.1.4,Win32,60.0240096,,,,,,,,,,,,,,,,,
,,,,,,,,,,,,0,6,6,6,1,seventh,4,22,Female,R,Donders,2021-07-08_18h44.04.026,ImageRatingTask_S5,2021.1.4,Win32,60.0240096,,,,,,,,,,,,,,,,,
,,,,,,,,,,,,0,7,7,7,1,last,4,22,Female,R,Donders,2021-07-08_18h44.04.026,ImageRatingTask_S5,2021.1.4,Win32,60.0240096,,,,,,,,,,,,,,,,,
,,,,,,,,,,,,,,,,,,4,22,Female,R,Donders,2021-07-08_18h44.04.026,ImageRatingTask_S5,2021.1.4,Win32,60.0240096,0,0,0,62,1,DreamStudyImages_rs1000x750g/Mammals/Horse 1.jpg,,,,,,,,,,,
,,6,5.1702,1,1.3215,7,1.5529,1,0.7801,3,0.5725,0,0,0,0,1,main,4,22,Female,R,Donders,2021-07-08_18h44.04.026,ImageRatingTask_S5,2021.1.4,Win32,60.0240096,,,,,,,,,,,,,,,,,
,,,,,,,,,,,,0,1,1,1,1,second,4,22,Female,R,Donders,2021-07-08_18h44.04.026,ImageRatingTask_S5,2021.1.4,Win32,60.0240096,,,,,,,,,,,,,,,,,
,,,,,,,,,,,,0,2,2,2,1,third,4,22,Female,R,Donders,2021-07-08_18h44.04.026,ImageRatingTask_S5,2021.1.4,Win32,60.0240096,,,,,,,,,,,,,,,,,
,,,,,,,,,,,,0,3,3,3,1,fourth,4,22,Female,R,Donders,2021-07-08_18h44.04.026,ImageRatingTask_S5,2021.1.4,Win32,60.0240096,,,,,,,,,,,,,,,,,
,,,,,,,,,,,,0,4,4,4,1,fifth,4,22,Female,R,Donders,2021-07-08_18h44.04.026,ImageRatingTask_S5,2021.1.4,Win32,60.0240096,,,,,,,,,,,,,,,,,
,,,,,,,,,,,,0,5,5,5,1,sixth,4,22,Female,R,Donders,2021-07-08_18h44.04.026,ImageRatingTask_S5,2021.1.4,Win32,60.0240096,,,,,,,,,,,,,,,,,
,,,,,,,,,,,,0,6,6,6,1,seventh,4,22,Female,R,Donders,2021-07-08_18h44.04.026,ImageRatingTask_S5,2021.1.4,Win32,60.0240096,,,,,,,,,,,,,,,,,
,,,,,,,,,,,,0,7,7,7,1,last,4,22,Female,R,Donders,2021-07-08_18h44.04.026,ImageRatingTask_S5,2021.1.4,Win32,60.0240096,,,,,,,,,,,,,,,,,
,,,,,,,,,,,,,,,,,,4,22,Female,R,Donders,2021-07-08_18h44.04.026,ImageRatingTask_S5,2021.1.4,Win32,60.0240096,0,1,1,39,1,DreamStudyImages_rs1000x750g/Mammals/Animals_146_h.jpg,,,,,,,,,,,
,,2,3.0498,6,1.7128,5,2.5645,1,1.229,7,0.737,0,0,0,0,1,main,4,22,Female,R,Donders,2021-07-08_18h44.04.026,ImageRatingTask_S5,2021.1.4,Win32,60.0240096,,,,,,,,,,,,,,,,,
,,,,,,,,,,,,0,1,1,1,1,second,4,22,Female,R,Donders,2021-07-08_18h44.04.026,ImageRatingTask_S5,2021.1.4,Win32,60.0240096,,,,,,,,,,,,,,,,,
,,,,,,,,,,,,0,2,2,2,1,third,4,22,Female,R,Donders,2021-07-08_18h44.04.026,ImageRatingTask_S5,2021.1.4,Win32,60.0240096,,,,,,,,,,,,,,,,,
,,,,,,,,,,,,0,3,3,3,1,fourth,4,22,Female,R,Donders,2021-07-08_18h44.04.026,ImageRatingTask_S5,2021.1.4,Win32,60.0240096,,,,,,,,,,,,,,,,,
,,,,,,,,,,,,0,4,4,4,1,fifth,4,22,Female,R,Donders,2021-07-08_18h44.04.026,ImageRatingTask_S5,2021.1.4,Win32,60.0240096,,,,,,,,,,,,,,,,,
,,,,,,,,,,,,0,5,5,5,1,sixth,4,22,Female,R,Donders,2021-07-08_18h44.04.026,ImageRatingTask_S5,2021.1.4,Win32,60.0240096,,,,,,,,,,,,,,,,,
,,,,,,,,,,,,0,6,6,6,1,seventh,4,22,Female,R,Donders,2021-07-08_18h44.04.026,ImageRatingTask_S5,2021.1.4,Win32,60.0240096,,,,,,,,,,,,,,,,,
,,,,,,,,,,,,0,7,7,7,1,last,4,22,Female,R,Donders,2021-07-08_18h44.04.026,ImageRatingTask_S5,2021.1.4,Win32,60.0240096,,,,,,,,,,,,,,,,,
,,,,,,,,,,,,,,,,,,4,22,Female,R,Donders,2021-07-08_18h44.04.026,ImageRatingTask_S5,2021.1.4,Win32,60.0240096,0,2,2,15,1,DreamStudyImages_rs1000x750g/Vehicles/9904.jpg,,,,,,,,,,,
,,3,2.1601,3,1.5412,7,1.8839,1,1.6291,6,0.8723,0,0,0,0,1,main,4,22,Female,R,Donders,2021-07-08_18h44.04.026,ImageRatingTask_S5,2021.1.4,Win32,60.0240096,,,,,,,,,,,,,,,,,
,,,,,,,,,,,,0,1,1,1,1,second,4,22,Female,R,Donders,2021-07-08_18h44.04.026,ImageRatingTask_S5,2021.1.4,Win32,60.0240096,,,,,,,,,,,,,,,,,
,,,,,,,,,,,,0,2,2,2,1,third,4,22,Female,R,Donders,2021-07-08_18h44.04.026,ImageRatingTask_S5,2021.1.4,Win32,60.0240096,,,,,,,,,,,,,,,,,
,,,,,,,,,,,,0,3,3,3,1,fourth,4,22,Female,R,Donders,2021-07-08_18h44.04.026,ImageRatingTask_S5,2021.1.4,Win32,60.0240096,,,,,,,,,,,,,,,,,
,,,,,,,,,,,,0,4,4,4,1,fifth,4,22,Female,R,Donders,2021-07-08_18h44.04.026,ImageRatingTask_S5,2021.1.4,Win32,60.0240096,,,,,,,,,,,,,,,,,
,,,,,,,,,,,,0,5,5,5,1,sixth,4,22,Female,R,Donders,2021-07-08_18h44.04.026,ImageRatingTask_S5,2021.1.4,Win32,60.0240096,,,,,,,,,,,,,,,,,
,,,,,,,,,,,,0,6,6,6,1,seventh,4,22,Female,R,Donders,2021-07-08_18h44.04.026,ImageRatingTask_S5,2021.1.4,Win32,60.0240096,,,,,,,,,,,,,,,,,
,,,,,,,,,,,,0,7,7,7,1,last,4,22,Female,R,Donders,2021-07-08_18h44.04.026,ImageRatingTask_S5,2021.1.4,Win32,60.0240096,,,,,,,,,,,,,,,,,
,,,,,,,,,,,,,,,,,,4,22,Female,R,Donders,2021-07-08_18h44.04.026,ImageRatingTask_S5,2021.1.4,Win32,60.0240096,0,3,3,143,1,DreamStudyImages_rs1000x750g/Houses/Objects_116_v.jpg,,,,,,,,,,,
,,6,5.8308,1,1.1131,5,2.1927,1,1.4624,8,0.5824,0,0,0,0,1,main,4,22,Female,R,Donders,2021-07-08_18h44.04.026,ImageRatingTask_S5,2021.1.4,Win32,60.0240096,,,,,,,,,,,,,,,,,
,,,,,,,,,,,,0,1,1,1,1,second,4,22,Female,R,Donders,2021-07-08_18h44.04.026,ImageRatingTask_S5,2021.1.4,Win32,60.0240096,,,,,,,,,,,,,,,,,
,,,,,,,,,,,,0,2,2,2,1,third,4,22,Female,R,Donders,2021-07-08_18h44.04.026,ImageRatingTask_S5,2021.1.4,Win32,60.0240096,,,,,,,,,,,,,,,,,
,,,,,,,,,,,,0,3,3,3,1,fourth,4,22,Female,R,Donders,2021-07-08_18h44.04.026,ImageRatingTask_S5,2021.1.4,Win32,60.0240096,,,,,,,,,,,,,,,,,
,,,,,,,,,,,,0,4,4,4,1,fifth,4,22,Female,R,Donders,2021-07-08_18h44.04.026,ImageRatingTask_S5,2021.1.4,Win32,60.0240096,,,,,,,,,,,,,,,,,
,,,,,,,,,,,,0,5,5,5,1,sixth,4,22,Female,R,Donders,2021-07-08_18h44.04.026,ImageRatingTask_S5,2021.1.4,Win32,60.0240096,,,,,,,,,,,,,,,,,
,,,,,,,,,,,,0,6,6,6,1,seventh,4,22,Female,R,Donders,2021-07-08_18h44.04.026,ImageRatingTask_S5,2021.1.4,Win32,60.0240096,,,,,,,,,,,,,,,,,
,,,,,,,,,,,,0,7,7,7,1,last,4,22,Female,R,Donders,2021-07-08_18h44.04.026,ImageRatingTask_S5,2021.1.4,Win32,60.0240096,,,,,,,,,,,,,,,,,
,,,,,,,,,,,,,,,,,,4,22,Female,R,Donders,2021-07-08_18h44.04.026,ImageRatingTask_S5,2021.1.4,Win32,60.0240096,0,4,4,120,1,DreamStudyImages_rs1000x750g/Water/Rainbow 2.jpg,,,,,,,,,,,
,,4,1.8711,1,1.4951,5,2.6588,1,1.1814,2,0.1752,0,0,0,0,1,main,4,22,Female,R,Donders,2021-07-08_18h44.04.026,ImageRatingTask_S5,2021.1.4,Win32,60.0240096,,,,,,,,,,,,,,,,,
,,,,,,,,,,,,0,1,1,1,1,second,4,22,Female,R,Donders,2021-07-08_18h44.04.026,ImageRatingTask_S5,2021.1.4,Win32,60.0240096,,,,,,,,,,,,,,,,,
,,,,,,,,,,,,0,2,2,2,1,third,4,22,Female,R,Donders,2021-07-08_18h44.04.026,ImageRatingTask_S5,2021.1.4,Win32,60.0240096,,,,,,,,,,,,,,,,,
,,,,,,,,,,,,0,3,3,3,1,fourth,4,22,Female,R,Donders,2021-07-08_18h44.04.026,ImageRatingTask_S5,2021.1.4,Win32,60.0240096,,,,,,,,,,,,,,,,,
,,,,,,,,,,,,0,4,4,4,1,fifth,4,22,Female,R,Donders,2021-07-08_18h44.04.026,ImageRatingTask_S5,2021.1.4,Win32,60.0240096,,,,,,,,,,,,,,,,,
,,,,,,,,,,,,0,5,5,5,1,sixth,4,22,Female,R,Donders,2021-07-08_18h44.04.026,ImageRatingTask_S5,2021.1.4,Win32,60.0240096,,,,,,,,,,,,,,,,,
,,,,,,,,,,,,0,6,6,6,1,seventh,4,22,Female,R,Donders,2021-07-08_18h44.04.026,ImageRatingTask_S5,2021.1.4,Win32,60.0240096,,,,,,,,,,,,,,,,,
,,,,,,,,,,,,0,7,7,7,1,last,4,22,Female,R,Donders,2021-07-08_18h44.04.026,ImageRatingTask_S5,2021.1.4,Win32,60.0240096,,,,,,,,,,,,,,,,,
,,,,,,,,,,,,,,,,,,4,22,Female,R,Donders,2021-07-08_18h44.04.026,ImageRatingTask_S5,2021.1.4,Win32,60.0240096,0,5,5,42,1,DreamStudyImages_rs1000x750g/Children/Faces_008_h.jpg,,,,,,,,,,,
,,3,4.1131,7,1.5062,7,2.2331,1,1.0987,5,0.7547,0,0,0,0,1,main,4,22,Female,R,Donders,2021-07-08_18h44.04.026,ImageRatingTask_S5,2021.1.4,Win32,60.0240096,,,,,,,,,,,,,,,,,
,,,,,,,,,,,,0,1,1,1,1,second,4,22,Female,R,Donders,2021-07-08_18h44.04.026,ImageRatingTask_S5,2021.1.4,Win32,60.0240096,,,,,,,,,,,,,,,,,
,,,,,,,,,,,,0,2,2,2,1,third,4,22,Female,R,Donders,2021-07-08_18h44.04.026,ImageRatingTask_S5,2021.1.4,Win32,60.0240096,,,,,,,,,,,,,,,,,
,,,,,,,,,,,,0,3,3,3,1,fourth,4,22,Female,R,Donders,2021-07-08_18h44.04.026,ImageRatingTask_S5,2021.1.4,Win32,60.0240096,,,,,,,,,,,,,,,,,
,,,,,,,,,,,,0,4,4,4,1,fifth,4,22,Female,R,Donders,2021-07-08_18h44.04.026,ImageRatingTask_S5,2021.1.4,Win32,60.0240096,,,,,,,,,,,,,,,,,
,,,,,,,,,,,,0,5,5,5,1,sixth,4,22,Female,R,Donders,2021-07-08_18h44.04.026,ImageRatingTask_S5,2021.1.4,Win32,60.0240096,,,,,,,,,,,,,,,,,
,,,,,,,,,,,,0,6,6,6,1,seventh,4,22,Female,R,Donders,2021-07-08_18h44.04.026,ImageRatingTask_S5,2021.1.4,Win32,60.0240096,,,,,,,,,,,,,,,,,
,,,,,,,,,,,,0,7,7,7,1,last,4,22,Female,R,Donders,2021-07-08_18h44.04.026,ImageRatingTask_S5,2021.1.4,Win32,60.0240096,,,,,,,,,,,,,,,,,
,,,,,,,,,,,,,,,,,,4,22,Female,R,Donders,2021-07-08_18h44.04.026,ImageRatingTask_S5,2021.1.4,Win32,60.0240096,0,6,6,36,1,DreamStudyImages_rs1000x750g/Food/Objects_067_h.jpg,,,,,,,,,,,
,,5,2.513,1,1.2432,6,1.5953,2,1.6778,1,0.8892,0,0,0,0,1,main,4,22,Female,R,Donders,2021-07-08_18h44.04.026,ImageRatingTask_S5,2021.1.4,Win32,60.0240096,,,,,,,,,,,,,,,,,
,,,,,,,,,,2,0.3334,0,1,1,1,1,second,4,22,Female,R,Donders,2021-07-08_18h44.04.026,ImageRatingTask_S5,2021.1.4,Win32,60.0240096,,,,,,,,,,,,,,,,,
,,,,,,,,,,,,0,2,2,2,1,third,4,22,Female,R,Donders,2021-07-08_18h44.04.026,ImageRatingTask_S5,2021.1.4,Win32,60.0240096,,,,,,,,,,,,,,,,,
,,,,,,,,,,,,0,3,3,3,1,fourth,4,22,Female,R,Donders,2021-07-08_18h44.04.026,ImageRatingTask_S5,2021.1.4,Win32,60.0240096,,,,,,,,,,,,,,,,,
,,,,,,,,,,,,0,4,4,4,1,fifth,4,22,Female,R,Donders,2021-07-08_18h44.04.026,ImageRatingTask_S5,2021.1.4,Win32,60.0240096,,,,,,,,,,,,,,,,,
,,,,,,,,,,,,0,5,5,5,1,sixth,4,22,Female,R,Donders,2021-07-08_18h44.04.026,ImageRatingTask_S5,2021.1.4,Win32,60.0240096,,,,,,,,,,,,,,,,,
,,,,,,,,,,,,0,6,6,6,1,seventh,4,22,Female,R,Donders,2021-07-08_18h44.04.026,ImageRatingTask_S5,2021.1.4,Win32,60.0240096,,,,,,,,,,,,,,,,,
,,,,,,,,,,,,0,7,7,7,1,last,4,22,Female,R,Donders,2021-07-08_18h44.04.026,ImageRatingTask_S5,2021.1.4,Win32,60.0240096,,,,,,,,,,,,,,,,,
,,,,,,,,,,,,,,,,,,4,22,Female,R,Donders,2021-07-08_18h44.04.026,ImageRatingTask_S5,2021.1.4,Win32,60.0240096,0,7,7,136,1,DreamStudyImages_rs1000x750g/Children/Faces_259_v.jpg,,,,,,,,,,,
,,5,2.6454,3,1.6833,7,1.9219,1,1.0075,6,0.5914,0,0,0,0,1,main,4,22,Female,R,Donders,2021-07-08_18h44.04.026,ImageRatingTask_S5,2021.1.4,Win32,60.0240096,,,,,,,,,,,,,,,,,
,,,,,,,,,,,,0,1,1,1,1,second,4,22,Female,R,Donders,2021-07-08_18h44.04.026,ImageRatingTask_S5,2021.1.4,Win32,60.0240096,,,,,,,,,,,,,,,,,
,,,,,,,,,,,,0,2,2,2,1,third,4,22,Female,R,Donders,2021-07-08_18h44.04.026,ImageRatingTask_S5,2021.1.4,Win32,60.0240096,,,,,,,,,,,,,,,,,
,,,,,,,,,,,,0,3,3,3,1,fourth,4,22,Female,R,Donders,2021-07-08_18h44.04.026,ImageRatingTask_S5,2021.1.4,Win32,60.0240096,,,,,,,,,,,,,,,,,
,,,,,,,,,,,,0,4,4,4,1,fifth,4,22,Female,R,Donders,2021-07-08_18h44.04.026,ImageRatingTask_S5,2021.1.4,Win32,60.0240096,,,,,,,,,,,,,,,,,
,,,,,,,,,,,,0,5,5,5,1,sixth,4,22,Female,R,Donders,2021-07-08_18h44.04.026,ImageRatingTask_S5,2021.1.4,Win32,60.0240096,,,,,,,,,,,,,,,,,
,,,,,,,,,,,,0,6,6,6,1,seventh,4,22,Female,R,Donders,2021-07-08_18h44.04.026,ImageRatingTask_S5,2021.1.4,Win32,60.0240096,,,,,,,,,,,,,,,,,
,,,,,,,,,,,,0,7,7,7,1,last,4,22,Female,R,Donders,2021-07-08_18h44.04.026,ImageRatingTask_S5,2021.1.4,Win32,60.0240096,,,,,,,,,,,,,,,,,
,,,,,,,,,,,,,,,,,,4,22,Female,R,Donders,2021-07-08_18h44.04.026,ImageRatingTask_S5,2021.1.4,Win32,60.0240096,0,8,8,152,1,DreamStudyImages_rs1000x750g/Houses/NDPS92_destroyedhouse.jpg,,,,,,,,,,,
,,1,6.0409,8,1.6617,7,2.9556,1,0.8898,3,0.8665,0,0,0,0,1,main,4,22,Female,R,Donders,2021-07-08_18h44.04.026,ImageRatingTask_S5,2021.1.4,Win32,60.0240096,,,,,,,,,,,,,,,,,
,,,,,,,,,,,,0,1,1,1,1,second,4,22,Female,R,Donders,2021-07-08_18h44.04.026,ImageRatingTask_S5,2021.1.4,Win32,60.0240096,,,,,,,,,,,,,,,,,
,,,,,,,,,,,,0,2,2,2,1,third,4,22,Female,R,Donders,2021-07-08_18h44.04.026,ImageRatingTask_S5,2021.1.4,Win32,60.0240096,,,,,,,,,,,,,,,,,
,,,,,,,,,,,,0,3,3,3,1,fourth,4,22,Female,R,Donders,2021-07-08_18h44.04.026,ImageRatingTask_S5,2021.1.4,Win32,60.0240096,,,,,,,,,,,,,,,,,
,,,,,,,,,,,,0,4,4,4,1,fifth,4,22,Female,R,Donders,2021-07-08_18h44.04.026,ImageRatingTask_S5,2021.1.4,Win32,60.0240096,,,,,,,,,,,,,,,,,
,,,,,,,,,,,,0,5,5,5,1,sixth,4,22,Female,R,Donders,2021-07-08_18h44.04.026,ImageRatingTask_S5,2021.1.4,Win32,60.0240096,,,,,,,,,,,,,,,,,
,,,,,,,,,,,,0,6,6,6,1,seventh,4,22,Female,R,Donders,2021-07-08_18h44.04.026,ImageRatingTask_S5,2021.1.4,Win32,60.0240096,,,,,,,,,,,,,,,,,
,,,,,,,,,,,,0,7,7,7,1,last,4,22,Female,R,Donders,2021-07-08_18h44.04.026,ImageRatingTask_S5,2021.1.4,Win32,60.0240096,,,,,,,,,,,,,,,,,
,,,,,,,,,,,,,,,,,,4,22,Female,R,Donders,2021-07-08_18h44.04.026,ImageRatingTask_S5,2021.1.4,Win32,60.0240096,0,9,9,95,1,DreamStudyImages_rs1000x750g/Mammals/Animals_207_h.jpg,,,,,,,,,,,
,,5,2.343,6,2.5307,6,2.1378,1,5.5812,5,0.6365,0,0,0,0,1,main,4,22,Female,R,Donders,2021-07-08_18h44.04.026,ImageRatingTask_S5,2021.1.4,Win32,60.0240096,,,,,,,,,,,,,,,,,
,,,,,,,,,,,,0,1,1,1,1,second,4,22,Female,R,Donders,2021-07-08_18h44.04.026,ImageRatingTask_S5,2021.1.4,Win32,60.0240096,,,,,,,,,,,,,,,,,
,,,,,,,,,,,,0,2,2,2,1,third,4,22,Female,R,Donders,2021-07-08_18h44.04.026,ImageRatingTask_S5,2021.1.4,Win32,60.0240096,,,,,,,,,,,,,,,,,
,,,,,,,,,,,,0,3,3,3,1,fourth,4,22,Female,R,Donders,2021-07-08_18h44.04.026,ImageRatingTask_S5,2021.1.4,Win32,60.0240096,,,,,,,,,,,,,,,,,
,,,,,,,,,,,,0,4,4,4,1,fifth,4,22,Female,R,Donders,2021-07-08_18h44.04.026,ImageRatingTask_S5,2021.1.4,Win32,60.0240096,,,,,,,,,,,,,,,,,
,,,,,,,,,,,,0,5,5,5,1,sixth,4,22,Female,R,Donders,2021-07-08_18h44.04.026,ImageRatingTask_S5,2021.1.4,Win32,60.0240096,,,,,,,,,,,,,,,,,
,,,,,,,,,,,,0,6,6,6,1,seventh,4,22,Female,R,Donders,2021-07-08_18h44.04.026,ImageRatingTask_S5,2021.1.4,Win32,60.0240096,,,,,,,,,,,,,,,,,
,,,,,,,,,,,,0,7,7,7,1,last,4,22,Female,R,Donders,2021-07-08_18h44.04.026,ImageRatingTask_S5,2021.1.4,Win32,60.0240096,,,,,,,,,,,,,,,,,
,,,,,,,,,,,,,,,,,,4,22,Female,R,Donders,2021-07-08_18h44.04.026,ImageRatingTask_S5,2021.1.4,Win32,60.0240096,0,10,10,44,1,DreamStudyImages_rs1000x750g/Food/Objects_071_h.jpg,,,,,,,,,,,
,,5,1.4304,1,1.2775,6,1.8302,1,0.8864,2,0.7731,0,0,0,0,1,main,4,22,Female,R,Donders,2021-07-08_18h44.04.026,ImageRatingTask_S5,2021.1.4,Win32,60.0240096,,,,,,,,,,,,,,,,,
,,,,,,,,,,,,0,1,1,1,1,second,4,22,Female,R,Donders,2021-07-08_18h44.04.026,ImageRatingTask_S5,2021.1.4,Win32,60.0240096,,,,,,,,,,,,,,,,,
,,,,,,,,,,,,0,2,2,2,1,third,4,22,Female,R,Donders,2021-07-08_18h44.04.026,ImageRatingTask_S5,2021.1.4,Win32,60.0240096,,,,,,,,,,,,,,,,,
,,,,,,,,,,,,0,3,3,3,1,fourth,4,22,Female,R,Donders,2021-07-08_18h44.04.026,ImageRatingTask_S5,2021.1.4,Win32,60.0240096,,,,,,,,,,,,,,,,,
,,,,,,,,,,,,0,4,4,4,1,fifth,4,22,Female,R,Donders,2021-07-08_18h44.04.026,ImageRatingTask_S5,2021.1.4,Win32,60.0240096,,,,,,,,,,,,,,,,,
,,,,,,,,,,,,0,5,5,5,1,sixth,4,22,Female,R,Donders,2021-07-08_18h44.04.026,ImageRatingTask_S5,2021.1.4,Win32,60.0240096,,,,,,,,,,,,,,,,,
,,,,,,,,,,,,0,6,6,6,1,seventh,4,22,Female,R,Donders,2021-07-08_18h44.04.026,ImageRatingTask_S5,2021.1.4,Win32,60.0240096,,,,,,,,,,,,,,,,,
,,,,,,,,,,,,0,7,7,7,1,last,4,22,Female,R,Donders,2021-07-08_18h44.04.026,ImageRatingTask_S5,2021.1.4,Win32,60.0240096,,,,,,,,,,,,,,,,,
,,,,,,,,,,,,,,,,,,4,22,Female,R,Donders,2021-07-08_18h44.04.026,ImageRatingTask_S5,2021.1.4,Win32,60.0240096,0,11,11,86,1,DreamStudyImages_rs1000x750g/Children/People_049_h.jpg,,,,,,,,,,,
,,5,14.9409,1,0.8912,6,1.7208,1,1.7715,8,0.5435,0,0,0,0,1,main,4,22,Female,R,Donders,2021-07-08_18h44.04.026,ImageRatingTask_S5,2021.1.4,Win32,60.0240096,,,,,,,,,,,,,,,,,
,,,,,,,,,,,,0,1,1,1,1,second,4,22,Female,R,Donders,2021-07-08_18h44.04.026,ImageRatingTask_S5,2021.1.4,Win32,60.0240096,,,,,,,,,,,,,,,,,
,,,,,,,,,,,,0,2,2,2,1,third,4,22,Female,R,Donders,2021-07-08_18h44.04.026,ImageRatingTask_S5,2021.1.4,Win32,60.0240096,,,,,,,,,,,,,,,,,
,,,,,,,,,,,,0,3,3,3,1,fourth,4,22,Female,R,Donders,2021-07-08_18h44.04.026,ImageRatingTask_S5,2021.1.4,Win32,60.0240096,,,,,,,,,,,,,,,,,
,,,,,,,,,,,,0,4,4,4,1,fifth,4,22,Female,R,Donders,2021-07-08_18h44.04.026,ImageRatingTask_S5,2021.1.4,Win32,60.0240096,,,,,,,,,,,,,,,,,
,,,,,,,,,,,,0,5,5,5,1,sixth,4,22,Female,R,Donders,2021-07-08_18h44.04.026,ImageRatingTask_S5,2021.1.4,Win32,60.0240096,,,,,,,,,,,,,,,,,
,,,,,,,,,,,,0,6,6,6,1,seventh,4,22,Female,R,Donders,2021-07-08_18h44.04.026,ImageRatingTask_S5,2021.1.4,Win32,60.0240096,,,,,,,,,,,,,,,,,
,,,,,,,,,,,,0,7,7,7,1,last,4,22,Female,R,Donders,2021-07-08_18h44.04.026,ImageRatingTask_S5,2021.1.4,Win32,60.0240096,,,,,,,,,,,,,,,,,
,,,,,,,,,,,,,,,,,,4,22,Female,R,Donders,2021-07-08_18h44.04.026,ImageRatingTask_S5,2021.1.4,Win32,60.0240096,0,12,12,88,1,DreamStudyImages_rs1000x750g/Water/Landscapes_129_v.jpg,,,,,,,,,,,
,,5,1.8471,1,0.5131,6,2.1529,1,1.1218,7,0.4806,0,0,0,0,1,main,4,22,Female,R,Donders,2021-07-08_18h44.04.026,ImageRatingTask_S5,2021.1.4,Win32,60.0240096,,,,,,,,,,,,,,,,,
,,,,,,,,,,,,0,1,1,1,1,second,4,22,Female,R,Donders,2021-07-08_18h44.04.026,ImageRatingTask_S5,2021.1.4,Win32,60.0240096,,,,,,,,,,,,,,,,,
,,,,,,,,,,,,0,2,2,2,1,third,4,22,Female,R,Donders,2021-07-08_18h44.04.026,ImageRatingTask_S5,2021.1.4,Win32,60.0240096,,,,,,,,,,,,,,,,,
,,,,,,,,,,,,0,3,3,3,1,fourth,4,22,Female,R,Donders,2021-07-08_18h44.04.026,ImageRatingTask_S5,2021.1.4,Win32,60.0240096,,,,,,,,,,,,,,,,,
,,,,,,,,,,,,0,4,4,4,1,fifth,4,22,Female,R,Donders,2021-07-08_18h44.04.026,ImageRatingTask_S5,2021.1.4,Win32,60.0240096,,,,,,,,,,,,,,,,,
,,,,,,,,,,,,0,5,5,5,1,sixth,4,22,Female,R,Donders,2021-07-08_18h44.04.026,ImageRatingTask_S5,2021.1.4,Win32,60.0240096,,,,,,,,,,,,,,,,,
,,,,,,,,,,,,0,6,6,6,1,seventh,4,22,Female,R,Donders,2021-07-08_18h44.04.026,ImageRatingTask_S5,2021.1.4,Win32,60.0240096,,,,,,,,,,,,,,,,,
,,,,,,,,,,,,0,7,7,7,1,last,4,22,Female,R,Donders,2021-07-08_18h44.04.026,ImageRatingTask_S5,2021.1.4,Win32,60.0240096,,,,,,,,,,,,,,,,,
,,,,,,,,,,,,,,,,,,4,22,Female,R,Donders,2021-07-08_18h44.04.026,ImageRatingTask_S5,2021.1.4,Win32,60.0240096,0,13,13,4,1,DreamStudyImages_rs1000x750g/Vehicles/Objects_308_h.jpg,,,,,,,,,,,
,,6,2.8583,2,1.6086,7,3.3164,1,1.0028,3,0.5599,0,0,0,0,1,main,4,22,Female,R,Donders,2021-07-08_18h44.04.026,ImageRatingTask_S5,2021.1.4,Win32,60.0240096,,,,,,,,,,,,,,,,,
,,,,,,,,,,,,0,1,1,1,1,second,4,22,Female,R,Donders,2021-07-08_18h44.04.026,ImageRatingTask_S5,2021.1.4,Win32,60.0240096,,,,,,,,,,,,,,,,,
,,,,,,,,,,,,0,2,2,2,1,third,4,22,Female,R,Donders,2021-07-08_18h44.04.026,ImageRatingTask_S5,2021.1.4,Win32,60.0240096,,,,,,,,,,,,,,,,,
,,,,,,,,,,,,0,3,3,3,1,fourth,4,22,Female,R,Donders,2021-07-08_18h44.04.026,ImageRatingTask_S5,2021.1.4,Win32,60.0240096,,,,,,,,,,,,,,,,,
,,,,,,,,,,,,0,4,4,4,1,fifth,4,22,Female,R,Donders,2021-07-08_18h44.04.026,ImageRatingTask_S5,2021.1.4,Win32,60.0240096,,,,,,,,,,,,,,,,,
,,,,,,,,,,,,0,5,5,5,1,sixth,4,22,Female,R,Donders,2021-07-08_18h44.04.026,ImageRatingTask_S5,2021.1.4,Win32,60.0240096,,,,,,,,,,,,,,,,,
,,,,,,,,,,,,0,6,6,6,1,seventh,4,22,Female,R,Donders,2021-07-08_18h44.04.026,ImageRatingTask_S5,2021.1.4,Win32,60.0240096,,,,,,,,,,,,,,,,,
,,,,,,,,,,,,0,7,7,7,1,last,4,22,Female,R,Donders,2021-07-08_18h44.04.026,ImageRatingTask_S5,2021.1.4,Win32,60.0240096,,,,,,,,,,,,,,,,,
,,,,,,,,,,,,,,,,,,4,22,Female,R,Donders,2021-07-08_18h44.04.026,ImageRatingTask_S5,2021.1.4,Win32,60.0240096,0,14,14,16,1,DreamStudyImages_rs1000x750g/Mammals/Animals_163_h.jpg,,,,,,,,,,,
,,4,2.0433,1,0.9493,7,3.6477,1,1.3156,6,0.674,0,0,0,0,1,main,4,22,Female,R,Donders,2021-07-08_18h44.04.026,ImageRatingTask_S5,2021.1.4,Win32,60.0240096,,,,,,,,,,,,,,,,,
,,,,,,,,,,,,0,1,1,1,1,second,4,22,Female,R,Donders,2021-07-08_18h44.04.026,ImageRatingTask_S5,2021.1.4,Win32,60.0240096,,,,,,,,,,,,,,,,,
,,,,,,,,,,,,0,2,2,2,1,third,4,22,Female,R,Donders,2021-07-08_18h44.04.026,ImageRatingTask_S5,2021.1.4,Win32,60.0240096,,,,,,,,,,,,,,,,,
,,,,,,,,,,,,0,3,3,3,1,fourth,4,22,Female,R,Donders,2021-07-08_18h44.04.026,ImageRatingTask_S5,2021.1.4,Win32,60.0240096,,,,,,,,,,,,,,,,,
,,,,,,,,,,,,0,4,4,4,1,fifth,4,22,Female,R,Donders,2021-07-08_18h44.04.026,ImageRatingTask_S5,2021.1.4,Win32,60.0240096,,,,,,,,,,,,,,,,,
,,,,,,,,,,,,0,5,5,5,1,sixth,4,22,Female,R,Donders,2021-07-08_18h44.04.026,ImageRatingTask_S5,2021.1.4,Win32,60.0240096,,,,,,,,,,,,,,,,,
,,,,,,,,,,,,0,6,6,6,1,seventh,4,22,Female,R,Donders,2021-07-08_18h44.04.026,ImageRatingTask_S5,2021.1.4,Win32,60.0240096,,,,,,,,,,,,,,,,,
,,,,,,,,,,,,0,7,7,7,1,last,4,22,Female,R,Donders,2021-07-08_18h44.04.026,ImageRatingTask_S5,2021.1.4,Win32,60.0240096,,,,,,,,,,,,,,,,,
,,,,,,,,,,,,,,,,,,4,22,Female,R,Donders,2021-07-08_18h44.04.026,ImageRatingTask_S5,2021.1.4,Win32,60.0240096,0,15,15,19,1,DreamStudyImages_rs1000x750g/Houses/Landscapes_014_h.jpg,,,,,,,,,,,
,,3,2.8856,4,1.2024,6,1.935,1,0.8563,3,0.5841,0,0,0,0,1,main,4,22,Female,R,Donders,2021-07-08_18h44.04.026,ImageRatingTask_S5,2021.1.4,Win32,60.0240096,,,,,,,,,,,,,,,,,
,,,,,,,,,,,,0,1,1,1,1,second,4,22,Female,R,Donders,2021-07-08_18h44.04.026,ImageRatingTask_S5,2021.1.4,Win32,60.0240096,,,,,,,,,,,,,,,,,
,,,,,,,,,,,,0,2,2,2,1,third,4,22,Female,R,Donders,2021-07-08_18h44.04.026,ImageRatingTask_S5,2021.1.4,Win32,60.0240096,,,,,,,,,,,,,,,,,
,,,,,,,,,,,,0,3,3,3,1,fourth,4,22,Female,R,Donders,2021-07-08_18h44.04.026,ImageRatingTask_S5,2021.1.4,Win32,60.0240096,,,,,,,,,,,,,,,,,
,,,,,,,,,,,,0,4,4,4,1,fifth,4,22,Female,R,Donders,2021-07-08_18h44.04.026,ImageRatingTask_S5,2021.1.4,Win32,60.0240096,,,,,,,,,,,,,,,,,
,,,,,,,,,,,,0,5,5,5,1,sixth,4,22,Female,R,Donders,2021-07-08_18h44.04.026,ImageRatingTask_S5,2021.1.4,Win32,60.0240096,,,,,,,,,,,,,,,,,
,,,,,,,,,,,,0,6,6,6,1,seventh,4,22,Female,R,Donders,2021-07-08_18h44.04.026,ImageRatingTask_S5,2021.1.4,Win32,60.0240096,,,,,,,,,,,,,,,,,
,,,,,,,,,,,,0,7,7,7,1,last,4,22,Female,R,Donders,2021-07-08_18h44.04.026,ImageRatingTask_S5,2021.1.4,Win32,60.0240096,,,,,,,,,,,,,,,,,
,,,,,,,,,,,,,,,,,,4,22,Female,R,Donders,2021-07-08_18h44.04.026,ImageRatingTask_S5,2021.1.4,Win32,60.0240096,0,16,16,133,1,DreamStudyImages_rs1000x750g/Mammals/1321.jpg,,,,,,,,,,,
,,5,3.0412,2,1.3992,7,4.3789,1,0.834,5,0.4983,0,0,0,0,1,main,4,22,Female,R,Donders,2021-07-08_18h44.04.026,ImageRatingTask_S5,2021.1.4,Win32,60.0240096,,,,,,,,,,,,,,,,,
,,,,,,,,,,,,0,1,1,1,1,second,4,22,Female,R,Donders,2021-07-08_18h44.04.026,ImageRatingTask_S5,2021.1.4,Win32,60.0240096,,,,,,,,,,,,,,,,,
,,,,,,,,,,,,0,2,2,2,1,third,4,22,Female,R,Donders,2021-07-08_18h44.04.026,ImageRatingTask_S5,2021.1.4,Win32,60.0240096,,,,,,,,,,,,,,,,,
,,,,,,,,,,,,0,3,3,3,1,fourth,4,22,Female,R,Donders,2021-07-08_18h44.04.026,ImageRatingTask_S5,2021.1.4,Win32,60.0240096,,,,,,,,,,,,,,,,,
,,,,,,,,,,,,0,4,4,4,1,fifth,4,22,Female,R,Donders,2021-07-08_18h44.04.026,ImageRatingTask_S5,2021.1.4,Win32,60.0240096,,,,,,,,,,,,,,,,,
,,,,,,,,,,,,0,5,5,5,1,sixth,4,22,Female,R,Donders,2021-07-08_18h44.04.026,ImageRatingTask_S5,2021.1.4,Win32,60.0240096,,,,,,,,,,,,,,,,,
,,,,,,,,,,,,0,6,6,6,1,seventh,4,22,Female,R,Donders,2021-07-08_18h44.04.026,ImageRatingTask_S5,2021.1.4,Win32,60.0240096,,,,,,,,,,,,,,,,,
,,,,,,,,,,,,0,7,7,7,1,last,4,22,Female,R,Donders,2021-07-08_18h44.04.026,ImageRatingTask_S5,2021.1.4,Win32,60.0240096,,,,,,,,,,,,,,,,,
,,,,,,,,,,,,,,,,,,4,22,Female,R,Donders,2021-07-08_18h44.04.026,ImageRatingTask_S5,2021.1.4,Win32,60.0240096,0,17,17,111,1,DreamStudyImages_rs1000x750g/Food/Objects_051_h.jpg,,,,,,,,,,,
,,7,2.0848,2,1.1104,6,2.7697,1,0.8559,5,0.4087,0,0,0,0,1,main,4,22,Female,R,Donders,2021-07-08_18h44.04.026,ImageRatingTask_S5,2021.1.4,Win32,60.0240096,,,,,,,,,,,,,,,,,
,,,,,,,,,,,,0,1,1,1,1,second,4,22,Female,R,Donders,2021-07-08_18h44.04.026,ImageRatingTask_S5,2021.1.4,Win32,60.0240096,,,,,,,,,,,,,,,,,
,,,,,,,,,,,,0,2,2,2,1,third,4,22,Female,R,Donders,2021-07-08_18h44.04.026,ImageRatingTask_S5,2021.1.4,Win32,60.0240096,,,,,,,,,,,,,,,,,
,,,,,,,,,,,,0,3,3,3,1,fourth,4,22,Female,R,Donders,2021-07-08_18h44.04.026,ImageRatingTask_S5,2021.1.4,Win32,60.0240096,,,,,,,,,,,,,,,,,
,,,,,,,,,,,,0,4,4,4,1,fifth,4,22,Female,R,Donders,2021-07-08_18h44.04.026,ImageRatingTask_S5,2021.1.4,Win32,60.0240096,,,,,,,,,,,,,,,,,
,,,,,,,,,,,,0,5,5,5,1,sixth,4,22,Female,R,Donders,2021-07-08_18h44.04.026,ImageRatingTask_S5,2021.1.4,Win32,60.0240096,,,,,,,,,,,,,,,,,
,,,,,,,,,,,,0,6,6,6,1,seventh,4,22,Female,R,Donders,2021-07-08_18h44.04.026,ImageRatingTask_S5,2021.1.4,Win32,60.0240096,,,,,,,,,,,,,,,,,
,,,,,,,,,,,,0,7,7,7,1,last,4,22,Female,R,Donders,2021-07-08_18h44.04.026,ImageRatingTask_S5,2021.1.4,Win32,60.0240096,,,,,,,,,,,,,,,,,
,,,,,,,,,,,,,,,,,,4,22,Female,R,Donders,2021-07-08_18h44.04.026,ImageRatingTask_S5,2021.1.4,Win32,60.0240096,0,18,18,80,1,DreamStudyImages_rs1000x750g/Food/IAPS7451_burger2.jpg,,,,,,,,,,,
,,4,2.5746,2,1.1688,4,2.2584,1,0.7807,7,0.5286,0,0,0,0,1,main,4,22,Female,R,Donders,2021-07-08_18h44.04.026,ImageRatingTask_S5,2021.1.4,Win32,60.0240096,,,,,,,,,,,,,,,,,
,,,,,,,,,,,,0,1,1,1,1,second,4,22,Female,R,Donders,2021-07-08_18h44.04.026,ImageRatingTask_S5,2021.1.4,Win32,60.0240096,,,,,,,,,,,,,,,,,
,,,,,,,,,,,,0,2,2,2,1,third,4,22,Female,R,Donders,2021-07-08_18h44.04.026,ImageRatingTask_S5,2021.1.4,Win32,60.0240096,,,,,,,,,,,,,,,,,
,,,,,,,,,,,,0,3,3,3,1,fourth,4,22,Female,R,Donders,2021-07-08_18h44.04.026,ImageRatingTask_S5,2021.1.4,Win32,60.0240096,,,,,,,,,,,,,,,,,
,,,,,,,,,,,,0,4,4,4,1,fifth,4,22,Female,R,Donders,2021-07-08_18h44.04.026,ImageRatingTask_S5,2021.1.4,Win32,60.0240096,,,,,,,,,,,,,,,,,
,,,,,,,,,,,,0,5,5,5,1,sixth,4,22,Female,R,Donders,2021-07-08_18h44.04.026,ImageRatingTask_S5,2021.1.4,Win32,60.0240096,,,,,,,,,,,,,,,,,
,,,,,,,,,,,,0,6,6,6,1,seventh,4,22,Female,R,Donders,2021-07-08_18h44.04.026,ImageRatingTask_S5,2021.1.4,Win32,60.0240096,,,,,,,,,,,,,,,,,
,,,,,,,,,,,,0,7,7,7,1,last,4,22,Female,R,Donders,2021-07-08_18h44.04.026,ImageRatingTask_S5,2021.1.4,Win32,60.0240096,,,,,,,,,,,,,,,,,
,,,,,,,,,,,,,,,,,,4,22,Female,R,Donders,2021-07-08_18h44.04.026,ImageRatingTask_S5,2021.1.4,Win32,60.0240096,0,19,19,85,1,DreamStudyImages_rs1000x750g/Vehicles/Explosion 1.jpg,,,,,,,,,,,
,,1,3.1584,9,1.3724,7,2.3848,0,1.9608,,,0,0,0,0,1,main,4,22,Female,R,Donders,2021-07-08_18h44.04.026,ImageRatingTask_S5,2021.1.4,Win32,60.0240096,,,,,,,,,,,,,,,,,
,,,,,,,,,,,,0,1,1,1,1,second,4,22,Female,R,Donders,2021-07-08_18h44.04.026,ImageRatingTask_S5,2021.1.4,Win32,60.0240096,,,,,,,,,,,,,,,,,
,,,,,,,,,,,,0,2,2,2,1,third,4,22,Female,R,Donders,2021-07-08_18h44.04.026,ImageRatingTask_S5,2021.1.4,Win32,60.0240096,,,,,,,,,,,,,,,,,
,,,,,,,,,,,,0,3,3,3,1,fourth,4,22,Female,R,Donders,2021-07-08_18h44.04.026,ImageRatingTask_S5,2021.1.4,Win32,60.0240096,,,,,,,,,,,,,,,,,
,,,,,,,,,,,,0,4,4,4,1,fifth,4,22,Female,R,Donders,2021-07-08_18h44.04.026,ImageRatingTask_S5,2021.1.4,Win32,60.0240096,,,,,,,,,,,,,,,,,
,,,,,,,,,,,,0,5,5,5,1,sixth,4,22,Female,R,Donders,2021-07-08_18h44.04.026,ImageRatingTask_S5,2021.1.4,Win32,60.0240096,,,,,,,,,,,,,,,,,
,,,,,,,,,,,,0,6,6,6,1,seventh,4,22,Female,R,Donders,2021-07-08_18h44.04.026,ImageRatingTask_S5,2021.1.4,Win32,60.0240096,,,,,,,,,,,,,,,,,
,,,,,,,,,,,,0,7,7,7,1,last,4,22,Female,R,Donders,2021-07-08_18h44.04.026,ImageRatingTask_S5,2021.1.4,Win32,60.0240096,,,,,,,,,,,,,,,,,
,,,,,,,,,,,,,,,,,,4,22,Female,R,Donders,2021-07-08_18h44.04.026,ImageRatingTask_S5,2021.1.4,Win32,60.0240096,0,20,20,63,1,DreamStudyImages_rs1000x750g/Food/Objects_006_h.jpg,,,,,,,,,,,
,,3,2.8914,6,1.1931,4,4.829,1,0.9286,6,0.8318,0,0,0,0,1,main,4,22,Female,R,Donders,2021-07-08_18h44.04.026,ImageRatingTask_S5,2021.1.4,Win32,60.0240096,,,,,,,,,,,,,,,,,
,,,,,,,,,,,,0,1,1,1,1,second,4,22,Female,R,Donders,2021-07-08_18h44.04.026,ImageRatingTask_S5,2021.1.4,Win32,60.0240096,,,,,,,,,,,,,,,,,
,,,,,,,,,,,,0,2,2,2,1,third,4,22,Female,R,Donders,2021-07-08_18h44.04.026,ImageRatingTask_S5,2021.1.4,Win32,60.0240096,,,,,,,,,,,,,,,,,
,,,,,,,,,,,,0,3,3,3,1,fourth,4,22,Female,R,Donders,2021-07-08_18h44.04.026,ImageRatingTask_S5,2021.1.4,Win32,60.0240096,,,,,,,,,,,,,,,,,
,,,,,,,,,,,,0,4,4,4,1,fifth,4,22,Female,R,Donders,2021-07-08_18h44.04.026,ImageRatingTask_S5,2021.1.4,Win32,60.0240096,,,,,,,,,,,,,,,,,
,,,,,,,,,,,,0,5,5,5,1,sixth,4,22,Female,R,Donders,2021-07-08_18h44.04.026,ImageRatingTask_S5,2021.1.4,Win32,60.0240096,,,,,,,,,,,,,,,,,
,,,,,,,,,,,,0,6,6,6,1,seventh,4,22,Female,R,Donders,2021-07-08_18h44.04.026,ImageRatingTask_S5,2021.1.4,Win32,60.0240096,,,,,,,,,,,,,,,,,
,,,,,,,,,,,,0,7,7,7,1,last,4,22,Female,R,Donders,2021-07-08_18h44.04.026,ImageRatingTask_S5,2021.1.4,Win32,60.0240096,,,,,,,,,,,,,,,,,
,,,,,,,,,,,,,,,,,,4,22,Female,R,Donders,2021-07-08_18h44.04.026,ImageRatingTask_S5,2021.1.4,Win32,60.0240096,0,21,21,125,1,DreamStudyImages_rs1000x750g/Houses/NDPS95_cityskyline.jpg,,,,,,,,,,,
,,6,5.4686,2,1.4849,6,2.1051,1,1.053,5,0.4989,0,0,0,0,1,main,4,22,Female,R,Donders,2021-07-08_18h44.04.026,ImageRatingTask_S5,2021.1.4,Win32,60.0240096,,,,,,,,,,,,,,,,,
,,,,,,,,,,,,0,1,1,1,1,second,4,22,Female,R,Donders,2021-07-08_18h44.04.026,ImageRatingTask_S5,2021.1.4,Win32,60.0240096,,,,,,,,,,,,,,,,,
,,,,,,,,,,,,0,2,2,2,1,third,4,22,Female,R,Donders,2021-07-08_18h44.04.026,ImageRatingTask_S5,2021.1.4,Win32,60.0240096,,,,,,,,,,,,,,,,,
,,,,,,,,,,,,0,3,3,3,1,fourth,4,22,Female,R,Donders,2021-07-08_18h44.04.026,ImageRatingTask_S5,2021.1.4,Win32,60.0240096,,,,,,,,,,,,,,,,,
,,,,,,,,,,,,0,4,4,4,1,fifth,4,22,Female,R,Donders,2021-07-08_18h44.04.026,ImageRatingTask_S5,2021.1.4,Win32,60.0240096,,,,,,,,,,,,,,,,,
,,,,,,,,,,,,0,5,5,5,1,sixth,4,22,Female,R,Donders,2021-07-08_18h44.04.026,ImageRatingTask_S5,2021.1.4,Win32,60.0240096,,,,,,,,,,,,,,,,,
,,,,,,,,,,,,0,6,6,6,1,seventh,4,22,Female,R,Donders,2021-07-08_18h44.04.026,ImageRatingTask_S5,2021.1.4,Win32,60.0240096,,,,,,,,,,,,,,,,,
,,,,,,,,,,,,0,7,7,7,1,last,4,22,Female,R,Donders,2021-07-08_18h44.04.026,ImageRatingTask_S5,2021.1.4,Win32,60.0240096,,,,,,,,,,,,,,,,,
,,,,,,,,,,,,,,,,,,4,22,Female,R,Donders,2021-07-08_18h44.04.026,ImageRatingTask_S5,2021.1.4,Win32,60.0240096,0,22,22,11,1,DreamStudyImages_rs1000x750g/Food/Objects_058_h.jpg,,,,,,,,,,,
,,5,7.4999,1,0.9377,7,2.1601,1,0.8934,7,0.4611,0,0,0,0,1,main,4,22,Female,R,Donders,2021-07-08_18h44.04.026,ImageRatingTask_S5,2021.1.4,Win32,60.0240096,,,,,,,,,,,,,,,,,
,,,,,,,,,,,,0,1,1,1,1,second,4,22,Female,R,Donders,2021-07-08_18h44.04.026,ImageRatingTask_S5,2021.1.4,Win32,60.0240096,,,,,,,,,,,,,,,,,
,,,,,,,,,,,,0,2,2,2,1,third,4,22,Female,R,Donders,2021-07-08_18h44.04.026,ImageRatingTask_S5,2021.1.4,Win32,60.0240096,,,,,,,,,,,,,,,,,
,,,,,,,,,,,,0,3,3,3,1,fourth,4,22,Female,R,Donders,2021-07-08_18h44.04.026,ImageRatingTask_S5,2021.1.4,Win32,60.0240096,,,,,,,,,,,,,,,,,
,,,,,,,,,,,,0,4,4,4,1,fifth,4,22,Female,R,Donders,2021-07-08_18h44.04.026,ImageRatingTask_S5,2021.1.4,Win32,60.0240096,,,,,,,,,,,,,,,,,
,,,,,,,,,,,,0,5,5,5,1,sixth,4,22,Female,R,Donders,2021-07-08_18h44.04.026,ImageRatingTask_S5,2021.1.4,Win32,60.0240096,,,,,,,,,,,,,,,,,
,,,,,,,,,,,,0,6,6,6,1,seventh,4,22,Female,R,Donders,2021-07-08_18h44.04.026,ImageRatingTask_S5,2021.1.4,Win32,60.0240096,,,,,,,,,,,,,,,,,
,,,,,,,,,,,,0,7,7,7,1,last,4,22,Female,R,Donders,2021-07-08_18h44.04.026,ImageRatingTask_S5,2021.1.4,Win32,60.0240096,,,,,,,,,,,,,,,,,
,,,,,,,,,,,,,,,,,,4,22,Female,R,Donders,2021-07-08_18h44.04.026,ImageRatingTask_S5,2021.1.4,Win32,60.0240096,0,23,23,21,1,DreamStudyImages_rs1000x750g/Vehicles/truck_CROPPED.jpg,,,,,,,,,,,
,,5,2.7814,1,0.9209,5,1.8125,1,0.954,7,0.5756,0,0,0,0,1,main,4,22,Female,R,Donders,2021-07-08_18h44.04.026,ImageRatingTask_S5,2021.1.4,Win32,60.0240096,,,,,,,,,,,,,,,,,
,,,,,,,,,,,,0,1,1,1,1,second,4,22,Female,R,Donders,2021-07-08_18h44.04.026,ImageRatingTask_S5,2021.1.4,Win32,60.0240096,,,,,,,,,,,,,,,,,
,,,,,,,,,,,,0,2,2,2,1,third,4,22,Female,R,Donders,2021-07-08_18h44.04.026,ImageRatingTask_S5,2021.1.4,Win32,60.0240096,,,,,,,,,,,,,,,,,
,,,,,,,,,,,,0,3,3,3,1,fourth,4,22,Female,R,Donders,2021-07-08_18h44.04.026,ImageRatingTask_S5,2021.1.4,Win32,60.0240096,,,,,,,,,,,,,,,,,
,,,,,,,,,,,,0,4,4,4,1,fifth,4,22,Female,R,Donders,2021-07-08_18h44.04.026,ImageRatingTask_S5,2021.1.4,Win32,60.0240096,,,,,,,,,,,,,,,,,
,,,,,,,,,,,,0,5,5,5,1,sixth,4,22,Female,R,Donders,2021-07-08_18h44.04.026,ImageRatingTask_S5,2021.1.4,Win32,60.0240096,,,,,,,,,,,,,,,,,
,,,,,,,,,,,,0,6,6,6,1,seventh,4,22,Female,R,Donders,2021-07-08_18h44.04.026,ImageRatingTask_S5,2021.1.4,Win32,60.0240096,,,,,,,,,,,,,,,,,
,,,,,,,,,,,,0,7,7,7,1,last,4,22,Female,R,Donders,2021-07-08_18h44.04.026,ImageRatingTask_S5,2021.1.4,Win32,60.0240096,,,,,,,,,,,,,,,,,
,,,,,,,,,,,,,,,,,,4,22,Female,R,Donders,2021-07-08_18h44.04.026,ImageRatingTask_S5,2021.1.4,Win32,60.0240096,0,24,24,53,1,DreamStudyImages_rs1000x750g/Vehicles/IAPS7140_bus.jpg,,,,,,,,,,,
,,7,22.2284,2,0.986,5,2.0053,1,1.0014,5,0.6728,0,0,0,0,1,main,4,22,Female,R,Donders,2021-07-08_18h44.04.026,ImageRatingTask_S5,2021.1.4,Win32,60.0240096,,,,,,,,,,,,,,,,,
,,,,,,,,,,,,0,1,1,1,1,second,4,22,Female,R,Donders,2021-07-08_18h44.04.026,ImageRatingTask_S5,2021.1.4,Win32,60.0240096,,,,,,,,,,,,,,,,,
,,,,,,,,,,,,0,2,2,2,1,third,4,22,Female,R,Donders,2021-07-08_18h44.04.026,ImageRatingTask_S5,2021.1.4,Win32,60.0240096,,,,,,,,,,,,,,,,,
,,,,,,,,,,,,0,3,3,3,1,fourth,4,22,Female,R,Donders,2021-07-08_18h44.04.026,ImageRatingTask_S5,2021.1.4,Win32,60.0240096,,,,,,,,,,,,,,,,,
,,,,,,,,,,,,0,4,4,4,1,fifth,4,22,Female,R,Donders,2021-07-08_18h44.04.026,ImageRatingTask_S5,2021.1.4,Win32,60.0240096,,,,,,,,,,,,,,,,,
,,,,,,,,,,,,0,5,5,5,1,sixth,4,22,Female,R,Donders,2021-07-08_18h44.04.026,ImageRatingTask_S5,2021.1.4,Win32,60.0240096,,,,,,,,,,,,,,,,,
,,,,,,,,,,,,0,6,6,6,1,seventh,4,22,Female,R,Donders,2021-07-08_18h44.04.026,ImageRatingTask_S5,2021.1.4,Win32,60.0240096,,,,,,,,,,,,,,,,,
,,,,,,,,,,,,0,7,7,7,1,last,4,22,Female,R,Donders,2021-07-08_18h44.04.026,ImageRatingTask_S5,2021.1.4,Win32,60.0240096,,,,,,,,,,,,,,,,,
,,,,,,,,,,,,,,,,,,4,22,Female,R,Donders,2021-07-08_18h44.04.026,ImageRatingTask_S5,2021.1.4,Win32,60.0240096,0,25,25,94,1,DreamStudyImages_rs1000x750g/Food/Food 6.jpg,,,,,,,,,,,
,,7,2.168,1,1.0046,6,1.9763,1,0.9375,8,0.8151,0,0,0,0,1,main,4,22,Female,R,Donders,2021-07-08_18h44.04.026,ImageRatingTask_S5,2021.1.4,Win32,60.0240096,,,,,,,,,,,,,,,,,
,,,,,,,,,,,,0,1,1,1,1,second,4,22,Female,R,Donders,2021-07-08_18h44.04.026,ImageRatingTask_S5,2021.1.4,Win32,60.0240096,,,,,,,,,,,,,,,,,
,,,,,,,,,,,,0,2,2,2,1,third,4,22,Female,R,Donders,2021-07-08_18h44.04.026,ImageRatingTask_S5,2021.1.4,Win32,60.0240096,,,,,,,,,,,,,,,,,
,,,,,,,,,,,,0,3,3,3,1,fourth,4,22,Female,R,Donders,2021-07-08_18h44.04.026,ImageRatingTask_S5,2021.1.4,Win32,60.0240096,,,,,,,,,,,,,,,,,
,,,,,,,,,,,,0,4,4,4,1,fifth,4,22,Female,R,Donders,2021-07-08_18h44.04.026,ImageRatingTask_S5,2021.1.4,Win32,60.0240096,,,,,,,,,,,,,,,,,
,,,,,,,,,,,,0,5,5,5,1,sixth,4,22,Female,R,Donders,2021-07-08_18h44.04.026,ImageRatingTask_S5,2021.1.4,Win32,60.0240096,,,,,,,,,,,,,,,,,
,,,,,,,,,,,,0,6,6,6,1,seventh,4,22,Female,R,Donders,2021-07-08_18h44.04.026,ImageRatingTask_S5,2021.1.4,Win32,60.0240096,,,,,,,,,,,,,,,,,
,,,,,,,,,,,,0,7,7,7,1,last,4,22,Female,R,Donders,2021-07-08_18h44.04.026,ImageRatingTask_S5,2021.1.4,Win32,60.0240096,,,,,,,,,,,,,,,,,
,,,,,,,,,,,,,,,,,,4,22,Female,R,Donders,2021-07-08_18h44.04.026,ImageRatingTask_S5,2021.1.4,Win32,60.0240096,0,26,26,123,1,DreamStudyImages_rs1000x750g/Water/Lake 5.jpg,,,,,,,,,,,
,,5,3.356,1,1.8206,6,12.4684,2,1.7445,1,0.5545,0,0,0,0,1,main,4,22,Female,R,Donders,2021-07-08_18h44.04.026,ImageRatingTask_S5,2021.1.4,Win32,60.0240096,,,,,,,,,,,,,,,,,
,,,,,,,,,,2,0.3851,0,1,1,1,1,second,4,22,Female,R,Donders,2021-07-08_18h44.04.026,ImageRatingTask_S5,2021.1.4,Win32,60.0240096,,,,,,,,,,,,,,,,,
,,,,,,,,,,,,0,2,2,2,1,third,4,22,Female,R,Donders,2021-07-08_18h44.04.026,ImageRatingTask_S5,2021.1.4,Win32,60.0240096,,,,,,,,,,,,,,,,,
,,,,,,,,,,,,0,3,3,3,1,fourth,4,22,Female,R,Donders,2021-07-08_18h44.04.026,ImageRatingTask_S5,2021.1.4,Win32,60.0240096,,,,,,,,,,,,,,,,,
,,,,,,,,,,,,0,4,4,4,1,fifth,4,22,Female,R,Donders,2021-07-08_18h44.04.026,ImageRatingTask_S5,2021.1.4,Win32,60.0240096,,,,,,,,,,,,,,,,,
,,,,,,,,,,,,0,5,5,5,1,sixth,4,22,Female,R,Donders,2021-07-08_18h44.04.026,ImageRatingTask_S5,2021.1.4,Win32,60.0240096,,,,,,,,,,,,,,,,,
,,,,,,,,,,,,0,6,6,6,1,seventh,4,22,Female,R,Donders,2021-07-08_18h44.04.026,ImageRatingTask_S5,2021.1.4,Win32,60.0240096,,,,,,,,,,,,,,,,,
,,,,,,,,,,,,0,7,7,7,1,last,4,22,Female,R,Donders,2021-07-08_18h44.04.026,ImageRatingTask_S5,2021.1.4,Win32,60.0240096,,,,,,,,,,,,,,,,,
,,,,,,,,,,,,,,,,,,4,22,Female,R,Donders,2021-07-08_18h44.04.026,ImageRatingTask_S5,2021.1.4,Win32,60.0240096,0,27,27,126,1,DreamStudyImages_rs1000x750g/Children/People_046_h.jpg,,,,,,,,,,,
,,4,1.8603,1,1.0092,7,4.4544,1,1.1558,2,0.6091,0,0,0,0,1,main,4,22,Female,R,Donders,2021-07-08_18h44.04.026,ImageRatingTask_S5,2021.1.4,Win32,60.0240096,,,,,,,,,,,,,,,,,
,,,,,,,,,,,,0,1,1,1,1,second,4,22,Female,R,Donders,2021-07-08_18h44.04.026,ImageRatingTask_S5,2021.1.4,Win32,60.0240096,,,,,,,,,,,,,,,,,
,,,,,,,,,,,,0,2,2,2,1,third,4,22,Female,R,Donders,2021-07-08_18h44.04.026,ImageRatingTask_S5,2021.1.4,Win32,60.0240096,,,,,,,,,,,,,,,,,
,,,,,,,,,,,,0,3,3,3,1,fourth,4,22,Female,R,Donders,2021-07-08_18h44.04.026,ImageRatingTask_S5,2021.1.4,Win32,60.0240096,,,,,,,,,,,,,,,,,
,,,,,,,,,,,,0,4,4,4,1,fifth,4,22,Female,R,Donders,2021-07-08_18h44.04.026,ImageRatingTask_S5,2021.1.4,Win32,60.0240096,,,,,,,,,,,,,,,,,
,,,,,,,,,,,,0,5,5,5,1,sixth,4,22,Female,R,Donders,2021-07-08_18h44.04.026,ImageRatingTask_S5,2021.1.4,Win32,60.0240096,,,,,,,,,,,,,,,,,
,,,,,,,,,,,,0,6,6,6,1,seventh,4,22,Female,R,Donders,2021-07-08_18h44.04.026,ImageRatingTask_S5,2021.1.4,Win32,60.0240096,,,,,,,,,,,,,,,,,
,,,,,,,,,,,,0,7,7,7,1,last,4,22,Female,R,Donders,2021-07-08_18h44.04.026,ImageRatingTask_S5,2021.1.4,Win32,60.0240096,,,,,,,,,,,,,,,,,
,,,,,,,,,,,,,,,,,,4,22,Female,R,Donders,2021-07-08_18h44.04.026,ImageRatingTask_S5,2021.1.4,Win32,60.0240096,0,28,28,6,1,DreamStudyImages_rs1000x750g/Children/People_033_h.jpg,,,,,,,,,,,
,,7,11.5908,2,0.8822,5,2.1858,1,1.1564,2,0.1938,0,0,0,0,1,main,4,22,Female,R,Donders,2021-07-08_18h44.04.026,ImageRatingTask_S5,2021.1.4,Win32,60.0240096,,,,,,,,,,,,,,,,,
,,,,,,,,,,,,0,1,1,1,1,second,4,22,Female,R,Donders,2021-07-08_18h44.04.026,ImageRatingTask_S5,2021.1.4,Win32,60.0240096,,,,,,,,,,,,,,,,,
,,,,,,,,,,,,0,2,2,2,1,third,4,22,Female,R,Donders,2021-07-08_18h44.04.026,ImageRatingTask_S5,2021.1.4,Win32,60.0240096,,,,,,,,,,,,,,,,,
,,,,,,,,,,,,0,3,3,3,1,fourth,4,22,Female,R,Donders,2021-07-08_18h44.04.026,ImageRatingTask_S5,2021.1.4,Win32,60.0240096,,,,,,,,,,,,,,,,,
,,,,,,,,,,,,0,4,4,4,1,fifth,4,22,Female,R,Donders,2021-07-08_18h44.04.026,ImageRatingTask_S5,2021.1.4,Win32,60.0240096,,,,,,,,,,,,,,,,,
,,,,,,,,,,,,0,5,5,5,1,sixth,4,22,Female,R,Donders,2021-07-08_18h44.04.026,ImageRatingTask_S5,2021.1.4,Win32,60.0240096,,,,,,,,,,,,,,,,,
,,,,,,,,,,,,0,6,6,6,1,seventh,4,22,Female,R,Donders,2021-07-08_18h44.04.026,ImageRatingTask_S5,2021.1.4,Win32,60.0240096,,,,,,,,,,,,,,,,,
,,,,,,,,,,,,0,7,7,7,1,last,4,22,Female,R,Donders,2021-07-08_18h44.04.026,ImageRatingTask_S5,2021.1.4,Win32,60.0240096,,,,,,,,,,,,,,,,,
,,,,,,,,,,,,,,,,,,4,22,Female,R,Donders,2021-07-08_18h44.04.026,ImageRatingTask_S5,2021.1.4,Win32,60.0240096,0,29,29,7,1,DreamStudyImages_rs1000x750g/Children/IAPS2070_baby8.jpg,,,,,,,,,,,
,,2,2.3296,6,0.9422,5,2.6765,1,1.3663,2,0.4161,0,0,0,0,1,main,4,22,Female,R,Donders,2021-07-08_18h44.04.026,ImageRatingTask_S5,2021.1.4,Win32,60.0240096,,,,,,,,,,,,,,,,,
,,,,,,,,,,,,0,1,1,1,1,second,4,22,Female,R,Donders,2021-07-08_18h44.04.026,ImageRatingTask_S5,2021.1.4,Win32,60.0240096,,,,,,,,,,,,,,,,,
,,,,,,,,,,,,0,2,2,2,1,third,4,22,Female,R,Donders,2021-07-08_18h44.04.026,ImageRatingTask_S5,2021.1.4,Win32,60.0240096,,,,,,,,,,,,,,,,,
,,,,,,,,,,,,0,3,3,3,1,fourth,4,22,Female,R,Donders,2021-07-08_18h44.04.026,ImageRatingTask_S5,2021.1.4,Win32,60.0240096,,,,,,,,,,,,,,,,,
,,,,,,,,,,,,0,4,4,4,1,fifth,4,22,Female,R,Donders,2021-07-08_18h44.04.026,ImageRatingTask_S5,2021.1.4,Win32,60.0240096,,,,,,,,,,,,,,,,,
,,,,,,,,,,,,0,5,5,5,1,sixth,4,22,Female,R,Donders,2021-07-08_18h44.04.026,ImageRatingTask_S5,2021.1.4,Win32,60.0240096,,,,,,,,,,,,,,,,,
,,,,,,,,,,,,0,6,6,6,1,seventh,4,22,Female,R,Donders,2021-07-08_18h44.04.026,ImageRatingTask_S5,2021.1.4,Win32,60.0240096,,,,,,,,,,,,,,,,,
,,,,,,,,,,,,0,7,7,7,1,last,4,22,Female,R,Donders,2021-07-08_18h44.04.026,ImageRatingTask_S5,2021.1.4,Win32,60.0240096,,,,,,,,,,,,,,,,,
,,,,,,,,,,,,,,,,,,4,22,Female,R,Donders,2021-07-08_18h44.04.026,ImageRatingTask_S5,2021.1.4,Win32,60.0240096,0,30,30,33,1,DreamStudyImages_rs1000x750g/Children/Faces_363_v.jpg,,,,,,,,,,,
,,5,8.9273,1,0.7833,7,1.8286,1,1.0237,2,0.113,0,0,0,0,1,main,4,22,Female,R,Donders,2021-07-08_18h44.04.026,ImageRatingTask_S5,2021.1.4,Win32,60.0240096,,,,,,,,,,,,,,,,,
,,,,,,,,,,,,0,1,1,1,1,second,4,22,Female,R,Donders,2021-07-08_18h44.04.026,ImageRatingTask_S5,2021.1.4,Win32,60.0240096,,,,,,,,,,,,,,,,,
,,,,,,,,,,,,0,2,2,2,1,third,4,22,Female,R,Donders,2021-07-08_18h44.04.026,ImageRatingTask_S5,2021.1.4,Win32,60.0240096,,,,,,,,,,,,,,,,,
,,,,,,,,,,,,0,3,3,3,1,fourth,4,22,Female,R,Donders,2021-07-08_18h44.04.026,ImageRatingTask_S5,2021.1.4,Win32,60.0240096,,,,,,,,,,,,,,,,,
,,,,,,,,,,,,0,4,4,4,1,fifth,4,22,Female,R,Donders,2021-07-08_18h44.04.026,ImageRatingTask_S5,2021.1.4,Win32,60.0240096,,,,,,,,,,,,,,,,,
,,,,,,,,,,,,0,5,5,5,1,sixth,4,22,Female,R,Donders,2021-07-08_18h44.04.026,ImageRatingTask_S5,2021.1.4,Win32,60.0240096,,,,,,,,,,,,,,,,,
,,,,,,,,,,,,0,6,6,6,1,seventh,4,22,Female,R,Donders,2021-07-08_18h44.04.026,ImageRatingTask_S5,2021.1.4,Win32,60.0240096,,,,,,,,,,,,,,,,,
,,,,,,,,,,,,0,7,7,7,1,last,4,22,Female,R,Donders,2021-07-08_18h44.04.026,ImageRatingTask_S5,2021.1.4,Win32,60.0240096,,,,,,,,,,,,,,,,,
,,,,,,,,,,,,,,,,,,4,22,Female,R,Donders,2021-07-08_18h44.04.026,ImageRatingTask_S5,2021.1.4,Win32,60.0240096,0,31,31,100,1,DreamStudyImages_rs1000x750g/Children/Faces_058_h.jpg,,,,,,,,,,,
,,5,2.0949,1,1.5336,7,5.9248,1,3.0703,2,0.1426,0,0,0,0,1,main,4,22,Female,R,Donders,2021-07-08_18h44.04.026,ImageRatingTask_S5,2021.1.4,Win32,60.0240096,,,,,,,,,,,,,,,,,
,,,,,,,,,,,,0,1,1,1,1,second,4,22,Female,R,Donders,2021-07-08_18h44.04.026,ImageRatingTask_S5,2021.1.4,Win32,60.0240096,,,,,,,,,,,,,,,,,
,,,,,,,,,,,,0,2,2,2,1,third,4,22,Female,R,Donders,2021-07-08_18h44.04.026,ImageRatingTask_S5,2021.1.4,Win32,60.0240096,,,,,,,,,,,,,,,,,
,,,,,,,,,,,,0,3,3,3,1,fourth,4,22,Female,R,Donders,2021-07-08_18h44.04.026,ImageRatingTask_S5,2021.1.4,Win32,60.0240096,,,,,,,,,,,,,,,,,
,,,,,,,,,,,,0,4,4,4,1,fifth,4,22,Female,R,Donders,2021-07-08_18h44.04.026,ImageRatingTask_S5,2021.1.4,Win32,60.0240096,,,,,,,,,,,,,,,,,
,,,,,,,,,,,,0,5,5,5,1,sixth,4,22,Female,R,Donders,2021-07-08_18h44.04.026,ImageRatingTask_S5,2021.1.4,Win32,60.0240096,,,,,,,,,,,,,,,,,
,,,,,,,,,,,,0,6,6,6,1,seventh,4,22,Female,R,Donders,2021-07-08_18h44.04.026,ImageRatingTask_S5,2021.1.4,Win32,60.0240096,,,,,,,,,,,,,,,,,
,,,,,,,,,,,,0,7,7,7,1,last,4,22,Female,R,Donders,2021-07-08_18h44.04.026,ImageRatingTask_S5,2021.1.4,Win32,60.0240096,,,,,,,,,,,,,,,,,
,,,,,,,,,,,,,,,,,,4,22,Female,R,Donders,2021-07-08_18h44.04.026,ImageRatingTask_S5,2021.1.4,Win32,60.0240096,0,32,32,97,1,DreamStudyImages_rs1000x750g/Children/IAPS2153_baby15.jpg,,,,,,,,,,,
,,5,2.7412,1,1.0003,7,4.2115,1,3.1798,3,0.4511,0,0,0,0,1,main,4,22,Female,R,Donders,2021-07-08_18h44.04.026,ImageRatingTask_S5,2021.1.4,Win32,60.0240096,,,,,,,,,,,,,,,,,
,,,,,,,,,,,,0,1,1,1,1,second,4,22,Female,R,Donders,2021-07-08_18h44.04.026,ImageRatingTask_S5,2021.1.4,Win32,60.0240096,,,,,,,,,,,,,,,,,
,,,,,,,,,,,,0,2,2,2,1,third,4,22,Female,R,Donders,2021-07-08_18h44.04.026,ImageRatingTask_S5,2021.1.4,Win32,60.0240096,,,,,,,,,,,,,,,,,
,,,,,,,,,,,,0,3,3,3,1,fourth,4,22,Female,R,Donders,2021-07-08_18h44.04.026,ImageRatingTask_S5,2021.1.4,Win32,60.0240096,,,,,,,,,,,,,,,,,
,,,,,,,,,,,,0,4,4,4,1,fifth,4,22,Female,R,Donders,2021-07-08_18h44.04.026,ImageRatingTask_S5,2021.1.4,Win32,60.0240096,,,,,,,,,,,,,,,,,
,,,,,,,,,,,,0,5,5,5,1,sixth,4,22,Female,R,Donders,2021-07-08_18h44.04.026,ImageRatingTask_S5,2021.1.4,Win32,60.0240096,,,,,,,,,,,,,,,,,
,,,,,,,,,,,,0,6,6,6,1,seventh,4,22,Female,R,Donders,2021-07-08_18h44.04.026,ImageRatingTask_S5,2021.1.4,Win32,60.0240096,,,,,,,,,,,,,,,,,
,,,,,,,,,,,,0,7,7,7,1,last,4,22,Female,R,Donders,2021-07-08_18h44.04.026,ImageRatingTask_S5,2021.1.4,Win32,60.0240096,,,,,,,,,,,,,,,,,
,,,,,,,,,,,,,,,,,,4,22,Female,R,Donders,2021-07-08_18h44.04.026,ImageRatingTask_S5,2021.1.4,Win32,60.0240096,0,33,33,57,1,DreamStudyImages_rs1000x750g/Mammals/Animals_002_v.jpg,,,,,,,,,,,
,,6,49.3133,1,1.2726,7,1.6707,1,1.1545,3,0.4394,0,0,0,0,1,main,4,22,Female,R,Donders,2021-07-08_18h44.04.026,ImageRatingTask_S5,2021.1.4,Win32,60.0240096,,,,,,,,,,,,,,,,,
,,,,,,,,,,,,0,1,1,1,1,second,4,22,Female,R,Donders,2021-07-08_18h44.04.026,ImageRatingTask_S5,2021.1.4,Win32,60.0240096,,,,,,,,,,,,,,,,,
,,,,,,,,,,,,0,2,2,2,1,third,4,22,Female,R,Donders,2021-07-08_18h44.04.026,ImageRatingTask_S5,2021.1.4,Win32,60.0240096,,,,,,,,,,,,,,,,,
,,,,,,,,,,,,0,3,3,3,1,fourth,4,22,Female,R,Donders,2021-07-08_18h44.04.026,ImageRatingTask_S5,2021.1.4,Win32,60.0240096,,,,,,,,,,,,,,,,,
,,,,,,,,,,,,0,4,4,4,1,fifth,4,22,Female,R,Donders,2021-07-08_18h44.04.026,ImageRatingTask_S5,2021.1.4,Win32,60.0240096,,,,,,,,,,,,,,,,,
,,,,,,,,,,,,0,5,5,5,1,sixth,4,22,Female,R,Donders,2021-07-08_18h44.04.026,ImageRatingTask_S5,2021.1.4,Win32,60.0240096,,,,,,,,,,,,,,,,,
,,,,,,,,,,,,0,6,6,6,1,seventh,4,22,Female,R,Donders,2021-07-08_18h44.04.026,ImageRatingTask_S5,2021.1.4,Win32,60.0240096,,,,,,,,,,,,,,,,,
,,,,,,,,,,,,0,7,7,7,1,last,4,22,Female,R,Donders,2021-07-08_18h44.04.026,ImageRatingTask_S5,2021.1.4,Win32,60.0240096,,,,,,,,,,,,,,,,,
,,,,,,,,,,,,,,,,,,4,22,Female,R,Donders,2021-07-08_18h44.04.026,ImageRatingTask_S5,2021.1.4,Win32,60.0240096,0,34,34,10,1,DreamStudyImages_rs1000x750g/Mammals/Wolf 1.jpg,,,,,,,,,,,
,,5,2.5119,1,1.0497,6,4.537,1,1.0785,8,0.5043,0,0,0,0,1,main,4,22,Female,R,Donders,2021-07-08_18h44.04.026,ImageRatingTask_S5,2021.1.4,Win32,60.0240096,,,,,,,,,,,,,,,,,
,,,,,,,,,,,,0,1,1,1,1,second,4,22,Female,R,Donders,2021-07-08_18h44.04.026,ImageRatingTask_S5,2021.1.4,Win32,60.0240096,,,,,,,,,,,,,,,,,
,,,,,,,,,,,,0,2,2,2,1,third,4,22,Female,R,Donders,2021-07-08_18h44.04.026,ImageRatingTask_S5,2021.1.4,Win32,60.0240096,,,,,,,,,,,,,,,,,
,,,,,,,,,,,,0,3,3,3,1,fourth,4,22,Female,R,Donders,2021-07-08_18h44.04.026,ImageRatingTask_S5,2021.1.4,Win32,60.0240096,,,,,,,,,,,,,,,,,
,,,,,,,,,,,,0,4,4,4,1,fifth,4,22,Female,R,Donders,2021-07-08_18h44.04.026,ImageRatingTask_S5,2021.1.4,Win32,60.0240096,,,,,,,,,,,,,,,,,
,,,,,,,,,,,,0,5,5,5,1,sixth,4,22,Female,R,Donders,2021-07-08_18h44.04.026,ImageRatingTask_S5,2021.1.4,Win32,60.0240096,,,,,,,,,,,,,,,,,
,,,,,,,,,,,,0,6,6,6,1,seventh,4,22,Female,R,Donders,2021-07-08_18h44.04.026,ImageRatingTask_S5,2021.1.4,Win32,60.0240096,,,,,,,,,,,,,,,,,
,,,,,,,,,,,,0,7,7,7,1,last,4,22,Female,R,Donders,2021-07-08_18h44.04.026,ImageRatingTask_S5,2021.1.4,Win32,60.0240096,,,,,,,,,,,,,,,,,
,,,,,,,,,,,,,,,,,,4,22,Female,R,Donders,2021-07-08_18h44.04.026,ImageRatingTask_S5,2021.1.4,Win32,60.0240096,0,35,35,153,1,DreamStudyImages_rs1000x750g/Water/Bottle 1.jpg,,,,,,,,,,,
,,5,1.8951,2,1.0868,6,2.5118,1,1.8812,3,0.5486,0,0,0,0,1,main,4,22,Female,R,Donders,2021-07-08_18h44.04.026,ImageRatingTask_S5,2021.1.4,Win32,60.0240096,,,,,,,,,,,,,,,,,
,,,,,,,,,,,,0,1,1,1,1,second,4,22,Female,R,Donders,2021-07-08_18h44.04.026,ImageRatingTask_S5,2021.1.4,Win32,60.0240096,,,,,,,,,,,,,,,,,
,,,,,,,,,,,,0,2,2,2,1,third,4,22,Female,R,Donders,2021-07-08_18h44.04.026,ImageRatingTask_S5,2021.1.4,Win32,60.0240096,,,,,,,,,,,,,,,,,
,,,,,,,,,,,,0,3,3,3,1,fourth,4,22,Female,R,Donders,2021-07-08_18h44.04.026,ImageRatingTask_S5,2021.1.4,Win32,60.0240096,,,,,,,,,,,,,,,,,
,,,,,,,,,,,,0,4,4,4,1,fifth,4,22,Female,R,Donders,2021-07-08_18h44.04.026,ImageRatingTask_S5,2021.1.4,Win32,60.0240096,,,,,,,,,,,,,,,,,
,,,,,,,,,,,,0,5,5,5,1,sixth,4,22,Female,R,Donders,2021-07-08_18h44.04.026,ImageRatingTask_S5,2021.1.4,Win32,60.0240096,,,,,,,,,,,,,,,,,
,,,,,,,,,,,,0,6,6,6,1,seventh,4,22,Female,R,Donders,2021-07-08_18h44.04.026,ImageRatingTask_S5,2021.1.4,Win32,60.0240096,,,,,,,,,,,,,,,,,
,,,,,,,,,,,,0,7,7,7,1,last,4,22,Female,R,Donders,2021-07-08_18h44.04.026,ImageRatingTask_S5,2021.1.4,Win32,60.0240096,,,,,,,,,,,,,,,,,
,,,,,,,,,,,,,,,,,,4,22,Female,R,Donders,2021-07-08_18h44.04.026,ImageRatingTask_S5,2021.1.4,Win32,60.0240096,0,36,36,79,1,DreamStudyImages_rs1000x750g/Mammals/Animals_102_h.jpg,,,,,,,,,,,
,,5,1.5102,1,1.7288,6,1.7431,1,0.9689,6,0.4618,0,0,0,0,1,main,4,22,Female,R,Donders,2021-07-08_18h44.04.026,ImageRatingTask_S5,2021.1.4,Win32,60.0240096,,,,,,,,,,,,,,,,,
,,,,,,,,,,,,0,1,1,1,1,second,4,22,Female,R,Donders,2021-07-08_18h44.04.026,ImageRatingTask_S5,2021.1.4,Win32,60.0240096,,,,,,,,,,,,,,,,,
,,,,,,,,,,,,0,2,2,2,1,third,4,22,Female,R,Donders,2021-07-08_18h44.04.026,ImageRatingTask_S5,2021.1.4,Win32,60.0240096,,,,,,,,,,,,,,,,,
,,,,,,,,,,,,0,3,3,3,1,fourth,4,22,Female,R,Donders,2021-07-08_18h44.04.026,ImageRatingTask_S5,2021.1.4,Win32,60.0240096,,,,,,,,,,,,,,,,,
,,,,,,,,,,,,0,4,4,4,1,fifth,4,22,Female,R,Donders,2021-07-08_18h44.04.026,ImageRatingTask_S5,2021.1.4,Win32,60.0240096,,,,,,,,,,,,,,,,,
,,,,,,,,,,,,0,5,5,5,1,sixth,4,22,Female,R,Donders,2021-07-08_18h44.04.026,ImageRatingTask_S5,2021.1.4,Win32,60.0240096,,,,,,,,,,,,,,,,,
,,,,,,,,,,,,0,6,6,6,1,seventh,4,22,Female,R,Donders,2021-07-08_18h44.04.026,ImageRatingTask_S5,2021.1.4,Win32,60.0240096,,,,,,,,,,,,,,,,,
,,,,,,,,,,,,0,7,7,7,1,last,4,22,Female,R,Donders,2021-07-08_18h44.04.026,ImageRatingTask_S5,2021.1.4,Win32,60.0240096,,,,,,,,,,,,,,,,,
,,,,,,,,,,,,,,,,,,4,22,Female,R,Donders,2021-07-08_18h44.04.026,ImageRatingTask_S5,2021.1.4,Win32,60.0240096,0,37,37,61,1,DreamStudyImages_rs1000x750g/Houses/Landscapes_079_v.jpg,,,,,,,,,,,
,,5,4.7745,2,1.5814,6,1.821,1,0.8369,5,0.4424,0,0,0,0,1,main,4,22,Female,R,Donders,2021-07-08_18h44.04.026,ImageRatingTask_S5,2021.1.4,Win32,60.0240096,,,,,,,,,,,,,,,,,
,,,,,,,,,,,,0,1,1,1,1,second,4,22,Female,R,Donders,2021-07-08_18h44.04.026,ImageRatingTask_S5,2021.1.4,Win32,60.0240096,,,,,,,,,,,,,,,,,
,,,,,,,,,,,,0,2,2,2,1,third,4,22,Female,R,Donders,2021-07-08_18h44.04.026,ImageRatingTask_S5,2021.1.4,Win32,60.0240096,,,,,,,,,,,,,,,,,
,,,,,,,,,,,,0,3,3,3,1,fourth,4,22,Female,R,Donders,2021-07-08_18h44.04.026,ImageRatingTask_S5,2021.1.4,Win32,60.0240096,,,,,,,,,,,,,,,,,
,,,,,,,,,,,,0,4,4,4,1,fifth,4,22,Female,R,Donders,2021-07-08_18h44.04.026,ImageRatingTask_S5,2021.1.4,Win32,60.0240096,,,,,,,,,,,,,,,,,
,,,,,,,,,,,,0,5,5,5,1,sixth,4,22,Female,R,Donders,2021-07-08_18h44.04.026,ImageRatingTask_S5,2021.1.4,Win32,60.0240096,,,,,,,,,,,,,,,,,
,,,,,,,,,,,,0,6,6,6,1,seventh,4,22,Female,R,Donders,2021-07-08_18h44.04.026,ImageRatingTask_S5,2021.1.4,Win32,60.0240096,,,,,,,,,,,,,,,,,
,,,,,,,,,,,,0,7,7,7,1,last,4,22,Female,R,Donders,2021-07-08_18h44.04.026,ImageRatingTask_S5,2021.1.4,Win32,60.0240096,,,,,,,,,,,,,,,,,
,,,,,,,,,,,,,,,,,,4,22,Female,R,Donders,2021-07-08_18h44.04.026,ImageRatingTask_S5,2021.1.4,Win32,60.0240096,0,38,38,117,1,DreamStudyImages_rs1000x750g/Food/Objects_040_v.jpg,,,,,,,,,,,
,,6,2.4534,1,1.3053,6,2.0902,1,2.0733,2,0.1508,0,0,0,0,1,main,4,22,Female,R,Donders,2021-07-08_18h44.04.026,ImageRatingTask_S5,2021.1.4,Win32,60.0240096,,,,,,,,,,,,,,,,,
,,,,,,,,,,,,0,1,1,1,1,second,4,22,Female,R,Donders,2021-07-08_18h44.04.026,ImageRatingTask_S5,2021.1.4,Win32,60.0240096,,,,,,,,,,,,,,,,,
,,,,,,,,,,,,0,2,2,2,1,third,4,22,Female,R,Donders,2021-07-08_18h44.04.026,ImageRatingTask_S5,2021.1.4,Win32,60.0240096,,,,,,,,,,,,,,,,,
,,,,,,,,,,,,0,3,3,3,1,fourth,4,22,Female,R,Donders,2021-07-08_18h44.04.026,ImageRatingTask_S5,2021.1.4,Win32,60.0240096,,,,,,,,,,,,,,,,,
,,,,,,,,,,,,0,4,4,4,1,fifth,4,22,Female,R,Donders,2021-07-08_18h44.04.026,ImageRatingTask_S5,2021.1.4,Win32,60.0240096,,,,,,,,,,,,,,,,,
,,,,,,,,,,,,0,5,5,5,1,sixth,4,22,Female,R,Donders,2021-07-08_18h44.04.026,ImageRatingTask_S5,2021.1.4,Win32,60.0240096,,,,,,,,,,,,,,,,,
,,,,,,,,,,,,0,6,6,6,1,seventh,4,22,Female,R,Donders,2021-07-08_18h44.04.026,ImageRatingTask_S5,2021.1.4,Win32,60.0240096,,,,,,,,,,,,,,,,,
,,,,,,,,,,,,0,7,7,7,1,last,4,22,Female,R,Donders,2021-07-08_18h44.04.026,ImageRatingTask_S5,2021.1.4,Win32,60.0240096,,,,,,,,,,,,,,,,,
,,,,,,,,,,,,,,,,,,4,22,Female,R,Donders,2021-07-08_18h44.04.026,ImageRatingTask_S5,2021.1.4,Win32,60.0240096,0,39,39,52,1,DreamStudyImages_rs1000x750g/Children/Excited face 6.jpg,,,,,,,,,,,
,,5,1.3713,1,1.008,5,1.9075,1,1.0697,6,0.8269,0,0,0,0,1,main,4,22,Female,R,Donders,2021-07-08_18h44.04.026,ImageRatingTask_S5,2021.1.4,Win32,60.0240096,,,,,,,,,,,,,,,,,
,,,,,,,,,,,,0,1,1,1,1,second,4,22,Female,R,Donders,2021-07-08_18h44.04.026,ImageRatingTask_S5,2021.1.4,Win32,60.0240096,,,,,,,,,,,,,,,,,
,,,,,,,,,,,,0,2,2,2,1,third,4,22,Female,R,Donders,2021-07-08_18h44.04.026,ImageRatingTask_S5,2021.1.4,Win32,60.0240096,,,,,,,,,,,,,,,,,
,,,,,,,,,,,,0,3,3,3,1,fourth,4,22,Female,R,Donders,2021-07-08_18h44.04.026,ImageRatingTask_S5,2021.1.4,Win32,60.0240096,,,,,,,,,,,,,,,,,
,,,,,,,,,,,,0,4,4,4,1,fifth,4,22,Female,R,Donders,2021-07-08_18h44.04.026,ImageRatingTask_S5,2021.1.4,Win32,60.0240096,,,,,,,,,,,,,,,,,
,,,,,,,,,,,,0,5,5,5,1,sixth,4,22,Female,R,Donders,2021-07-08_18h44.04.026,ImageRatingTask_S5,2021.1.4,Win32,60.0240096,,,,,,,,,,,,,,,,,
,,,,,,,,,,,,0,6,6,6,1,seventh,4,22,Female,R,Donders,2021-07-08_18h44.04.026,ImageRatingTask_S5,2021.1.4,Win32,60.0240096,,,,,,,,,,,,,,,,,
,,,,,,,,,,,,0,7,7,7,1,last,4,22,Female,R,Donders,2021-07-08_18h44.04.026,ImageRatingTask_S5,2021.1.4,Win32,60.0240096,,,,,,,,,,,,,,,,,
,,,,,,,,,,,,,,,,,,4,22,Female,R,Donders,2021-07-08_18h44.04.026,ImageRatingTask_S5,2021.1.4,Win32,60.0240096,0,40,40,29,1,DreamStudyImages_rs1000x750g/Houses/IAPS5731_house2.jpg,,,,,,,,,,,
,,5,10.993,1,1.0707,6,3.5194,1,1.1834,6,0.9334,0,0,0,0,1,main,4,22,Female,R,Donders,2021-07-08_18h44.04.026,ImageRatingTask_S5,2021.1.4,Win32,60.0240096,,,,,,,,,,,,,,,,,
,,,,,,,,,,,,0,1,1,1,1,second,4,22,Female,R,Donders,2021-07-08_18h44.04.026,ImageRatingTask_S5,2021.1.4,Win32,60.0240096,,,,,,,,,,,,,,,,,
,,,,,,,,,,,,0,2,2,2,1,third,4,22,Female,R,Donders,2021-07-08_18h44.04.026,ImageRatingTask_S5,2021.1.4,Win32,60.0240096,,,,,,,,,,,,,,,,,
,,,,,,,,,,,,0,3,3,3,1,fourth,4,22,Female,R,Donders,2021-07-08_18h44.04.026,ImageRatingTask_S5,2021.1.4,Win32,60.0240096,,,,,,,,,,,,,,,,,
,,,,,,,,,,,,0,4,4,4,1,fifth,4,22,Female,R,Donders,2021-07-08_18h44.04.026,ImageRatingTask_S5,2021.1.4,Win32,60.0240096,,,,,,,,,,,,,,,,,
,,,,,,,,,,,,0,5,5,5,1,sixth,4,22,Female,R,Donders,2021-07-08_18h44.04.026,ImageRatingTask_S5,2021.1.4,Win32,60.0240096,,,,,,,,,,,,,,,,,
,,,,,,,,,,,,0,6,6,6,1,seventh,4,22,Female,R,Donders,2021-07-08_18h44.04.026,ImageRatingTask_S5,2021.1.4,Win32,60.0240096,,,,,,,,,,,,,,,,,
,,,,,,,,,,,,0,7,7,7,1,last,4,22,Female,R,Donders,2021-07-08_18h44.04.026,ImageRatingTask_S5,2021.1.4,Win32,60.0240096,,,,,,,,,,,,,,,,,
,,,,,,,,,,,,,,,,,,4,22,Female,R,Donders,2021-07-08_18h44.04.026,ImageRatingTask_S5,2021.1.4,Win32,60.0240096,0,41,41,23,1,DreamStudyImages_rs1000x750g/Houses/Objects_210_h.jpg,,,,,,,,,,,
,,4,2.256,2,0.8927,5,3.2277,1,1.0425,8,0.6579,0,0,0,0,1,main,4,22,Female,R,Donders,2021-07-08_18h44.04.026,ImageRatingTask_S5,2021.1.4,Win32,60.0240096,,,,,,,,,,,,,,,,,
,,,,,,,,,,,,0,1,1,1,1,second,4,22,Female,R,Donders,2021-07-08_18h44.04.026,ImageRatingTask_S5,2021.1.4,Win32,60.0240096,,,,,,,,,,,,,,,,,
,,,,,,,,,,,,0,2,2,2,1,third,4,22,Female,R,Donders,2021-07-08_18h44.04.026,ImageRatingTask_S5,2021.1.4,Win32,60.0240096,,,,,,,,,,,,,,,,,
,,,,,,,,,,,,0,3,3,3,1,fourth,4,22,Female,R,Donders,2021-07-08_18h44.04.026,ImageRatingTask_S5,2021.1.4,Win32,60.0240096,,,,,,,,,,,,,,,,,
,,,,,,,,,,,,0,4,4,4,1,fifth,4,22,Female,R,Donders,2021-07-08_18h44.04.026,ImageRatingTask_S5,2021.1.4,Win32,60.0240096,,,,,,,,,,,,,,,,,
,,,,,,,,,,,,0,5,5,5,1,sixth,4,22,Female,R,Donders,2021-07-08_18h44.04.026,ImageRatingTask_S5,2021.1.4,Win32,60.0240096,,,,,,,,,,,,,,,,,
,,,,,,,,,,,,0,6,6,6,1,seventh,4,22,Female,R,Donders,2021-07-08_18h44.04.026,ImageRatingTask_S5,2021.1.4,Win32,60.0240096,,,,,,,,,,,,,,,,,
,,,,,,,,,,,,0,7,7,7,1,last,4,22,Female,R,Donders,2021-07-08_18h44.04.026,ImageRatingTask_S5,2021.1.4,Win32,60.0240096,,,,,,,,,,,,,,,,,
,,,,,,,,,,,,,,,,,,4,22,Female,R,Donders,2021-07-08_18h44.04.026,ImageRatingTask_S5,2021.1.4,Win32,60.0240096,0,42,42,138,1,DreamStudyImages_rs1000x750g/Water/Landscapes_004_h.jpg,,,,,,,,,,,
,,5,9.6901,3,1.033,3,1.6218,1,0.9418,5,0.7213,0,0,0,0,1,main,4,22,Female,R,Donders,2021-07-08_18h44.04.026,ImageRatingTask_S5,2021.1.4,Win32,60.0240096,,,,,,,,,,,,,,,,,
,,,,,,,,,,,,0,1,1,1,1,second,4,22,Female,R,Donders,2021-07-08_18h44.04.026,ImageRatingTask_S5,2021.1.4,Win32,60.0240096,,,,,,,,,,,,,,,,,
,,,,,,,,,,,,0,2,2,2,1,third,4,22,Female,R,Donders,2021-07-08_18h44.04.026,ImageRatingTask_S5,2021.1.4,Win32,60.0240096,,,,,,,,,,,,,,,,,
,,,,,,,,,,,,0,3,3,3,1,fourth,4,22,Female,R,Donders,2021-07-08_18h44.04.026,ImageRatingTask_S5,2021.1.4,Win32,60.0240096,,,,,,,,,,,,,,,,,
,,,,,,,,,,,,0,4,4,4,1,fifth,4,22,Female,R,Donders,2021-07-08_18h44.04.026,ImageRatingTask_S5,2021.1.4,Win32,60.0240096,,,,,,,,,,,,,,,,,
,,,,,,,,,,,,0,5,5,5,1,sixth,4,22,Female,R,Donders,2021-07-08_18h44.04.026,ImageRatingTask_S5,2021.1.4,Win32,60.0240096,,,,,,,,,,,,,,,,,
,,,,,,,,,,,,0,6,6,6,1,seventh,4,22,Female,R,Donders,2021-07-08_18h44.04.026,ImageRatingTask_S5,2021.1.4,Win32,60.0240096,,,,,,,,,,,,,,,,,
,,,,,,,,,,,,0,7,7,7,1,last,4,22,Female,R,Donders,2021-07-08_18h44.04.026,ImageRatingTask_S5,2021.1.4,Win32,60.0240096,,,,,,,,,,,,,,,,,
,,,,,,,,,,,,,,,,,,4,22,Female,R,Donders,2021-07-08_18h44.04.026,ImageRatingTask_S5,2021.1.4,Win32,60.0240096,0,43,43,69,1,DreamStudyImages_rs1000x750g/Food/IAPS7200_brownie.jpg,,,,,,,,,,,
,,5,1.6584,1,0.9762,7,2.4223,1,0.8666,7,0.6862,0,0,0,0,1,main,4,22,Female,R,Donders,2021-07-08_18h44.04.026,ImageRatingTask_S5,2021.1.4,Win32,60.0240096,,,,,,,,,,,,,,,,,
,,,,,,,,,,,,0,1,1,1,1,second,4,22,Female,R,Donders,2021-07-08_18h44.04.026,ImageRatingTask_S5,2021.1.4,Win32,60.0240096,,,,,,,,,,,,,,,,,
,,,,,,,,,,,,0,2,2,2,1,third,4,22,Female,R,Donders,2021-07-08_18h44.04.026,ImageRatingTask_S5,2021.1.4,Win32,60.0240096,,,,,,,,,,,,,,,,,
,,,,,,,,,,,,0,3,3,3,1,fourth,4,22,Female,R,Donders,2021-07-08_18h44.04.026,ImageRatingTask_S5,2021.1.4,Win32,60.0240096,,,,,,,,,,,,,,,,,
,,,,,,,,,,,,0,4,4,4,1,fifth,4,22,Female,R,Donders,2021-07-08_18h44.04.026,ImageRatingTask_S5,2021.1.4,Win32,60.0240096,,,,,,,,,,,,,,,,,
,,,,,,,,,,,,0,5,5,5,1,sixth,4,22,Female,R,Donders,2021-07-08_18h44.04.026,ImageRatingTask_S5,2021.1.4,Win32,60.0240096,,,,,,,,,,,,,,,,,
,,,,,,,,,,,,0,6,6,6,1,seventh,4,22,Female,R,Donders,2021-07-08_18h44.04.026,ImageRatingTask_S5,2021.1.4,Win32,60.0240096,,,,,,,,,,,,,,,,,
,,,,,,,,,,,,0,7,7,7,1,last,4,22,Female,R,Donders,2021-07-08_18h44.04.026,ImageRatingTask_S5,2021.1.4,Win32,60.0240096,,,,,,,,,,,,,,,,,
,,,,,,,,,,,,,,,,,,4,22,Female,R,Donders,2021-07-08_18h44.04.026,ImageRatingTask_S5,2021.1.4,Win32,60.0240096,0,44,44,115,1,DreamStudyImages_rs1000x750g/Vehicles/Objects_312_h.jpg,,,,,,,,,,,
,,6,3.5802,1,1.5554,8,1.8698,1,1.0718,8,0.6756,0,0,0,0,1,main,4,22,Female,R,Donders,2021-07-08_18h44.04.026,ImageRatingTask_S5,2021.1.4,Win32,60.0240096,,,,,,,,,,,,,,,,,
,,,,,,,,,,,,0,1,1,1,1,second,4,22,Female,R,Donders,2021-07-08_18h44.04.026,ImageRatingTask_S5,2021.1.4,Win32,60.0240096,,,,,,,,,,,,,,,,,
,,,,,,,,,,,,0,2,2,2,1,third,4,22,Female,R,Donders,2021-07-08_18h44.04.026,ImageRatingTask_S5,2021.1.4,Win32,60.0240096,,,,,,,,,,,,,,,,,
,,,,,,,,,,,,0,3,3,3,1,fourth,4,22,Female,R,Donders,2021-07-08_18h44.04.026,ImageRatingTask_S5,2021.1.4,Win32,60.0240096,,,,,,,,,,,,,,,,,
,,,,,,,,,,,,0,4,4,4,1,fifth,4,22,Female,R,Donders,2021-07-08_18h44.04.026,ImageRatingTask_S5,2021.1.4,Win32,60.0240096,,,,,,,,,,,,,,,,,
,,,,,,,,,,,,0,5,5,5,1,sixth,4,22,Female,R,Donders,2021-07-08_18h44.04.026,ImageRatingTask_S5,2021.1.4,Win32,60.0240096,,,,,,,,,,,,,,,,,
,,,,,,,,,,,,0,6,6,6,1,seventh,4,22,Female,R,Donders,2021-07-08_18h44.04.026,ImageRatingTask_S5,2021.1.4,Win32,60.0240096,,,,,,,,,,,,,,,,,
,,,,,,,,,,,,0,7,7,7,1,last,4,22,Female,R,Donders,2021-07-08_18h44.04.026,ImageRatingTask_S5,2021.1.4,Win32,60.0240096,,,,,,,,,,,,,,,,,
,,,,,,,,,,,,,,,,,,4,22,Female,R,Donders,2021-07-08_18h44.04.026,ImageRatingTask_S5,2021.1.4,Win32,60.0240096,0,45,45,2,1,DreamStudyImages_rs1000x750g/Water/rockyriver.jpg,,,,,,,,,,,
,,5,1.9285,5,2.6891,2,1.7961,1,1.1908,6,1.137,0,0,0,0,1,main,4,22,Female,R,Donders,2021-07-08_18h44.04.026,ImageRatingTask_S5,2021.1.4,Win32,60.0240096,,,,,,,,,,,,,,,,,
,,,,,,,,,,,,0,1,1,1,1,second,4,22,Female,R,Donders,2021-07-08_18h44.04.026,ImageRatingTask_S5,2021.1.4,Win32,60.0240096,,,,,,,,,,,,,,,,,
,,,,,,,,,,,,0,2,2,2,1,third,4,22,Female,R,Donders,2021-07-08_18h44.04.026,ImageRatingTask_S5,2021.1.4,Win32,60.0240096,,,,,,,,,,,,,,,,,
,,,,,,,,,,,,0,3,3,3,1,fourth,4,22,Female,R,Donders,2021-07-08_18h44.04.026,ImageRatingTask_S5,2021.1.4,Win32,60.0240096,,,,,,,,,,,,,,,,,
,,,,,,,,,,,,0,4,4,4,1,fifth,4,22,Female,R,Donders,2021-07-08_18h44.04.026,ImageRatingTask_S5,2021.1.4,Win32,60.0240096,,,,,,,,,,,,,,,,,
,,,,,,,,,,,,0,5,5,5,1,sixth,4,22,Female,R,Donders,2021-07-08_18h44.04.026,ImageRatingTask_S5,2021.1.4,Win32,60.0240096,,,,,,,,,,,,,,,,,
,,,,,,,,,,,,0,6,6,6,1,seventh,4,22,Female,R,Donders,2021-07-08_18h44.04.026,ImageRatingTask_S5,2021.1.4,Win32,60.0240096,,,,,,,,,,,,,,,,,
,,,,,,,,,,,,0,7,7,7,1,last,4,22,Female,R,Donders,2021-07-08_18h44.04.026,ImageRatingTask_S5,2021.1.4,Win32,60.0240096,,,,,,,,,,,,,,,,,
,,,,,,,,,,,,,,,,,,4,22,Female,R,Donders,2021-07-08_18h44.04.026,ImageRatingTask_S5,2021.1.4,Win32,60.0240096,0,46,46,45,1,DreamStudyImages_rs1000x750g/Houses/IAPS5994_hotels_CROPPED.jpg,,,,,,,,,,,
,,5,1.5954,1,1.9093,7,1.1273,1,0.7194,7,0.5288,0,0,0,0,1,main,4,22,Female,R,Donders,2021-07-08_18h44.04.026,ImageRatingTask_S5,2021.1.4,Win32,60.0240096,,,,,,,,,,,,,,,,,
,,,,,,,,,,,,0,1,1,1,1,second,4,22,Female,R,Donders,2021-07-08_18h44.04.026,ImageRatingTask_S5,2021.1.4,Win32,60.0240096,,,,,,,,,,,,,,,,,
,,,,,,,,,,,,0,2,2,2,1,third,4,22,Female,R,Donders,2021-07-08_18h44.04.026,ImageRatingTask_S5,2021.1.4,Win32,60.0240096,,,,,,,,,,,,,,,,,
,,,,,,,,,,,,0,3,3,3,1,fourth,4,22,Female,R,Donders,2021-07-08_18h44.04.026,ImageRatingTask_S5,2021.1.4,Win32,60.0240096,,,,,,,,,,,,,,,,,
,,,,,,,,,,,,0,4,4,4,1,fifth,4,22,Female,R,Donders,2021-07-08_18h44.04.026,ImageRatingTask_S5,2021.1.4,Win32,60.0240096,,,,,,,,,,,,,,,,,
,,,,,,,,,,,,0,5,5,5,1,sixth,4,22,Female,R,Donders,2021-07-08_18h44.04.026,ImageRatingTask_S5,2021.1.4,Win32,60.0240096,,,,,,,,,,,,,,,,,
,,,,,,,,,,,,0,6,6,6,1,seventh,4,22,Female,R,Donders,2021-07-08_18h44.04.026,ImageRatingTask_S5,2021.1.4,Win32,60.0240096,,,,,,,,,,,,,,,,,
,,,,,,,,,,,,0,7,7,7,1,last,4,22,Female,R,Donders,2021-07-08_18h44.04.026,ImageRatingTask_S5,2021.1.4,Win32,60.0240096,,,,,,,,,,,,,,,,,
,,,,,,,,,,,,,,,,,,4,22,Female,R,Donders,2021-07-08_18h44.04.026,ImageRatingTask_S5,2021.1.4,Win32,60.0240096,0,47,47,128,1,DreamStudyImages_rs1000x750g/Vehicles/Objects_304_h.jpg,,,,,,,,,,,
,,7,1.6923,1,0.9943,8,1.344,1,1.4024,8,0.576,0,0,0,0,1,main,4,22,Female,R,Donders,2021-07-08_18h44.04.026,ImageRatingTask_S5,2021.1.4,Win32,60.0240096,,,,,,,,,,,,,,,,,
,,,,,,,,,,,,0,1,1,1,1,second,4,22,Female,R,Donders,2021-07-08_18h44.04.026,ImageRatingTask_S5,2021.1.4,Win32,60.0240096,,,,,,,,,,,,,,,,,
,,,,,,,,,,,,0,2,2,2,1,third,4,22,Female,R,Donders,2021-07-08_18h44.04.026,ImageRatingTask_S5,2021.1.4,Win32,60.0240096,,,,,,,,,,,,,,,,,
,,,,,,,,,,,,0,3,3,3,1,fourth,4,22,Female,R,Donders,2021-07-08_18h44.04.026,ImageRatingTask_S5,2021.1.4,Win32,60.0240096,,,,,,,,,,,,,,,,,
,,,,,,,,,,,,0,4,4,4,1,fifth,4,22,Female,R,Donders,2021-07-08_18h44.04.026,ImageRatingTask_S5,2021.1.4,Win32,60.0240096,,,,,,,,,,,,,,,,,
,,,,,,,,,,,,0,5,5,5,1,sixth,4,22,Female,R,Donders,2021-07-08_18h44.04.026,ImageRatingTask_S5,2021.1.4,Win32,60.0240096,,,,,,,,,,,,,,,,,
,,,,,,,,,,,,0,6,6,6,1,seventh,4,22,Female,R,Donders,2021-07-08_18h44.04.026,ImageRatingTask_S5,2021.1.4,Win32,60.0240096,,,,,,,,,,,,,,,,,
,,,,,,,,,,,,0,7,7,7,1,last,4,22,Female,R,Donders,2021-07-08_18h44.04.026,ImageRatingTask_S5,2021.1.4,Win32,60.0240096,,,,,,,,,,,,,,,,,
,,,,,,,,,,,,,,,,,,4,22,Female,R,Donders,2021-07-08_18h44.04.026,ImageRatingTask_S5,2021.1.4,Win32,60.0240096,0,48,48,127,1,DreamStudyImages_rs1000x750g/Water/Landscapes_180_h.jpg,,,,,,,,,,,
,,6,1.5946,1,1.1278,6,2.0398,1,1.8712,8,0.5517,0,0,0,0,1,main,4,22,Female,R,Donders,2021-07-08_18h44.04.026,ImageRatingTask_S5,2021.1.4,Win32,60.0240096,,,,,,,,,,,,,,,,,
,,,,,,,,,,,,0,1,1,1,1,second,4,22,Female,R,Donders,2021-07-08_18h44.04.026,ImageRatingTask_S5,2021.1.4,Win32,60.0240096,,,,,,,,,,,,,,,,,
,,,,,,,,,,,,0,2,2,2,1,third,4,22,Female,R,Donders,2021-07-08_18h44.04.026,ImageRatingTask_S5,2021.1.4,Win32,60.0240096,,,,,,,,,,,,,,,,,
,,,,,,,,,,,,0,3,3,3,1,fourth,4,22,Female,R,Donders,2021-07-08_18h44.04.026,ImageRatingTask_S5,2021.1.4,Win32,60.0240096,,,,,,,,,,,,,,,,,
,,,,,,,,,,,,0,4,4,4,1,fifth,4,22,Female,R,Donders,2021-07-08_18h44.04.026,ImageRatingTask_S5,2021.1.4,Win32,60.0240096,,,,,,,,,,,,,,,,,
,,,,,,,,,,,,0,5,5,5,1,sixth,4,22,Female,R,Donders,2021-07-08_18h44.04.026,ImageRatingTask_S5,2021.1.4,Win32,60.0240096,,,,,,,,,,,,,,,,,
,,,,,,,,,,,,0,6,6,6,1,seventh,4,22,Female,R,Donders,2021-07-08_18h44.04.026,ImageRatingTask_S5,2021.1.4,Win32,60.0240096,,,,,,,,,,,,,,,,,
,,,,,,,,,,,,0,7,7,7,1,last,4,22,Female,R,Donders,2021-07-08_18h44.04.026,ImageRatingTask_S5,2021.1.4,Win32,60.0240096,,,,,,,,,,,,,,,,,
,,,,,,,,,,,,,,,,,,4,22,Female,R,Donders,2021-07-08_18h44.04.026,ImageRatingTask_S5,2021.1.4,Win32,60.0240096,0,49,49,48,1,DreamStudyImages_rs1000x750g/Water/Landscapes_165_h.jpg,,,,,,,,,,,
,,5,2.825,1,0.8172,6,1.5248,1,0.7774,3,0.6594,0,0,0,0,1,main,4,22,Female,R,Donders,2021-07-08_18h44.04.026,ImageRatingTask_S5,2021.1.4,Win32,60.0240096,,,,,,,,,,,,,,,,,
,,,,,,,,,,,,0,1,1,1,1,second,4,22,Female,R,Donders,2021-07-08_18h44.04.026,ImageRatingTask_S5,2021.1.4,Win32,60.0240096,,,,,,,,,,,,,,,,,
,,,,,,,,,,,,0,2,2,2,1,third,4,22,Female,R,Donders,2021-07-08_18h44.04.026,ImageRatingTask_S5,2021.1.4,Win32,60.0240096,,,,,,,,,,,,,,,,,
,,,,,,,,,,,,0,3,3,3,1,fourth,4,22,Female,R,Donders,2021-07-08_18h44.04.026,ImageRatingTask_S5,2021.1.4,Win32,60.0240096,,,,,,,,,,,,,,,,,
,,,,,,,,,,,,0,4,4,4,1,fifth,4,22,Female,R,Donders,2021-07-08_18h44.04.026,ImageRatingTask_S5,2021.1.4,Win32,60.0240096,,,,,,,,,,,,,,,,,
,,,,,,,,,,,,0,5,5,5,1,sixth,4,22,Female,R,Donders,2021-07-08_18h44.04.026,ImageRatingTask_S5,2021.1.4,Win32,60.0240096,,,,,,,,,,,,,,,,,
,,,,,,,,,,,,0,6,6,6,1,seventh,4,22,Female,R,Donders,2021-07-08_18h44.04.026,ImageRatingTask_S5,2021.1.4,Win32,60.0240096,,,,,,,,,,,,,,,,,
,,,,,,,,,,,,0,7,7,7,1,last,4,22,Female,R,Donders,2021-07-08_18h44.04.026,ImageRatingTask_S5,2021.1.4,Win32,60.0240096,,,,,,,,,,,,,,,,,
,,,,,,,,,,,,,,,,,,4,22,Female,R,Donders,2021-07-08_18h44.04.026,ImageRatingTask_S5,2021.1.4,Win32,60.0240096,0,50,50,51,1,DreamStudyImages_rs1000x750g/Mammals/IAPS1661_orangutan.jpg,,,,,,,,,,,
,,5,2.529,3,1.0543,3,1.4483,1,0.7679,7,0.5793,0,0,0,0,1,main,4,22,Female,R,Donders,2021-07-08_18h44.04.026,ImageRatingTask_S5,2021.1.4,Win32,60.0240096,,,,,,,,,,,,,,,,,
,,,,,,,,,,,,0,1,1,1,1,second,4,22,Female,R,Donders,2021-07-08_18h44.04.026,ImageRatingTask_S5,2021.1.4,Win32,60.0240096,,,,,,,,,,,,,,,,,
,,,,,,,,,,,,0,2,2,2,1,third,4,22,Female,R,Donders,2021-07-08_18h44.04.026,ImageRatingTask_S5,2021.1.4,Win32,60.0240096,,,,,,,,,,,,,,,,,
,,,,,,,,,,,,0,3,3,3,1,fourth,4,22,Female,R,Donders,2021-07-08_18h44.04.026,ImageRatingTask_S5,2021.1.4,Win32,60.0240096,,,,,,,,,,,,,,,,,
,,,,,,,,,,,,0,4,4,4,1,fifth,4,22,Female,R,Donders,2021-07-08_18h44.04.026,ImageRatingTask_S5,2021.1.4,Win32,60.0240096,,,,,,,,,,,,,,,,,
,,,,,,,,,,,,0,5,5,5,1,sixth,4,22,Female,R,Donders,2021-07-08_18h44.04.026,ImageRatingTask_S5,2021.1.4,Win32,60.0240096,,,,,,,,,,,,,,,,,
,,,,,,,,,,,,0,6,6,6,1,seventh,4,22,Female,R,Donders,2021-07-08_18h44.04.026,ImageRatingTask_S5,2021.1.4,Win32,60.0240096,,,,,,,,,,,,,,,,,
,,,,,,,,,,,,0,7,7,7,1,last,4,22,Female,R,Donders,2021-07-08_18h44.04.026,ImageRatingTask_S5,2021.1.4,Win32,60.0240096,,,,,,,,,,,,,,,,,
,,,,,,,,,,,,,,,,,,4,22,Female,R,Donders,2021-07-08_18h44.04.026,ImageRatingTask_S5,2021.1.4,Win32,60.0240096,0,51,51,1,1,DreamStudyImages_rs1000x750g/Vehicles/IAPS9090_car3.jpg,,,,,,,,,,,
,,5,2.2638,1,0.7413,6,1.0502,1,0.6592,7,0.6931,0,0,0,0,1,main,4,22,Female,R,Donders,2021-07-08_18h44.04.026,ImageRatingTask_S5,2021.1.4,Win32,60.0240096,,,,,,,,,,,,,,,,,
,,,,,,,,,,,,0,1,1,1,1,second,4,22,Female,R,Donders,2021-07-08_18h44.04.026,ImageRatingTask_S5,2021.1.4,Win32,60.0240096,,,,,,,,,,,,,,,,,
,,,,,,,,,,,,0,2,2,2,1,third,4,22,Female,R,Donders,2021-07-08_18h44.04.026,ImageRatingTask_S5,2021.1.4,Win32,60.0240096,,,,,,,,,,,,,,,,,
,,,,,,,,,,,,0,3,3,3,1,fourth,4,22,Female,R,Donders,2021-07-08_18h44.04.026,ImageRatingTask_S5,2021.1.4,Win32,60.0240096,,,,,,,,,,,,,,,,,
,,,,,,,,,,,,0,4,4,4,1,fifth,4,22,Female,R,Donders,2021-07-08_18h44.04.026,ImageRatingTask_S5,2021.1.4,Win32,60.0240096,,,,,,,,,,,,,,,,,
,,,,,,,,,,,,0,5,5,5,1,sixth,4,22,Female,R,Donders,2021-07-08_18h44.04.026,ImageRatingTask_S5,2021.1.4,Win32,60.0240096,,,,,,,,,,,,,,,,,
,,,,,,,,,,,,0,6,6,6,1,seventh,4,22,Female,R,Donders,2021-07-08_18h44.04.026,ImageRatingTask_S5,2021.1.4,Win32,60.0240096,,,,,,,,,,,,,,,,,
,,,,,,,,,,,,0,7,7,7,1,last,4,22,Female,R,Donders,2021-07-08_18h44.04.026,ImageRatingTask_S5,2021.1.4,Win32,60.0240096,,,,,,,,,,,,,,,,,
,,,,,,,,,,,,,,,,,,4,22,Female,R,Donders,2021-07-08_18h44.04.026,ImageRatingTask_S5,2021.1.4,Win32,60.0240096,0,52,52,73,1,DreamStudyImages_rs1000x750g/Vehicles/Objects_297_h.jpg,,,,,,,,,,,
,,3,1.6375,5,1.8275,6,1.8318,0,2.1709,,,0,0,0,0,1,main,4,22,Female,R,Donders,2021-07-08_18h44.04.026,ImageRatingTask_S5,2021.1.4,Win32,60.0240096,,,,,,,,,,,,,,,,,
,,,,,,,,,,,,0,1,1,1,1,second,4,22,Female,R,Donders,2021-07-08_18h44.04.026,ImageRatingTask_S5,2021.1.4,Win32,60.0240096,,,,,,,,,,,,,,,,,
,,,,,,,,,,,,0,2,2,2,1,third,4,22,Female,R,Donders,2021-07-08_18h44.04.026,ImageRatingTask_S5,2021.1.4,Win32,60.0240096,,,,,,,,,,,,,,,,,
,,,,,,,,,,,,0,3,3,3,1,fourth,4,22,Female,R,Donders,2021-07-08_18h44.04.026,ImageRatingTask_S5,2021.1.4,Win32,60.0240096,,,,,,,,,,,,,,,,,
,,,,,,,,,,,,0,4,4,4,1,fifth,4,22,Female,R,Donders,2021-07-08_18h44.04.026,ImageRatingTask_S5,2021.1.4,Win32,60.0240096,,,,,,,,,,,,,,,,,
,,,,,,,,,,,,0,5,5,5,1,sixth,4,22,Female,R,Donders,2021-07-08_18h44.04.026,ImageRatingTask_S5,2021.1.4,Win32,60.0240096,,,,,,,,,,,,,,,,,
,,,,,,,,,,,,0,6,6,6,1,seventh,4,22,Female,R,Donders,2021-07-08_18h44.04.026,ImageRatingTask_S5,2021.1.4,Win32,60.0240096,,,,,,,,,,,,,,,,,
,,,,,,,,,,,,0,7,7,7,1,last,4,22,Female,R,Donders,2021-07-08_18h44.04.026,ImageRatingTask_S5,2021.1.4,Win32,60.0240096,,,,,,,,,,,,,,,,,
,,,,,,,,,,,,,,,,,,4,22,Female,R,Donders,2021-07-08_18h44.04.026,ImageRatingTask_S5,2021.1.4,Win32,60.0240096,0,53,53,144,1,DreamStudyImages_rs1000x750g/Houses/Landscapes_007_h.jpg,,,,,,,,,,,
,,5,1.5712,1,0.917,7,3.0865,1,0.8379,7,0.4315,0,0,0,0,1,main,4,22,Female,R,Donders,2021-07-08_18h44.04.026,ImageRatingTask_S5,2021.1.4,Win32,60.0240096,,,,,,,,,,,,,,,,,
,,,,,,,,,,,,0,1,1,1,1,second,4,22,Female,R,Donders,2021-07-08_18h44.04.026,ImageRatingTask_S5,2021.1.4,Win32,60.0240096,,,,,,,,,,,,,,,,,
,,,,,,,,,,,,0,2,2,2,1,third,4,22,Female,R,Donders,2021-07-08_18h44.04.026,ImageRatingTask_S5,2021.1.4,Win32,60.0240096,,,,,,,,,,,,,,,,,
,,,,,,,,,,,,0,3,3,3,1,fourth,4,22,Female,R,Donders,2021-07-08_18h44.04.026,ImageRatingTask_S5,2021.1.4,Win32,60.0240096,,,,,,,,,,,,,,,,,
,,,,,,,,,,,,0,4,4,4,1,fifth,4,22,Female,R,Donders,2021-07-08_18h44.04.026,ImageRatingTask_S5,2021.1.4,Win32,60.0240096,,,,,,,,,,,,,,,,,
,,,,,,,,,,,,0,5,5,5,1,sixth,4,22,Female,R,Donders,2021-07-08_18h44.04.026,ImageRatingTask_S5,2021.1.4,Win32,60.0240096,,,,,,,,,,,,,,,,,
,,,,,,,,,,,,0,6,6,6,1,seventh,4,22,Female,R,Donders,2021-07-08_18h44.04.026,ImageRatingTask_S5,2021.1.4,Win32,60.0240096,,,,,,,,,,,,,,,,,
,,,,,,,,,,,,0,7,7,7,1,last,4,22,Female,R,Donders,2021-07-08_18h44.04.026,ImageRatingTask_S5,2021.1.4,Win32,60.0240096,,,,,,,,,,,,,,,,,
,,,,,,,,,,,,,,,,,,4,22,Female,R,Donders,2021-07-08_18h44.04.026,ImageRatingTask_S5,2021.1.4,Win32,60.0240096,0,54,54,84,1,DreamStudyImages_rs1000x750g/Vehicles/muddyjeep.jpg,,,,,,,,,,,
,,5,2.6205,2,1.7435,5,1.8721,1,0.8226,3,0.776,0,0,0,0,1,main,4,22,Female,R,Donders,2021-07-08_18h44.04.026,ImageRatingTask_S5,2021.1.4,Win32,60.0240096,,,,,,,,,,,,,,,,,
,,,,,,,,,,,,0,1,1,1,1,second,4,22,Female,R,Donders,2021-07-08_18h44.04.026,ImageRatingTask_S5,2021.1.4,Win32,60.0240096,,,,,,,,,,,,,,,,,
,,,,,,,,,,,,0,2,2,2,1,third,4,22,Female,R,Donders,2021-07-08_18h44.04.026,ImageRatingTask_S5,2021.1.4,Win32,60.0240096,,,,,,,,,,,,,,,,,
,,,,,,,,,,,,0,3,3,3,1,fourth,4,22,Female,R,Donders,2021-07-08_18h44.04.026,ImageRatingTask_S5,2021.1.4,Win32,60.0240096,,,,,,,,,,,,,,,,,
,,,,,,,,,,,,0,4,4,4,1,fifth,4,22,Female,R,Donders,2021-07-08_18h44.04.026,ImageRatingTask_S5,2021.1.4,Win32,60.0240096,,,,,,,,,,,,,,,,,
,,,,,,,,,,,,0,5,5,5,1,sixth,4,22,Female,R,Donders,2021-07-08_18h44.04.026,ImageRatingTask_S5,2021.1.4,Win32,60.0240096,,,,,,,,,,,,,,,,,
,,,,,,,,,,,,0,6,6,6,1,seventh,4,22,Female,R,Donders,2021-07-08_18h44.04.026,ImageRatingTask_S5,2021.1.4,Win32,60.0240096,,,,,,,,,,,,,,,,,
,,,,,,,,,,,,0,7,7,7,1,last,4,22,Female,R,Donders,2021-07-08_18h44.04.026,ImageRatingTask_S5,2021.1.4,Win32,60.0240096,,,,,,,,,,,,,,,,,
,,,,,,,,,,,,,,,,,,4,22,Female,R,Donders,2021-07-08_18h44.04.026,ImageRatingTask_S5,2021.1.4,Win32,60.0240096,0,55,55,60,1,DreamStudyImages_rs1000x750g/Mammals/Meerkat 1.jpg,,,,,,,,,,,
,,5,3.3099,1,0.7968,6,1.2556,1,0.7902,7,0.5248,0,0,0,0,1,main,4,22,Female,R,Donders,2021-07-08_18h44.04.026,ImageRatingTask_S5,2021.1.4,Win32,60.0240096,,,,,,,,,,,,,,,,,
,,,,,,,,,,,,0,1,1,1,1,second,4,22,Female,R,Donders,2021-07-08_18h44.04.026,ImageRatingTask_S5,2021.1.4,Win32,60.0240096,,,,,,,,,,,,,,,,,
,,,,,,,,,,,,0,2,2,2,1,third,4,22,Female,R,Donders,2021-07-08_18h44.04.026,ImageRatingTask_S5,2021.1.4,Win32,60.0240096,,,,,,,,,,,,,,,,,
,,,,,,,,,,,,0,3,3,3,1,fourth,4,22,Female,R,Donders,2021-07-08_18h44.04.026,ImageRatingTask_S5,2021.1.4,Win32,60.0240096,,,,,,,,,,,,,,,,,
,,,,,,,,,,,,0,4,4,4,1,fifth,4,22,Female,R,Donders,2021-07-08_18h44.04.026,ImageRatingTask_S5,2021.1.4,Win32,60.0240096,,,,,,,,,,,,,,,,,
,,,,,,,,,,,,0,5,5,5,1,sixth,4,22,Female,R,Donders,2021-07-08_18h44.04.026,ImageRatingTask_S5,2021.1.4,Win32,60.0240096,,,,,,,,,,,,,,,,,
,,,,,,,,,,,,0,6,6,6,1,seventh,4,22,Female,R,Donders,2021-07-08_18h44.04.026,ImageRatingTask_S5,2021.1.4,Win32,60.0240096,,,,,,,,,,,,,,,,,
,,,,,,,,,,,,0,7,7,7,1,last,4,22,Female,R,Donders,2021-07-08_18h44.04.026,ImageRatingTask_S5,2021.1.4,Win32,60.0240096,,,,,,,,,,,,,,,,,
,,,,,,,,,,,,,,,,,,4,22,Female,R,Donders,2021-07-08_18h44.04.026,ImageRatingTask_S5,2021.1.4,Win32,60.0240096,0,56,56,124,1,DreamStudyImages_rs1000x750g/Vehicles/IAPS7136_stuckcar.jpg,,,,,,,,,,,
,,6,2.3444,2,1.7881,4,2.4429,1,0.7059,2,0.1253,0,0,0,0,1,main,4,22,Female,R,Donders,2021-07-08_18h44.04.026,ImageRatingTask_S5,2021.1.4,Win32,60.0240096,,,,,,,,,,,,,,,,,
,,,,,,,,,,,,0,1,1,1,1,second,4,22,Female,R,Donders,2021-07-08_18h44.04.026,ImageRatingTask_S5,2021.1.4,Win32,60.0240096,,,,,,,,,,,,,,,,,
,,,,,,,,,,,,0,2,2,2,1,third,4,22,Female,R,Donders,2021-07-08_18h44.04.026,ImageRatingTask_S5,2021.1.4,Win32,60.0240096,,,,,,,,,,,,,,,,,
,,,,,,,,,,,,0,3,3,3,1,fourth,4,22,Female,R,Donders,2021-07-08_18h44.04.026,ImageRatingTask_S5,2021.1.4,Win32,60.0240096,,,,,,,,,,,,,,,,,
,,,,,,,,,,,,0,4,4,4,1,fifth,4,22,Female,R,Donders,2021-07-08_18h44.04.026,ImageRatingTask_S5,2021.1.4,Win32,60.0240096,,,,,,,,,,,,,,,,,
,,,,,,,,,,,,0,5,5,5,1,sixth,4,22,Female,R,Donders,2021-07-08_18h44.04.026,ImageRatingTask_S5,2021.1.4,Win32,60.0240096,,,,,,,,,,,,,,,,,
,,,,,,,,,,,,0,6,6,6,1,seventh,4,22,Female,R,Donders,2021-07-08_18h44.04.026,ImageRatingTask_S5,2021.1.4,Win32,60.0240096,,,,,,,,,,,,,,,,,
,,,,,,,,,,,,0,7,7,7,1,last,4,22,Female,R,Donders,2021-07-08_18h44.04.026,ImageRatingTask_S5,2021.1.4,Win32,60.0240096,,,,,,,,,,,,,,,,,
,,,,,,,,,,,,,,,,,,4,22,Female,R,Donders,2021-07-08_18h44.04.026,ImageRatingTask_S5,2021.1.4,Win32,60.0240096,0,57,57,87,1,DreamStudyImages_rs1000x750g/Children/IAPS2050_baby3.jpg,,,,,,,,,,,
,,4,2.3496,3,1.4185,6,3.1598,1,0.7698,3,0.3454,0,0,0,0,1,main,4,22,Female,R,Donders,2021-07-08_18h44.04.026,ImageRatingTask_S5,2021.1.4,Win32,60.0240096,,,,,,,,,,,,,,,,,
,,,,,,,,,,,,0,1,1,1,1,second,4,22,Female,R,Donders,2021-07-08_18h44.04.026,ImageRatingTask_S5,2021.1.4,Win32,60.0240096,,,,,,,,,,,,,,,,,
,,,,,,,,,,,,0,2,2,2,1,third,4,22,Female,R,Donders,2021-07-08_18h44.04.026,ImageRatingTask_S5,2021.1.4,Win32,60.0240096,,,,,,,,,,,,,,,,,
,,,,,,,,,,,,0,3,3,3,1,fourth,4,22,Female,R,Donders,2021-07-08_18h44.04.026,ImageRatingTask_S5,2021.1.4,Win32,60.0240096,,,,,,,,,,,,,,,,,
,,,,,,,,,,,,0,4,4,4,1,fifth,4,22,Female,R,Donders,2021-07-08_18h44.04.026,ImageRatingTask_S5,2021.1.4,Win32,60.0240096,,,,,,,,,,,,,,,,,
,,,,,,,,,,,,0,5,5,5,1,sixth,4,22,Female,R,Donders,2021-07-08_18h44.04.026,ImageRatingTask_S5,2021.1.4,Win32,60.0240096,,,,,,,,,,,,,,,,,
,,,,,,,,,,,,0,6,6,6,1,seventh,4,22,Female,R,Donders,2021-07-08_18h44.04.026,ImageRatingTask_S5,2021.1.4,Win32,60.0240096,,,,,,,,,,,,,,,,,
,,,,,,,,,,,,0,7,7,7,1,last,4,22,Female,R,Donders,2021-07-08_18h44.04.026,ImageRatingTask_S5,2021.1.4,Win32,60.0240096,,,,,,,,,,,,,,,,,
,,,,,,,,,,,,,,,,,,4,22,Female,R,Donders,2021-07-08_18h44.04.026,ImageRatingTask_S5,2021.1.4,Win32,60.0240096,0,58,58,37,1,DreamStudyImages_rs1000x750g/Mammals/Animals_133_h.jpg,,,,,,,,,,,
,,7,1.5441,1,1.0046,7,3.2379,1,0.7171,8,0.3935,0,0,0,0,1,main,4,22,Female,R,Donders,2021-07-08_18h44.04.026,ImageRatingTask_S5,2021.1.4,Win32,60.0240096,,,,,,,,,,,,,,,,,
,,,,,,,,,,,,0,1,1,1,1,second,4,22,Female,R,Donders,2021-07-08_18h44.04.026,ImageRatingTask_S5,2021.1.4,Win32,60.0240096,,,,,,,,,,,,,,,,,
,,,,,,,,,,,,0,2,2,2,1,third,4,22,Female,R,Donders,2021-07-08_18h44.04.026,ImageRatingTask_S5,2021.1.4,Win32,60.0240096,,,,,,,,,,,,,,,,,
,,,,,,,,,,,,0,3,3,3,1,fourth,4,22,Female,R,Donders,2021-07-08_18h44.04.026,ImageRatingTask_S5,2021.1.4,Win32,60.0240096,,,,,,,,,,,,,,,,,
,,,,,,,,,,,,0,4,4,4,1,fifth,4,22,Female,R,Donders,2021-07-08_18h44.04.026,ImageRatingTask_S5,2021.1.4,Win32,60.0240096,,,,,,,,,,,,,,,,,
,,,,,,,,,,,,0,5,5,5,1,sixth,4,22,Female,R,Donders,2021-07-08_18h44.04.026,ImageRatingTask_S5,2021.1.4,Win32,60.0240096,,,,,,,,,,,,,,,,,
,,,,,,,,,,,,0,6,6,6,1,seventh,4,22,Female,R,Donders,2021-07-08_18h44.04.026,ImageRatingTask_S5,2021.1.4,Win32,60.0240096,,,,,,,,,,,,,,,,,
,,,,,,,,,,,,0,7,7,7,1,last,4,22,Female,R,Donders,2021-07-08_18h44.04.026,ImageRatingTask_S5,2021.1.4,Win32,60.0240096,,,,,,,,,,,,,,,,,
,,,,,,,,,,,,,,,,,,4,22,Female,R,Donders,2021-07-08_18h44.04.026,ImageRatingTask_S5,2021.1.4,Win32,60.0240096,0,59,59,66,1,DreamStudyImages_rs1000x750g/Water/NDPS153_lake.jpg,,,,,,,,,,,
,,5,2.0802,2,1.6549,5,1.2888,1,1.1897,8,0.7122,0,0,0,0,1,main,4,22,Female,R,Donders,2021-07-08_18h44.04.026,ImageRatingTask_S5,2021.1.4,Win32,60.0240096,,,,,,,,,,,,,,,,,
,,,,,,,,,,,,0,1,1,1,1,second,4,22,Female,R,Donders,2021-07-08_18h44.04.026,ImageRatingTask_S5,2021.1.4,Win32,60.0240096,,,,,,,,,,,,,,,,,
,,,,,,,,,,,,0,2,2,2,1,third,4,22,Female,R,Donders,2021-07-08_18h44.04.026,ImageRatingTask_S5,2021.1.4,Win32,60.0240096,,,,,,,,,,,,,,,,,
,,,,,,,,,,,,0,3,3,3,1,fourth,4,22,Female,R,Donders,2021-07-08_18h44.04.026,ImageRatingTask_S5,2021.1.4,Win32,60.0240096,,,,,,,,,,,,,,,,,
,,,,,,,,,,,,0,4,4,4,1,fifth,4,22,Female,R,Donders,2021-07-08_18h44.04.026,ImageRatingTask_S5,2021.1.4,Win32,60.0240096,,,,,,,,,,,,,,,,,
,,,,,,,,,,,,0,5,5,5,1,sixth,4,22,Female,R,Donders,2021-07-08_18h44.04.026,ImageRatingTask_S5,2021.1.4,Win32,60.0240096,,,,,,,,,,,,,,,,,
,,,,,,,,,,,,0,6,6,6,1,seventh,4,22,Female,R,Donders,2021-07-08_18h44.04.026,ImageRatingTask_S5,2021.1.4,Win32,60.0240096,,,,,,,,,,,,,,,,,
,,,,,,,,,,,,0,7,7,7,1,last,4,22,Female,R,Donders,2021-07-08_18h44.04.026,ImageRatingTask_S5,2021.1.4,Win32,60.0240096,,,,,,,,,,,,,,,,,
,,,,,,,,,,,,,,,,,,4,22,Female,R,Donders,2021-07-08_18h44.04.026,ImageRatingTask_S5,2021.1.4,Win32,60.0240096,0,60,60,8,1,DreamStudyImages_rs1000x750g/Water/dawnatlake.jpg,,,,,,,,,,,
,,5,1.7309,1,1.5119,6,1.4071,1,1.072,6,0.6448,0,0,0,0,1,main,4,22,Female,R,Donders,2021-07-08_18h44.04.026,ImageRatingTask_S5,2021.1.4,Win32,60.0240096,,,,,,,,,,,,,,,,,
,,,,,,,,,,,,0,1,1,1,1,second,4,22,Female,R,Donders,2021-07-08_18h44.04.026,ImageRatingTask_S5,2021.1.4,Win32,60.0240096,,,,,,,,,,,,,,,,,
,,,,,,,,,,,,0,2,2,2,1,third,4,22,Female,R,Donders,2021-07-08_18h44.04.026,ImageRatingTask_S5,2021.1.4,Win32,60.0240096,,,,,,,,,,,,,,,,,
,,,,,,,,,,,,0,3,3,3,1,fourth,4,22,Female,R,Donders,2021-07-08_18h44.04.026,ImageRatingTask_S5,2021.1.4,Win32,60.0240096,,,,,,,,,,,,,,,,,
,,,,,,,,,,,,0,4,4,4,1,fifth,4,22,Female,R,Donders,2021-07-08_18h44.04.026,ImageRatingTask_S5,2021.1.4,Win32,60.0240096,,,,,,,,,,,,,,,,,
,,,,,,,,,,,,0,5,5,5,1,sixth,4,22,Female,R,Donders,2021-07-08_18h44.04.026,ImageRatingTask_S5,2021.1.4,Win32,60.0240096,,,,,,,,,,,,,,,,,
,,,,,,,,,,,,0,6,6,6,1,seventh,4,22,Female,R,Donders,2021-07-08_18h44.04.026,ImageRatingTask_S5,2021.1.4,Win32,60.0240096,,,,,,,,,,,,,,,,,
,,,,,,,,,,,,0,7,7,7,1,last,4,22,Female,R,Donders,2021-07-08_18h44.04.026,ImageRatingTask_S5,2021.1.4,Win32,60.0240096,,,,,,,,,,,,,,,,,
,,,,,,,,,,,,,,,,,,4,22,Female,R,Donders,2021-07-08_18h44.04.026,ImageRatingTask_S5,2021.1.4,Win32,60.0240096,0,61,61,13,1,DreamStudyImages_rs1000x750g/Houses/Landscapes_045_h.jpg,,,,,,,,,,,
,,5,2.6093,1,1.3004,6,1.5957,1,0.5852,8,0.4635,0,0,0,0,1,main,4,22,Female,R,Donders,2021-07-08_18h44.04.026,ImageRatingTask_S5,2021.1.4,Win32,60.0240096,,,,,,,,,,,,,,,,,
,,,,,,,,,,,,0,1,1,1,1,second,4,22,Female,R,Donders,2021-07-08_18h44.04.026,ImageRatingTask_S5,2021.1.4,Win32,60.0240096,,,,,,,,,,,,,,,,,
,,,,,,,,,,,,0,2,2,2,1,third,4,22,Female,R,Donders,2021-07-08_18h44.04.026,ImageRatingTask_S5,2021.1.4,Win32,60.0240096,,,,,,,,,,,,,,,,,
,,,,,,,,,,,,0,3,3,3,1,fourth,4,22,Female,R,Donders,2021-07-08_18h44.04.026,ImageRatingTask_S5,2021.1.4,Win32,60.0240096,,,,,,,,,,,,,,,,,
,,,,,,,,,,,,0,4,4,4,1,fifth,4,22,Female,R,Donders,2021-07-08_18h44.04.026,ImageRatingTask_S5,2021.1.4,Win32,60.0240096,,,,,,,,,,,,,,,,,
,,,,,,,,,,,,0,5,5,5,1,sixth,4,22,Female,R,Donders,2021-07-08_18h44.04.026,ImageRatingTask_S5,2021.1.4,Win32,60.0240096,,,,,,,,,,,,,,,,,
,,,,,,,,,,,,0,6,6,6,1,seventh,4,22,Female,R,Donders,2021-07-08_18h44.04.026,ImageRatingTask_S5,2021.1.4,Win32,60.0240096,,,,,,,,,,,,,,,,,
,,,,,,,,,,,,0,7,7,7,1,last,4,22,Female,R,Donders,2021-07-08_18h44.04.026,ImageRatingTask_S5,2021.1.4,Win32,60.0240096,,,,,,,,,,,,,,,,,
,,,,,,,,,,,,,,,,,,4,22,Female,R,Donders,2021-07-08_18h44.04.026,ImageRatingTask_S5,2021.1.4,Win32,60.0240096,0,62,62,102,1,DreamStudyImages_rs1000x750g/Water/riverstream.jpg,,,,,,,,,,,
,,8,0.0017,8,7.7937,6,2.4605,1,0.8453,2,0.0936,0,0,0,0,1,main,4,22,Female,R,Donders,2021-07-08_18h44.04.026,ImageRatingTask_S5,2021.1.4,Win32,60.0240096,,,,,,,,,,,,,,,,,
,,,,,,,,,,,,0,1,1,1,1,second,4,22,Female,R,Donders,2021-07-08_18h44.04.026,ImageRatingTask_S5,2021.1.4,Win32,60.0240096,,,,,,,,,,,,,,,,,
,,,,,,,,,,,,0,2,2,2,1,third,4,22,Female,R,Donders,2021-07-08_18h44.04.026,ImageRatingTask_S5,2021.1.4,Win32,60.0240096,,,,,,,,,,,,,,,,,
,,,,,,,,,,,,0,3,3,3,1,fourth,4,22,Female,R,Donders,2021-07-08_18h44.04.026,ImageRatingTask_S5,2021.1.4,Win32,60.0240096,,,,,,,,,,,,,,,,,
,,,,,,,,,,,,0,4,4,4,1,fifth,4,22,Female,R,Donders,2021-07-08_18h44.04.026,ImageRatingTask_S5,2021.1.4,Win32,60.0240096,,,,,,,,,,,,,,,,,
,,,,,,,,,,,,0,5,5,5,1,sixth,4,22,Female,R,Donders,2021-07-08_18h44.04.026,ImageRatingTask_S5,2021.1.4,Win32,60.0240096,,,,,,,,,,,,,,,,,
,,,,,,,,,,,,0,6,6,6,1,seventh,4,22,Female,R,Donders,2021-07-08_18h44.04.026,ImageRatingTask_S5,2021.1.4,Win32,60.0240096,,,,,,,,,,,,,,,,,
,,,,,,,,,,,,0,7,7,7,1,last,4,22,Female,R,Donders,2021-07-08_18h44.04.026,ImageRatingTask_S5,2021.1.4,Win32,60.0240096,,,,,,,,,,,,,,,,,
,,,,,,,,,,,,,,,,,,4,22,Female,R,Donders,2021-07-08_18h44.04.026,ImageRatingTask_S5,2021.1.4,Win32,60.0240096,0,63,63,156,1,DreamStudyImages_rs1000x750g/Children/People_042_h.jpg,,,,,,,,,,,
,,5,2.4422,1,0.9558,7,1.3708,1,0.7219,5,0.4116,0,0,0,0,1,main,4,22,Female,R,Donders,2021-07-08_18h44.04.026,ImageRatingTask_S5,2021.1.4,Win32,60.0240096,,,,,,,,,,,,,,,,,
,,,,,,,,,,,,0,1,1,1,1,second,4,22,Female,R,Donders,2021-07-08_18h44.04.026,ImageRatingTask_S5,2021.1.4,Win32,60.0240096,,,,,,,,,,,,,,,,,
,,,,,,,,,,,,0,2,2,2,1,third,4,22,Female,R,Donders,2021-07-08_18h44.04.026,ImageRatingTask_S5,2021.1.4,Win32,60.0240096,,,,,,,,,,,,,,,,,
,,,,,,,,,,,,0,3,3,3,1,fourth,4,22,Female,R,Donders,2021-07-08_18h44.04.026,ImageRatingTask_S5,2021.1.4,Win32,60.0240096,,,,,,,,,,,,,,,,,
,,,,,,,,,,,,0,4,4,4,1,fifth,4,22,Female,R,Donders,2021-07-08_18h44.04.026,ImageRatingTask_S5,2021.1.4,Win32,60.0240096,,,,,,,,,,,,,,,,,
,,,,,,,,,,,,0,5,5,5,1,sixth,4,22,Female,R,Donders,2021-07-08_18h44.04.026,ImageRatingTask_S5,2021.1.4,Win32,60.0240096,,,,,,,,,,,,,,,,,
,,,,,,,,,,,,0,6,6,6,1,seventh,4,22,Female,R,Donders,2021-07-08_18h44.04.026,ImageRatingTask_S5,2021.1.4,Win32,60.0240096,,,,,,,,,,,,,,,,,
,,,,,,,,,,,,0,7,7,7,1,last,4,22,Female,R,Donders,2021-07-08_18h44.04.026,ImageRatingTask_S5,2021.1.4,Win32,60.0240096,,,,,,,,,,,,,,,,,
,,,,,,,,,,,,,,,,,,4,22,Female,R,Donders,2021-07-08_18h44.04.026,ImageRatingTask_S5,2021.1.4,Win32,60.0240096,0,64,64,47,1,DreamStudyImages_rs1000x750g/Food/IAPS7405_cupcakes.jpg,,,,,,,,,,,
,,5,3.3713,3,1.4616,5,1.8648,1,0.9073,2,1.7119,0,0,0,0,1,main,4,22,Female,R,Donders,2021-07-08_18h44.04.026,ImageRatingTask_S5,2021.1.4,Win32,60.0240096,,,,,,,,,,,,,,,,,
,,,,,,,,,,,,0,1,1,1,1,second,4,22,Female,R,Donders,2021-07-08_18h44.04.026,ImageRatingTask_S5,2021.1.4,Win32,60.0240096,,,,,,,,,,,,,,,,,
,,,,,,,,,,,,0,2,2,2,1,third,4,22,Female,R,Donders,2021-07-08_18h44.04.026,ImageRatingTask_S5,2021.1.4,Win32,60.0240096,,,,,,,,,,,,,,,,,
,,,,,,,,,,,,0,3,3,3,1,fourth,4,22,Female,R,Donders,2021-07-08_18h44.04.026,ImageRatingTask_S5,2021.1.4,Win32,60.0240096,,,,,,,,,,,,,,,,,
,,,,,,,,,,,,0,4,4,4,1,fifth,4,22,Female,R,Donders,2021-07-08_18h44.04.026,ImageRatingTask_S5,2021.1.4,Win32,60.0240096,,,,,,,,,,,,,,,,,
,,,,,,,,,,,,0,5,5,5,1,sixth,4,22,Female,R,Donders,2021-07-08_18h44.04.026,ImageRatingTask_S5,2021.1.4,Win32,60.0240096,,,,,,,,,,,,,,,,,
,,,,,,,,,,,,0,6,6,6,1,seventh,4,22,Female,R,Donders,2021-07-08_18h44.04.026,ImageRatingTask_S5,2021.1.4,Win32,60.0240096,,,,,,,,,,,,,,,,,
,,,,,,,,,,,,0,7,7,7,1,last,4,22,Female,R,Donders,2021-07-08_18h44.04.026,ImageRatingTask_S5,2021.1.4,Win32,60.0240096,,,,,,,,,,,,,,,,,
,,,,,,,,,,,,,,,,,,4,22,Female,R,Donders,2021-07-08_18h44.04.026,ImageRatingTask_S5,2021.1.4,Win32,60.0240096,0,65,65,142,1,DreamStudyImages_rs1000x750g/Children/IAPS2278_children6.jpg,,,,,,,,,,,
,,5,1.9161,1,0.9663,6,1.2871,1,0.8122,2,0.1332,0,0,0,0,1,main,4,22,Female,R,Donders,2021-07-08_18h44.04.026,ImageRatingTask_S5,2021.1.4,Win32,60.0240096,,,,,,,,,,,,,,,,,
,,,,,,,,,,,,0,1,1,1,1,second,4,22,Female,R,Donders,2021-07-08_18h44.04.026,ImageRatingTask_S5,2021.1.4,Win32,60.0240096,,,,,,,,,,,,,,,,,
,,,,,,,,,,,,0,2,2,2,1,third,4,22,Female,R,Donders,2021-07-08_18h44.04.026,ImageRatingTask_S5,2021.1.4,Win32,60.0240096,,,,,,,,,,,,,,,,,
,,,,,,,,,,,,0,3,3,3,1,fourth,4,22,Female,R,Donders,2021-07-08_18h44.04.026,ImageRatingTask_S5,2021.1.4,Win32,60.0240096,,,,,,,,,,,,,,,,,
,,,,,,,,,,,,0,4,4,4,1,fifth,4,22,Female,R,Donders,2021-07-08_18h44.04.026,ImageRatingTask_S5,2021.1.4,Win32,60.0240096,,,,,,,,,,,,,,,,,
,,,,,,,,,,,,0,5,5,5,1,sixth,4,22,Female,R,Donders,2021-07-08_18h44.04.026,ImageRatingTask_S5,2021.1.4,Win32,60.0240096,,,,,,,,,,,,,,,,,
,,,,,,,,,,,,0,6,6,6,1,seventh,4,22,Female,R,Donders,2021-07-08_18h44.04.026,ImageRatingTask_S5,2021.1.4,Win32,60.0240096,,,,,,,,,,,,,,,,,
,,,,,,,,,,,,0,7,7,7,1,last,4,22,Female,R,Donders,2021-07-08_18h44.04.026,ImageRatingTask_S5,2021.1.4,Win32,60.0240096,,,,,,,,,,,,,,,,,
,,,,,,,,,,,,,,,,,,4,22,Female,R,Donders,2021-07-08_18h44.04.026,ImageRatingTask_S5,2021.1.4,Win32,60.0240096,0,66,66,58,1,DreamStudyImages_rs1000x750g/Children/Faces_082_v.jpg,,,,,,,,,,,
,,3,3.9271,3,6.8479,6,12.0931,1,7.3429,5,0.4116,0,0,0,0,1,main,4,22,Female,R,Donders,2021-07-08_18h44.04.026,ImageRatingTask_S5,2021.1.4,Win32,60.0240096,,,,,,,,,,,,,,,,,
,,,,,,,,,,,,0,1,1,1,1,second,4,22,Female,R,Donders,2021-07-08_18h44.04.026,ImageRatingTask_S5,2021.1.4,Win32,60.0240096,,,,,,,,,,,,,,,,,
,,,,,,,,,,,,0,2,2,2,1,third,4,22,Female,R,Donders,2021-07-08_18h44.04.026,ImageRatingTask_S5,2021.1.4,Win32,60.0240096,,,,,,,,,,,,,,,,,
,,,,,,,,,,,,0,3,3,3,1,fourth,4,22,Female,R,Donders,2021-07-08_18h44.04.026,ImageRatingTask_S5,2021.1.4,Win32,60.0240096,,,,,,,,,,,,,,,,,
,,,,,,,,,,,,0,4,4,4,1,fifth,4,22,Female,R,Donders,2021-07-08_18h44.04.026,ImageRatingTask_S5,2021.1.4,Win32,60.0240096,,,,,,,,,,,,,,,,,
,,,,,,,,,,,,0,5,5,5,1,sixth,4,22,Female,R,Donders,2021-07-08_18h44.04.026,ImageRatingTask_S5,2021.1.4,Win32,60.0240096,,,,,,,,,,,,,,,,,
,,,,,,,,,,,,0,6,6,6,1,seventh,4,22,Female,R,Donders,2021-07-08_18h44.04.026,ImageRatingTask_S5,2021.1.4,Win32,60.0240096,,,,,,,,,,,,,,,,,
,,,,,,,,,,,,0,7,7,7,1,last,4,22,Female,R,Donders,2021-07-08_18h44.04.026,ImageRatingTask_S5,2021.1.4,Win32,60.0240096,,,,,,,,,,,,,,,,,
,,,,,,,,,,,,,,,,,,4,22,Female,R,Donders,2021-07-08_18h44.04.026,ImageRatingTask_S5,2021.1.4,Win32,60.0240096,0,67,67,74,1,DreamStudyImages_rs1000x750g/Food/Objects_066_v.jpg,,,,,,,,,,,
,,5,4.2246,1,0.9274,7,2.3304,1,0.9321,5,0.4216,0,0,0,0,1,main,4,22,Female,R,Donders,2021-07-08_18h44.04.026,ImageRatingTask_S5,2021.1.4,Win32,60.0240096,,,,,,,,,,,,,,,,,
,,,,,,,,,,,,0,1,1,1,1,second,4,22,Female,R,Donders,2021-07-08_18h44.04.026,ImageRatingTask_S5,2021.1.4,Win32,60.0240096,,,,,,,,,,,,,,,,,
,,,,,,,,,,,,0,2,2,2,1,third,4,22,Female,R,Donders,2021-07-08_18h44.04.026,ImageRatingTask_S5,2021.1.4,Win32,60.0240096,,,,,,,,,,,,,,,,,
,,,,,,,,,,,,0,3,3,3,1,fourth,4,22,Female,R,Donders,2021-07-08_18h44.04.026,ImageRatingTask_S5,2021.1.4,Win32,60.0240096,,,,,,,,,,,,,,,,,
,,,,,,,,,,,,0,4,4,4,1,fifth,4,22,Female,R,Donders,2021-07-08_18h44.04.026,ImageRatingTask_S5,2021.1.4,Win32,60.0240096,,,,,,,,,,,,,,,,,
,,,,,,,,,,,,0,5,5,5,1,sixth,4,22,Female,R,Donders,2021-07-08_18h44.04.026,ImageRatingTask_S5,2021.1.4,Win32,60.0240096,,,,,,,,,,,,,,,,,
,,,,,,,,,,,,0,6,6,6,1,seventh,4,22,Female,R,Donders,2021-07-08_18h44.04.026,ImageRatingTask_S5,2021.1.4,Win32,60.0240096,,,,,,,,,,,,,,,,,
,,,,,,,,,,,,0,7,7,7,1,last,4,22,Female,R,Donders,2021-07-08_18h44.04.026,ImageRatingTask_S5,2021.1.4,Win32,60.0240096,,,,,,,,,,,,,,,,,
,,,,,,,,,,,,,,,,,,4,22,Female,R,Donders,2021-07-08_18h44.04.026,ImageRatingTask_S5,2021.1.4,Win32,60.0240096,0,68,68,34,1,DreamStudyImages_rs1000x750g/Food/Objects_038_v.jpg,,,,,,,,,,,
,,2,3.8405,6,1.7925,7,5.2897,1,0.7857,2,0.0927,0,0,0,0,1,main,4,22,Female,R,Donders,2021-07-08_18h44.04.026,ImageRatingTask_S5,2021.1.4,Win32,60.0240096,,,,,,,,,,,,,,,,,
,,,,,,,,,,,,0,1,1,1,1,second,4,22,Female,R,Donders,2021-07-08_18h44.04.026,ImageRatingTask_S5,2021.1.4,Win32,60.0240096,,,,,,,,,,,,,,,,,
,,,,,,,,,,,,0,2,2,2,1,third,4,22,Female,R,Donders,2021-07-08_18h44.04.026,ImageRatingTask_S5,2021.1.4,Win32,60.0240096,,,,,,,,,,,,,,,,,
,,,,,,,,,,,,0,3,3,3,1,fourth,4,22,Female,R,Donders,2021-07-08_18h44.04.026,ImageRatingTask_S5,2021.1.4,Win32,60.0240096,,,,,,,,,,,,,,,,,
,,,,,,,,,,,,0,4,4,4,1,fifth,4,22,Female,R,Donders,2021-07-08_18h44.04.026,ImageRatingTask_S5,2021.1.4,Win32,60.0240096,,,,,,,,,,,,,,,,,
,,,,,,,,,,,,0,5,5,5,1,sixth,4,22,Female,R,Donders,2021-07-08_18h44.04.026,ImageRatingTask_S5,2021.1.4,Win32,60.0240096,,,,,,,,,,,,,,,,,
,,,,,,,,,,,,0,6,6,6,1,seventh,4,22,Female,R,Donders,2021-07-08_18h44.04.026,ImageRatingTask_S5,2021.1.4,Win32,60.0240096,,,,,,,,,,,,,,,,,
,,,,,,,,,,,,0,7,7,7,1,last,4,22,Female,R,Donders,2021-07-08_18h44.04.026,ImageRatingTask_S5,2021.1.4,Win32,60.0240096,,,,,,,,,,,,,,,,,
,,,,,,,,,,,,,,,,,,4,22,Female,R,Donders,2021-07-08_18h44.04.026,ImageRatingTask_S5,2021.1.4,Win32,60.0240096,0,69,69,67,1,DreamStudyImages_rs1000x750g/Children/Sad face 1.jpg,,,,,,,,,,,
,,2,3.0435,7,0.7503,3,1.5546,1,0.6547,7,0.5486,0,0,0,0,1,main,4,22,Female,R,Donders,2021-07-08_18h44.04.026,ImageRatingTask_S5,2021.1.4,Win32,60.0240096,,,,,,,,,,,,,,,,,
,,,,,,,,,,,,0,1,1,1,1,second,4,22,Female,R,Donders,2021-07-08_18h44.04.026,ImageRatingTask_S5,2021.1.4,Win32,60.0240096,,,,,,,,,,,,,,,,,
,,,,,,,,,,,,0,2,2,2,1,third,4,22,Female,R,Donders,2021-07-08_18h44.04.026,ImageRatingTask_S5,2021.1.4,Win32,60.0240096,,,,,,,,,,,,,,,,,
,,,,,,,,,,,,0,3,3,3,1,fourth,4,22,Female,R,Donders,2021-07-08_18h44.04.026,ImageRatingTask_S5,2021.1.4,Win32,60.0240096,,,,,,,,,,,,,,,,,
,,,,,,,,,,,,0,4,4,4,1,fifth,4,22,Female,R,Donders,2021-07-08_18h44.04.026,ImageRatingTask_S5,2021.1.4,Win32,60.0240096,,,,,,,,,,,,,,,,,
,,,,,,,,,,,,0,5,5,5,1,sixth,4,22,Female,R,Donders,2021-07-08_18h44.04.026,ImageRatingTask_S5,2021.1.4,Win32,60.0240096,,,,,,,,,,,,,,,,,
,,,,,,,,,,,,0,6,6,6,1,seventh,4,22,Female,R,Donders,2021-07-08_18h44.04.026,ImageRatingTask_S5,2021.1.4,Win32,60.0240096,,,,,,,,,,,,,,,,,
,,,,,,,,,,,,0,7,7,7,1,last,4,22,Female,R,Donders,2021-07-08_18h44.04.026,ImageRatingTask_S5,2021.1.4,Win32,60.0240096,,,,,,,,,,,,,,,,,
,,,,,,,,,,,,,,,,,,4,22,Female,R,Donders,2021-07-08_18h44.04.026,ImageRatingTask_S5,2021.1.4,Win32,60.0240096,0,70,70,81,1,DreamStudyImages_rs1000x750g/Vehicles/9611.jpg,,,,,,,,,,,
,,2,1.7017,5,2.6885,7,2.2641,1,1.0369,3,0.1615,0,0,0,0,1,main,4,22,Female,R,Donders,2021-07-08_18h44.04.026,ImageRatingTask_S5,2021.1.4,Win32,60.0240096,,,,,,,,,,,,,,,,,
,,,,,,,,,,,,0,1,1,1,1,second,4,22,Female,R,Donders,2021-07-08_18h44.04.026,ImageRatingTask_S5,2021.1.4,Win32,60.0240096,,,,,,,,,,,,,,,,,
,,,,,,,,,,,,0,2,2,2,1,third,4,22,Female,R,Donders,2021-07-08_18h44.04.026,ImageRatingTask_S5,2021.1.4,Win32,60.0240096,,,,,,,,,,,,,,,,,
,,,,,,,,,,,,0,3,3,3,1,fourth,4,22,Female,R,Donders,2021-07-08_18h44.04.026,ImageRatingTask_S5,2021.1.4,Win32,60.0240096,,,,,,,,,,,,,,,,,
,,,,,,,,,,,,0,4,4,4,1,fifth,4,22,Female,R,Donders,2021-07-08_18h44.04.026,ImageRatingTask_S5,2021.1.4,Win32,60.0240096,,,,,,,,,,,,,,,,,
,,,,,,,,,,,,0,5,5,5,1,sixth,4,22,Female,R,Donders,2021-07-08_18h44.04.026,ImageRatingTask_S5,2021.1.4,Win32,60.0240096,,,,,,,,,,,,,,,,,
,,,,,,,,,,,,0,6,6,6,1,seventh,4,22,Female,R,Donders,2021-07-08_18h44.04.026,ImageRatingTask_S5,2021.1.4,Win32,60.0240096,,,,,,,,,,,,,,,,,
,,,,,,,,,,,,0,7,7,7,1,last,4,22,Female,R,Donders,2021-07-08_18h44.04.026,ImageRatingTask_S5,2021.1.4,Win32,60.0240096,,,,,,,,,,,,,,,,,
,,,,,,,,,,,,,,,,,,4,22,Female,R,Donders,2021-07-08_18h44.04.026,ImageRatingTask_S5,2021.1.4,Win32,60.0240096,0,71,71,104,1,DreamStudyImages_rs1000x750g/Mammals/Animals_012_h.jpg,,,,,,,,,,,
,,5,6.5584,1,1.0651,6,1.4227,1,0.9876,2,0.1307,0,0,0,0,1,main,4,22,Female,R,Donders,2021-07-08_18h44.04.026,ImageRatingTask_S5,2021.1.4,Win32,60.0240096,,,,,,,,,,,,,,,,,
,,,,,,,,,,,,0,1,1,1,1,second,4,22,Female,R,Donders,2021-07-08_18h44.04.026,ImageRatingTask_S5,2021.1.4,Win32,60.0240096,,,,,,,,,,,,,,,,,
,,,,,,,,,,,,0,2,2,2,1,third,4,22,Female,R,Donders,2021-07-08_18h44.04.026,ImageRatingTask_S5,2021.1.4,Win32,60.0240096,,,,,,,,,,,,,,,,,
,,,,,,,,,,,,0,3,3,3,1,fourth,4,22,Female,R,Donders,2021-07-08_18h44.04.026,ImageRatingTask_S5,2021.1.4,Win32,60.0240096,,,,,,,,,,,,,,,,,
,,,,,,,,,,,,0,4,4,4,1,fifth,4,22,Female,R,Donders,2021-07-08_18h44.04.026,ImageRatingTask_S5,2021.1.4,Win32,60.0240096,,,,,,,,,,,,,,,,,
,,,,,,,,,,,,0,5,5,5,1,sixth,4,22,Female,R,Donders,2021-07-08_18h44.04.026,ImageRatingTask_S5,2021.1.4,Win32,60.0240096,,,,,,,,,,,,,,,,,
,,,,,,,,,,,,0,6,6,6,1,seventh,4,22,Female,R,Donders,2021-07-08_18h44.04.026,ImageRatingTask_S5,2021.1.4,Win32,60.0240096,,,,,,,,,,,,,,,,,
,,,,,,,,,,,,0,7,7,7,1,last,4,22,Female,R,Donders,2021-07-08_18h44.04.026,ImageRatingTask_S5,2021.1.4,Win32,60.0240096,,,,,,,,,,,,,,,,,
,,,,,,,,,,,,,,,,,,4,22,Female,R,Donders,2021-07-08_18h44.04.026,ImageRatingTask_S5,2021.1.4,Win32,60.0240096,0,72,72,59,1,DreamStudyImages_rs1000x750g/Children/IAPS2060_baby7.jpg,,,,,,,,,,,
,,5,53.5072,1,0.9352,7,6.1569,1,1.0301,7,0.3635,0,0,0,0,1,main,4,22,Female,R,Donders,2021-07-08_18h44.04.026,ImageRatingTask_S5,2021.1.4,Win32,60.0240096,,,,,,,,,,,,,,,,,
,,,,,,,,,,,,0,1,1,1,1,second,4,22,Female,R,Donders,2021-07-08_18h44.04.026,ImageRatingTask_S5,2021.1.4,Win32,60.0240096,,,,,,,,,,,,,,,,,
,,,,,,,,,,,,0,2,2,2,1,third,4,22,Female,R,Donders,2021-07-08_18h44.04.026,ImageRatingTask_S5,2021.1.4,Win32,60.0240096,,,,,,,,,,,,,,,,,
,,,,,,,,,,,,0,3,3,3,1,fourth,4,22,Female,R,Donders,2021-07-08_18h44.04.026,ImageRatingTask_S5,2021.1.4,Win32,60.0240096,,,,,,,,,,,,,,,,,
,,,,,,,,,,,,0,4,4,4,1,fifth,4,22,Female,R,Donders,2021-07-08_18h44.04.026,ImageRatingTask_S5,2021.1.4,Win32,60.0240096,,,,,,,,,,,,,,,,,
,,,,,,,,,,,,0,5,5,5,1,sixth,4,22,Female,R,Donders,2021-07-08_18h44.04.026,ImageRatingTask_S5,2021.1.4,Win32,60.0240096,,,,,,,,,,,,,,,,,
,,,,,,,,,,,,0,6,6,6,1,seventh,4,22,Female,R,Donders,2021-07-08_18h44.04.026,ImageRatingTask_S5,2021.1.4,Win32,60.0240096,,,,,,,,,,,,,,,,,
,,,,,,,,,,,,0,7,7,7,1,last,4,22,Female,R,Donders,2021-07-08_18h44.04.026,ImageRatingTask_S5,2021.1.4,Win32,60.0240096,,,,,,,,,,,,,,,,,
,,,,,,,,,,,,,,,,,,4,22,Female,R,Donders,2021-07-08_18h44.04.026,ImageRatingTask_S5,2021.1.4,Win32,60.0240096,0,73,73,3,1,DreamStudyImages_rs1000x750g/Vehicles/Objects_322_h.jpg,,,,,,,,,,,
,,1,1.5669,1,2.7773,6,12.0846,1,1.3602,5,0.421,0,0,0,0,1,main,4,22,Female,R,Donders,2021-07-08_18h44.04.026,ImageRatingTask_S5,2021.1.4,Win32,60.0240096,,,,,,,,,,,,,,,,,
,,,,,,,,,,,,0,1,1,1,1,second,4,22,Female,R,Donders,2021-07-08_18h44.04.026,ImageRatingTask_S5,2021.1.4,Win32,60.0240096,,,,,,,,,,,,,,,,,
,,,,,,,,,,,,0,2,2,2,1,third,4,22,Female,R,Donders,2021-07-08_18h44.04.026,ImageRatingTask_S5,2021.1.4,Win32,60.0240096,,,,,,,,,,,,,,,,,
,,,,,,,,,,,,0,3,3,3,1,fourth,4,22,Female,R,Donders,2021-07-08_18h44.04.026,ImageRatingTask_S5,2021.1.4,Win32,60.0240096,,,,,,,,,,,,,,,,,
,,,,,,,,,,,,0,4,4,4,1,fifth,4,22,Female,R,Donders,2021-07-08_18h44.04.026,ImageRatingTask_S5,2021.1.4,Win32,60.0240096,,,,,,,,,,,,,,,,,
,,,,,,,,,,,,0,5,5,5,1,sixth,4,22,Female,R,Donders,2021-07-08_18h44.04.026,ImageRatingTask_S5,2021.1.4,Win32,60.0240096,,,,,,,,,,,,,,,,,
,,,,,,,,,,,,0,6,6,6,1,seventh,4,22,Female,R,Donders,2021-07-08_18h44.04.026,ImageRatingTask_S5,2021.1.4,Win32,60.0240096,,,,,,,,,,,,,,,,,
,,,,,,,,,,,,0,7,7,7,1,last,4,22,Female,R,Donders,2021-07-08_18h44.04.026,ImageRatingTask_S5,2021.1.4,Win32,60.0240096,,,,,,,,,,,,,,,,,
,,,,,,,,,,,,,,,,,,4,22,Female,R,Donders,2021-07-08_18h44.04.026,ImageRatingTask_S5,2021.1.4,Win32,60.0240096,0,74,74,35,1,DreamStudyImages_rs1000x750g/Food/Objects_024_v.jpg,,,,,,,,,,,
,,1,2.0758,6,2.6116,5,2.9612,1,1.1281,3,0.9264,0,0,0,0,1,main,4,22,Female,R,Donders,2021-07-08_18h44.04.026,ImageRatingTask_S5,2021.1.4,Win32,60.0240096,,,,,,,,,,,,,,,,,
,,,,,,,,,,,,0,1,1,1,1,second,4,22,Female,R,Donders,2021-07-08_18h44.04.026,ImageRatingTask_S5,2021.1.4,Win32,60.0240096,,,,,,,,,,,,,,,,,
,,,,,,,,,,,,0,2,2,2,1,third,4,22,Female,R,Donders,2021-07-08_18h44.04.026,ImageRatingTask_S5,2021.1.4,Win32,60.0240096,,,,,,,,,,,,,,,,,
,,,,,,,,,,,,0,3,3,3,1,fourth,4,22,Female,R,Donders,2021-07-08_18h44.04.026,ImageRatingTask_S5,2021.1.4,Win32,60.0240096,,,,,,,,,,,,,,,,,
,,,,,,,,,,,,0,4,4,4,1,fifth,4,22,Female,R,Donders,2021-07-08_18h44.04.026,ImageRatingTask_S5,2021.1.4,Win32,60.0240096,,,,,,,,,,,,,,,,,
,,,,,,,,,,,,0,5,5,5,1,sixth,4,22,Female,R,Donders,2021-07-08_18h44.04.026,ImageRatingTask_S5,2021.1.4,Win32,60.0240096,,,,,,,,,,,,,,,,,
,,,,,,,,,,,,0,6,6,6,1,seventh,4,22,Female,R,Donders,2021-07-08_18h44.04.026,ImageRatingTask_S5,2021.1.4,Win32,60.0240096,,,,,,,,,,,,,,,,,
