test_key_val.keys,test_key_val.rt,test_key_aro.keys,test_key_aro.rt,test_key_qual.keys,test_key_qual.rt,test_key_ncat.keys,test_key_ncat.rt,test_key_cats.keys,test_ncat_order.thisRepN,test_ncat_order.thisTrialN,test_ncat_order.thisN,test_ncat_order.thisIndex,test_ncat_order.ran,cond_cat,participant,age,gender,handedness (L/R),site (IMT/Donders),date,expName,psychopyVersion,OS,frameRate,test_trials.thisRepN,test_trials.thisTrialN,test_trials.thisN,test_trials.thisIndex,test_trials.ran,test_filename,link,copyright,test_key_cats.rt,slider_pre.response,slider_pre.rt,key_val.keys,key_val.rt,key_aro.keys,key_aro.rt,key_qual.keys,key_qual.rt,key_ncat.keys,key_ncat.rt,key_cats.keys,key_cats.rt,ncat_order.thisRepN,ncat_order.thisTrialN,ncat_order.thisN,ncat_order.thisIndex,ncat_order.ran,img_trials.thisRepN,img_trials.thisTrialN,img_trials.thisN,img_trials.thisIndex,img_trials.ran,filename,slider_post.response,slider_post.rt,textbox_openfb.text
5,9.283,1,4.1434,7,4.0166,0,6.1726,,0,0,0,0,1,main,4,22,Female,R,Donders,2021-07-06_15h58.59.573,ImageRatingTask_S1,2021.1.4,Win32,60.07449237,,,,,,,,,,,,,,,,,,,,,,,,,,,,,,,,,,,
,,,,,,,,,0,1,1,1,1,second,4,22,Female,R,Donders,2021-07-06_15h58.59.573,ImageRatingTask_S1,2021.1.4,Win32,60.07449237,,,,,,,,,,,,,,,,,,,,,,,,,,,,,,,,,,,
,,,,,,,,,0,2,2,2,1,third,4,22,Female,R,Donders,2021-07-06_15h58.59.573,ImageRatingTask_S1,2021.1.4,Win32,60.07449237,,,,,,,,,,,,,,,,,,,,,,,,,,,,,,,,,,,
,,,,,,,,,0,3,3,3,1,fourth,4,22,Female,R,Donders,2021-07-06_15h58.59.573,ImageRatingTask_S1,2021.1.4,Win32,60.07449237,,,,,,,,,,,,,,,,,,,,,,,,,,,,,,,,,,,
,,,,,,,,,0,4,4,4,1,fifth,4,22,Female,R,Donders,2021-07-06_15h58.59.573,ImageRatingTask_S1,2021.1.4,Win32,60.07449237,,,,,,,,,,,,,,,,,,,,,,,,,,,,,,,,,,,
,,,,,,,,,0,5,5,5,1,sixth,4,22,Female,R,Donders,2021-07-06_15h58.59.573,ImageRatingTask_S1,2021.1.4,Win32,60.07449237,,,,,,,,,,,,,,,,,,,,,,,,,,,,,,,,,,,
,,,,,,,,,0,6,6,6,1,seventh,4,22,Female,R,Donders,2021-07-06_15h58.59.573,ImageRatingTask_S1,2021.1.4,Win32,60.07449237,,,,,,,,,,,,,,,,,,,,,,,,,,,,,,,,,,,
,,,,,,,,,0,7,7,7,1,last,4,22,Female,R,Donders,2021-07-06_15h58.59.573,ImageRatingTask_S1,2021.1.4,Win32,60.07449237,,,,,,,,,,,,,,,,,,,,,,,,,,,,,,,,,,,
,,,,,,,,,,,,,,,4,22,Female,R,Donders,2021-07-06_15h58.59.573,ImageRatingTask_S1,2021.1.4,Win32,60.07449237,0,0,0,4,1,test5.jpg,https://www.flickr.com/photos/silkebaron/2778692021/in/photolist-5exwk8-CeHF3S-5gg796-95cM2x-LGUrp7-oFgB6-2k7B5QN-aufKzz-hn8Di-8A3htc-8EagiU-4Hvk3Y-2b7s1f8-KSEPr-KSseq-KSrU3-KSu4o-KSsS3-Tp6nDS-KSCUM-VpC5Br-4j8meK-bdrepT-7GRM78-e6Zw96-8cCPed-9ANgBi-oFg73-2GGRxm-5dcivP-7sa8oG-2GGRzW-7CFUnh-3giGx-5Bz4op-3gTuGh-5cSvq6-pUnXj-hwTpWT-48n3iY-e5zg7q-7u7zP8-49195x-3iQDe9-aL7cWX-5exvLk-48n2Yy-toytsg-rw5VR-78NSA2,CC BY 2.0,,,,,,,,,,,,,,,,,,,,,,,,,,,
7,4.6249,1,2.8913,8,2.3952,3,10.9042,8,0,0,0,0,1,main,4,22,Female,R,Donders,2021-07-06_15h58.59.573,ImageRatingTask_S1,2021.1.4,Win32,60.07449237,,,,,,,,,2.404,,,,,,,,,,,,,,,,,,,,,,,,,,
,,,,,,,,1,0,1,1,1,1,second,4,22,Female,R,Donders,2021-07-06_15h58.59.573,ImageRatingTask_S1,2021.1.4,Win32,60.07449237,,,,,,,,,2.2894,,,,,,,,,,,,,,,,,,,,,,,,,,
,,,,,,,,2,0,2,2,2,1,third,4,22,Female,R,Donders,2021-07-06_15h58.59.573,ImageRatingTask_S1,2021.1.4,Win32,60.07449237,,,,,,,,,0.322,,,,,,,,,,,,,,,,,,,,,,,,,,
,,,,,,,,,0,3,3,3,1,fourth,4,22,Female,R,Donders,2021-07-06_15h58.59.573,ImageRatingTask_S1,2021.1.4,Win32,60.07449237,,,,,,,,,,,,,,,,,,,,,,,,,,,,,,,,,,,
,,,,,,,,,0,4,4,4,1,fifth,4,22,Female,R,Donders,2021-07-06_15h58.59.573,ImageRatingTask_S1,2021.1.4,Win32,60.07449237,,,,,,,,,,,,,,,,,,,,,,,,,,,,,,,,,,,
,,,,,,,,,0,5,5,5,1,sixth,4,22,Female,R,Donders,2021-07-06_15h58.59.573,ImageRatingTask_S1,2021.1.4,Win32,60.07449237,,,,,,,,,,,,,,,,,,,,,,,,,,,,,,,,,,,
,,,,,,,,,0,6,6,6,1,seventh,4,22,Female,R,Donders,2021-07-06_15h58.59.573,ImageRatingTask_S1,2021.1.4,Win32,60.07449237,,,,,,,,,,,,,,,,,,,,,,,,,,,,,,,,,,,
,,,,,,,,,0,7,7,7,1,last,4,22,Female,R,Donders,2021-07-06_15h58.59.573,ImageRatingTask_S1,2021.1.4,Win32,60.07449237,,,,,,,,,,,,,,,,,,,,,,,,,,,,,,,,,,,
,,,,,,,,,,,,,,,4,22,Female,R,Donders,2021-07-06_15h58.59.573,ImageRatingTask_S1,2021.1.4,Win32,60.07449237,0,1,1,0,1,test1.jpg,https://www.flickr.com/photos/julzyax1/8713189147/in/photolist-egXnz6-Kg97g6-paYQjg-cDWcvy-e84vQU-fyRQKZ-dzuwVL-nzCPJw-dzp3r6-SXXSvw-aEgXGF-dzp1D8-aEgZ6F-prcoQG-aEgYd8-dt9EJ8-qTHZUL-dX8ut3-6eqh7x-aEkMyA-avjf71-6eqgKg-pNpDbJ-6euqa5-bo2EMC-q8hCLb-od8yyX-daaz4w-26cjVxB-CXaGmV-C7hSHf-aqmunq-9ek8a1-YcbBUe-apPWHB-HnB8rt-pHQLfh-8YgHaC-aqHteN-d5THbj-5dgTxP-afp2aV-8hNoSm-qhSjJS-d5TqoA-98WoKM-cjnSxo-9b4u7a-d5Tnzf-f7AETL,CC BY-NC 2.0,,,,,,,,,,,,,,,,,,,,,,,,,,,
6,15.2954,2,2.4965,4,3.1996,2,8.0818,2,0,0,0,0,1,main,4,22,Female,R,Donders,2021-07-06_15h58.59.573,ImageRatingTask_S1,2021.1.4,Win32,60.07449237,,,,,,,,,1.3664,,,,,,,,,,,,,,,,,,,,,,,,,,
,,,,,,,,5,0,1,1,1,1,second,4,22,Female,R,Donders,2021-07-06_15h58.59.573,ImageRatingTask_S1,2021.1.4,Win32,60.07449237,,,,,,,,,0.5348,,,,,,,,,,,,,,,,,,,,,,,,,,
,,,,,,,,,0,2,2,2,1,third,4,22,Female,R,Donders,2021-07-06_15h58.59.573,ImageRatingTask_S1,2021.1.4,Win32,60.07449237,,,,,,,,,,,,,,,,,,,,,,,,,,,,,,,,,,,
,,,,,,,,,0,3,3,3,1,fourth,4,22,Female,R,Donders,2021-07-06_15h58.59.573,ImageRatingTask_S1,2021.1.4,Win32,60.07449237,,,,,,,,,,,,,,,,,,,,,,,,,,,,,,,,,,,
,,,,,,,,,0,4,4,4,1,fifth,4,22,Female,R,Donders,2021-07-06_15h58.59.573,ImageRatingTask_S1,2021.1.4,Win32,60.07449237,,,,,,,,,,,,,,,,,,,,,,,,,,,,,,,,,,,
,,,,,,,,,0,5,5,5,1,sixth,4,22,Female,R,Donders,2021-07-06_15h58.59.573,ImageRatingTask_S1,2021.1.4,Win32,60.07449237,,,,,,,,,,,,,,,,,,,,,,,,,,,,,,,,,,,
,,,,,,,,,0,6,6,6,1,seventh,4,22,Female,R,Donders,2021-07-06_15h58.59.573,ImageRatingTask_S1,2021.1.4,Win32,60.07449237,,,,,,,,,,,,,,,,,,,,,,,,,,,,,,,,,,,
,,,,,,,,,0,7,7,7,1,last,4,22,Female,R,Donders,2021-07-06_15h58.59.573,ImageRatingTask_S1,2021.1.4,Win32,60.07449237,,,,,,,,,,,,,,,,,,,,,,,,,,,,,,,,,,,
,,,,,,,,,,,,,,,4,22,Female,R,Donders,2021-07-06_15h58.59.573,ImageRatingTask_S1,2021.1.4,Win32,60.07449237,0,2,2,1,1,test2.jpg,https://www.flickr.com/photos/cavalier92/16036265548/,CC BY-NC-ND 2.0,,,,,,,,,,,,,,,,,,,,,,,,,,,
5,4.3123,1,5.6586,7,3.6579,3,9.3377,1,0,0,0,0,1,main,4,22,Female,R,Donders,2021-07-06_15h58.59.573,ImageRatingTask_S1,2021.1.4,Win32,60.07449237,,,,,,,,,2.2463,,,,,,,,,,,,,,,,,,,,,,,,,,
,,,,,,,,4,0,1,1,1,1,second,4,22,Female,R,Donders,2021-07-06_15h58.59.573,ImageRatingTask_S1,2021.1.4,Win32,60.07449237,,,,,,,,,1.3749,,,,,,,,,,,,,,,,,,,,,,,,,,
,,,,,,,,6,0,2,2,2,1,third,4,22,Female,R,Donders,2021-07-06_15h58.59.573,ImageRatingTask_S1,2021.1.4,Win32,60.07449237,,,,,,,,,2.0858,,,,,,,,,,,,,,,,,,,,,,,,,,
,,,,,,,,,0,3,3,3,1,fourth,4,22,Female,R,Donders,2021-07-06_15h58.59.573,ImageRatingTask_S1,2021.1.4,Win32,60.07449237,,,,,,,,,,,,,,,,,,,,,,,,,,,,,,,,,,,
,,,,,,,,,0,4,4,4,1,fifth,4,22,Female,R,Donders,2021-07-06_15h58.59.573,ImageRatingTask_S1,2021.1.4,Win32,60.07449237,,,,,,,,,,,,,,,,,,,,,,,,,,,,,,,,,,,
,,,,,,,,,0,5,5,5,1,sixth,4,22,Female,R,Donders,2021-07-06_15h58.59.573,ImageRatingTask_S1,2021.1.4,Win32,60.07449237,,,,,,,,,,,,,,,,,,,,,,,,,,,,,,,,,,,
,,,,,,,,,0,6,6,6,1,seventh,4,22,Female,R,Donders,2021-07-06_15h58.59.573,ImageRatingTask_S1,2021.1.4,Win32,60.07449237,,,,,,,,,,,,,,,,,,,,,,,,,,,,,,,,,,,
,,,,,,,,,0,7,7,7,1,last,4,22,Female,R,Donders,2021-07-06_15h58.59.573,ImageRatingTask_S1,2021.1.4,Win32,60.07449237,,,,,,,,,,,,,,,,,,,,,,,,,,,,,,,,,,,
,,,,,,,,,,,,,,,4,22,Female,R,Donders,2021-07-06_15h58.59.573,ImageRatingTask_S1,2021.1.4,Win32,60.07449237,0,3,3,2,1,test3.jpg,https://www.flickr.com/photos/7487886@N04/35810127921/in/photolist-WyqgqD-DQSoP-6SrFCE-39ywib-39Bezs-9gt8aT-9gt83Z-eEgA9B-KnLx9-9gt8dK-HXwdie-2b6FA2g-4ekt5k-9ECfRg-2Zr5GQ-2Zr5mC-2Zr6kW-2Zr5Xu-2Zmyac-98TgbK-7U5XRj-am4oXb-98ThEB-2Bw3gh-vXo6D-Wt9U8o-DGiErb-DGiEqE-2m3CpV6-6E2aGG-6DXgqc-4PC3pQ-6HwMbx-dHYvkg-a2ycs-JLvMv-7k6DhM-bA81AL-8zwPFe-5nMrZu-3Ep2da-nhhd2L-DvDkr-81RkjZ-E1HXA-GzGH8Z-83vZYf-9krgXK-5nMxuU-DGiEqu,CC BY-NC 2.0,,,,,,,,,,,,,,,,,,,,,,,,,,,
5,6.0589,1,1.4279,6,2.7756,1,5.051,7,0,0,0,0,1,main,4,22,Female,R,Donders,2021-07-06_15h58.59.573,ImageRatingTask_S1,2021.1.4,Win32,60.07449237,,,,,,,,,0.9201,,,,,,,,,,,,,,,,,,,,,,,,,,
,,,,,,,,,0,1,1,1,1,second,4,22,Female,R,Donders,2021-07-06_15h58.59.573,ImageRatingTask_S1,2021.1.4,Win32,60.07449237,,,,,,,,,,,,,,,,,,,,,,,,,,,,,,,,,,,
,,,,,,,,,0,2,2,2,1,third,4,22,Female,R,Donders,2021-07-06_15h58.59.573,ImageRatingTask_S1,2021.1.4,Win32,60.07449237,,,,,,,,,,,,,,,,,,,,,,,,,,,,,,,,,,,
,,,,,,,,,0,3,3,3,1,fourth,4,22,Female,R,Donders,2021-07-06_15h58.59.573,ImageRatingTask_S1,2021.1.4,Win32,60.07449237,,,,,,,,,,,,,,,,,,,,,,,,,,,,,,,,,,,
,,,,,,,,,0,4,4,4,1,fifth,4,22,Female,R,Donders,2021-07-06_15h58.59.573,ImageRatingTask_S1,2021.1.4,Win32,60.07449237,,,,,,,,,,,,,,,,,,,,,,,,,,,,,,,,,,,
,,,,,,,,,0,5,5,5,1,sixth,4,22,Female,R,Donders,2021-07-06_15h58.59.573,ImageRatingTask_S1,2021.1.4,Win32,60.07449237,,,,,,,,,,,,,,,,,,,,,,,,,,,,,,,,,,,
,,,,,,,,,0,6,6,6,1,seventh,4,22,Female,R,Donders,2021-07-06_15h58.59.573,ImageRatingTask_S1,2021.1.4,Win32,60.07449237,,,,,,,,,,,,,,,,,,,,,,,,,,,,,,,,,,,
,,,,,,,,,0,7,7,7,1,last,4,22,Female,R,Donders,2021-07-06_15h58.59.573,ImageRatingTask_S1,2021.1.4,Win32,60.07449237,,,,,,,,,,,,,,,,,,,,,,,,,,,,,,,,,,,
,,,,,,,,,,,,,,,4,22,Female,R,Donders,2021-07-06_15h58.59.573,ImageRatingTask_S1,2021.1.4,Win32,60.07449237,0,4,4,3,1,test4.jpg,https://www.flickr.com/photos/8782469@N05/33550256294/in/photolist-T7HQjJ-6bL62X-gQ2ptt-eARbhf-dbgLvQ-uKUpgG-e6GNPD-e6iDuV-RwYJie-Ur28At-u6Dvwk-fwts3x-CgqS5E-dgJSNE-fwHPg9-bFQoWv-9qgCN-TQZT7E-475QF-v3ZBG9-v5TFQL-aQVeNV-49XCzE-e5Va7j-v3WosE-5jvzS-cBxjA5-fwJ2P3-TP86kq-eREpVC-rMTQZx-Um3k-ajziHj-CgqSzN-dgP2Ci-e6putY-652ZqG-eARzQm-6ikz1-vrGjvh-Chgvpm-pFFnYq-8bKoVw-eAsukg-daANXC-MwMMfW-5ArWsa-GMcDmn-bLo6CH-9KgagR,CC BY 2.0,,,,,,,,,,,,,,,,,,,,,,,,,,,
,,,,,,,,,,,,,,main,4,22,Female,R,Donders,2021-07-06_15h58.59.573,ImageRatingTask_S1,2021.1.4,Win32,60.07449237,,,,,,,,,,6,10.1123,4,5.2978,2,3.8442,7,2.2664,1,5.3552,5,0.7486,0,0,0,0,1,,,,,,,,,
,,,,,,,,,,,,,,second,4,22,Female,R,Donders,2021-07-06_15h58.59.573,ImageRatingTask_S1,2021.1.4,Win32,60.07449237,,,,,,,,,,,,,,,,,,,,,,0,1,1,1,1,,,,,,,,,
,,,,,,,,,,,,,,third,4,22,Female,R,Donders,2021-07-06_15h58.59.573,ImageRatingTask_S1,2021.1.4,Win32,60.07449237,,,,,,,,,,,,,,,,,,,,,,0,2,2,2,1,,,,,,,,,
,,,,,,,,,,,,,,fourth,4,22,Female,R,Donders,2021-07-06_15h58.59.573,ImageRatingTask_S1,2021.1.4,Win32,60.07449237,,,,,,,,,,,,,,,,,,,,,,0,3,3,3,1,,,,,,,,,
,,,,,,,,,,,,,,fifth,4,22,Female,R,Donders,2021-07-06_15h58.59.573,ImageRatingTask_S1,2021.1.4,Win32,60.07449237,,,,,,,,,,,,,,,,,,,,,,0,4,4,4,1,,,,,,,,,
,,,,,,,,,,,,,,sixth,4,22,Female,R,Donders,2021-07-06_15h58.59.573,ImageRatingTask_S1,2021.1.4,Win32,60.07449237,,,,,,,,,,,,,,,,,,,,,,0,5,5,5,1,,,,,,,,,
,,,,,,,,,,,,,,seventh,4,22,Female,R,Donders,2021-07-06_15h58.59.573,ImageRatingTask_S1,2021.1.4,Win32,60.07449237,,,,,,,,,,,,,,,,,,,,,,0,6,6,6,1,,,,,,,,,
,,,,,,,,,,,,,,last,4,22,Female,R,Donders,2021-07-06_15h58.59.573,ImageRatingTask_S1,2021.1.4,Win32,60.07449237,,,,,,,,,,,,,,,,,,,,,,0,7,7,7,1,,,,,,,,,
,,,,,,,,,,,,,,,4,22,Female,R,Donders,2021-07-06_15h58.59.573,ImageRatingTask_S1,2021.1.4,Win32,60.07449237,,,,,,,,,,,,,,,,,,,,,,,,,,,0,0,0,139,1,DreamStudyImages_rs1000x750g/Food/IAPS7477_sushi.jpg,,,
,,,,,,,,,,,,,,main,4,22,Female,R,Donders,2021-07-06_15h58.59.573,ImageRatingTask_S1,2021.1.4,Win32,60.07449237,,,,,,,,,,,,3,7.0623,3,1.7447,6,2.4089,3,8.0674,8,2.5668,0,0,0,0,1,,,,,,,,,
,,,,,,,,,,,,,,second,4,22,Female,R,Donders,2021-07-06_15h58.59.573,ImageRatingTask_S1,2021.1.4,Win32,60.07449237,,,,,,,,,,,,,,,,,,,,7,2.5558,0,1,1,1,1,,,,,,,,,
,,,,,,,,,,,,,,third,4,22,Female,R,Donders,2021-07-06_15h58.59.573,ImageRatingTask_S1,2021.1.4,Win32,60.07449237,,,,,,,,,,,,,,,,,,,,6,0.7177,0,2,2,2,1,,,,,,,,,
,,,,,,,,,,,,,,fourth,4,22,Female,R,Donders,2021-07-06_15h58.59.573,ImageRatingTask_S1,2021.1.4,Win32,60.07449237,,,,,,,,,,,,,,,,,,,,,,0,3,3,3,1,,,,,,,,,
,,,,,,,,,,,,,,fifth,4,22,Female,R,Donders,2021-07-06_15h58.59.573,ImageRatingTask_S1,2021.1.4,Win32,60.07449237,,,,,,,,,,,,,,,,,,,,,,0,4,4,4,1,,,,,,,,,
,,,,,,,,,,,,,,sixth,4,22,Female,R,Donders,2021-07-06_15h58.59.573,ImageRatingTask_S1,2021.1.4,Win32,60.07449237,,,,,,,,,,,,,,,,,,,,,,0,5,5,5,1,,,,,,,,,
,,,,,,,,,,,,,,seventh,4,22,Female,R,Donders,2021-07-06_15h58.59.573,ImageRatingTask_S1,2021.1.4,Win32,60.07449237,,,,,,,,,,,,,,,,,,,,,,0,6,6,6,1,,,,,,,,,
,,,,,,,,,,,,,,last,4,22,Female,R,Donders,2021-07-06_15h58.59.573,ImageRatingTask_S1,2021.1.4,Win32,60.07449237,,,,,,,,,,,,,,,,,,,,,,0,7,7,7,1,,,,,,,,,
,,,,,,,,,,,,,,,4,22,Female,R,Donders,2021-07-06_15h58.59.573,ImageRatingTask_S1,2021.1.4,Win32,60.07449237,,,,,,,,,,,,,,,,,,,,,,,,,,,0,1,1,145,1,DreamStudyImages_rs1000x750g/Water/16_CHECK.jpg,,,
,,,,,,,,,,,,,,main,4,22,Female,R,Donders,2021-07-06_15h58.59.573,ImageRatingTask_S1,2021.1.4,Win32,60.07449237,,,,,,,,,,,,4,13.4531,4,1.8252,7,2.1793,1,3.5679,7,0.815,0,0,0,0,1,,,,,,,,,
,,,,,,,,,,,,,,second,4,22,Female,R,Donders,2021-07-06_15h58.59.573,ImageRatingTask_S1,2021.1.4,Win32,60.07449237,,,,,,,,,,,,,,,,,,,,,,0,1,1,1,1,,,,,,,,,
,,,,,,,,,,,,,,third,4,22,Female,R,Donders,2021-07-06_15h58.59.573,ImageRatingTask_S1,2021.1.4,Win32,60.07449237,,,,,,,,,,,,,,,,,,,,,,0,2,2,2,1,,,,,,,,,
,,,,,,,,,,,,,,fourth,4,22,Female,R,Donders,2021-07-06_15h58.59.573,ImageRatingTask_S1,2021.1.4,Win32,60.07449237,,,,,,,,,,,,,,,,,,,,,,0,3,3,3,1,,,,,,,,,
,,,,,,,,,,,,,,fifth,4,22,Female,R,Donders,2021-07-06_15h58.59.573,ImageRatingTask_S1,2021.1.4,Win32,60.07449237,,,,,,,,,,,,,,,,,,,,,,0,4,4,4,1,,,,,,,,,
,,,,,,,,,,,,,,sixth,4,22,Female,R,Donders,2021-07-06_15h58.59.573,ImageRatingTask_S1,2021.1.4,Win32,60.07449237,,,,,,,,,,,,,,,,,,,,,,0,5,5,5,1,,,,,,,,,
,,,,,,,,,,,,,,seventh,4,22,Female,R,Donders,2021-07-06_15h58.59.573,ImageRatingTask_S1,2021.1.4,Win32,60.07449237,,,,,,,,,,,,,,,,,,,,,,0,6,6,6,1,,,,,,,,,
,,,,,,,,,,,,,,last,4,22,Female,R,Donders,2021-07-06_15h58.59.573,ImageRatingTask_S1,2021.1.4,Win32,60.07449237,,,,,,,,,,,,,,,,,,,,,,0,7,7,7,1,,,,,,,,,
,,,,,,,,,,,,,,,4,22,Female,R,Donders,2021-07-06_15h58.59.573,ImageRatingTask_S1,2021.1.4,Win32,60.07449237,,,,,,,,,,,,,,,,,,,,,,,,,,,0,2,2,8,1,DreamStudyImages_rs1000x750g/Vehicles/Objects_290_h.jpg,,,
,,,,,,,,,,,,,,main,4,22,Female,R,Donders,2021-07-06_15h58.59.573,ImageRatingTask_S1,2021.1.4,Win32,60.07449237,,,,,,,,,,,,5,3.0587,4,1.6782,7,1.9388,1,4.4415,4,1.2364,0,0,0,0,1,,,,,,,,,
,,,,,,,,,,,,,,second,4,22,Female,R,Donders,2021-07-06_15h58.59.573,ImageRatingTask_S1,2021.1.4,Win32,60.07449237,,,,,,,,,,,,,,,,,,,,,,0,1,1,1,1,,,,,,,,,
,,,,,,,,,,,,,,third,4,22,Female,R,Donders,2021-07-06_15h58.59.573,ImageRatingTask_S1,2021.1.4,Win32,60.07449237,,,,,,,,,,,,,,,,,,,,,,0,2,2,2,1,,,,,,,,,
,,,,,,,,,,,,,,fourth,4,22,Female,R,Donders,2021-07-06_15h58.59.573,ImageRatingTask_S1,2021.1.4,Win32,60.07449237,,,,,,,,,,,,,,,,,,,,,,0,3,3,3,1,,,,,,,,,
,,,,,,,,,,,,,,fifth,4,22,Female,R,Donders,2021-07-06_15h58.59.573,ImageRatingTask_S1,2021.1.4,Win32,60.07449237,,,,,,,,,,,,,,,,,,,,,,0,4,4,4,1,,,,,,,,,
,,,,,,,,,,,,,,sixth,4,22,Female,R,Donders,2021-07-06_15h58.59.573,ImageRatingTask_S1,2021.1.4,Win32,60.07449237,,,,,,,,,,,,,,,,,,,,,,0,5,5,5,1,,,,,,,,,
,,,,,,,,,,,,,,seventh,4,22,Female,R,Donders,2021-07-06_15h58.59.573,ImageRatingTask_S1,2021.1.4,Win32,60.07449237,,,,,,,,,,,,,,,,,,,,,,0,6,6,6,1,,,,,,,,,
,,,,,,,,,,,,,,last,4,22,Female,R,Donders,2021-07-06_15h58.59.573,ImageRatingTask_S1,2021.1.4,Win32,60.07449237,,,,,,,,,,,,,,,,,,,,,,0,7,7,7,1,,,,,,,,,
,,,,,,,,,,,,,,,4,22,Female,R,Donders,2021-07-06_15h58.59.573,ImageRatingTask_S1,2021.1.4,Win32,60.07449237,,,,,,,,,,,,,,,,,,,,,,,,,,,0,3,3,105,1,DreamStudyImages_rs1000x750g/Mammals/Animals_087_h.jpg,,,
,,,,,,,,,,,,,,main,4,22,Female,R,Donders,2021-07-06_15h58.59.573,ImageRatingTask_S1,2021.1.4,Win32,60.07449237,,,,,,,,,,,,3,4.9425,7,3.577,7,2.7503,0,7.6257,,,0,0,0,0,1,,,,,,,,,
,,,,,,,,,,,,,,second,4,22,Female,R,Donders,2021-07-06_15h58.59.573,ImageRatingTask_S1,2021.1.4,Win32,60.07449237,,,,,,,,,,,,,,,,,,,,,,0,1,1,1,1,,,,,,,,,
,,,,,,,,,,,,,,third,4,22,Female,R,Donders,2021-07-06_15h58.59.573,ImageRatingTask_S1,2021.1.4,Win32,60.07449237,,,,,,,,,,,,,,,,,,,,,,0,2,2,2,1,,,,,,,,,
,,,,,,,,,,,,,,fourth,4,22,Female,R,Donders,2021-07-06_15h58.59.573,ImageRatingTask_S1,2021.1.4,Win32,60.07449237,,,,,,,,,,,,,,,,,,,,,,0,3,3,3,1,,,,,,,,,
,,,,,,,,,,,,,,fifth,4,22,Female,R,Donders,2021-07-06_15h58.59.573,ImageRatingTask_S1,2021.1.4,Win32,60.07449237,,,,,,,,,,,,,,,,,,,,,,0,4,4,4,1,,,,,,,,,
,,,,,,,,,,,,,,sixth,4,22,Female,R,Donders,2021-07-06_15h58.59.573,ImageRatingTask_S1,2021.1.4,Win32,60.07449237,,,,,,,,,,,,,,,,,,,,,,0,5,5,5,1,,,,,,,,,
,,,,,,,,,,,,,,seventh,4,22,Female,R,Donders,2021-07-06_15h58.59.573,ImageRatingTask_S1,2021.1.4,Win32,60.07449237,,,,,,,,,,,,,,,,,,,,,,0,6,6,6,1,,,,,,,,,
,,,,,,,,,,,,,,last,4,22,Female,R,Donders,2021-07-06_15h58.59.573,ImageRatingTask_S1,2021.1.4,Win32,60.07449237,,,,,,,,,,,,,,,,,,,,,,0,7,7,7,1,,,,,,,,,
,,,,,,,,,,,,,,,4,22,Female,R,Donders,2021-07-06_15h58.59.573,ImageRatingTask_S1,2021.1.4,Win32,60.07449237,,,,,,,,,,,,,,,,,,,,,,,,,,,0,4,4,148,1,DreamStudyImages_rs1000x750g/Food/food_neg_5.jpg,,,
,,,,,,,,,,,,,,main,4,22,Female,R,Donders,2021-07-06_15h58.59.573,ImageRatingTask_S1,2021.1.4,Win32,60.07449237,,,,,,,,,,,,6,2.8399,2,3.0437,5,3.0215,1,2.7983,5,1.072,0,0,0,0,1,,,,,,,,,
,,,,,,,,,,,,,,second,4,22,Female,R,Donders,2021-07-06_15h58.59.573,ImageRatingTask_S1,2021.1.4,Win32,60.07449237,,,,,,,,,,,,,,,,,,,,,,0,1,1,1,1,,,,,,,,,
,,,,,,,,,,,,,,third,4,22,Female,R,Donders,2021-07-06_15h58.59.573,ImageRatingTask_S1,2021.1.4,Win32,60.07449237,,,,,,,,,,,,,,,,,,,,,,0,2,2,2,1,,,,,,,,,
,,,,,,,,,,,,,,fourth,4,22,Female,R,Donders,2021-07-06_15h58.59.573,ImageRatingTask_S1,2021.1.4,Win32,60.07449237,,,,,,,,,,,,,,,,,,,,,,0,3,3,3,1,,,,,,,,,
,,,,,,,,,,,,,,fifth,4,22,Female,R,Donders,2021-07-06_15h58.59.573,ImageRatingTask_S1,2021.1.4,Win32,60.07449237,,,,,,,,,,,,,,,,,,,,,,0,4,4,4,1,,,,,,,,,
,,,,,,,,,,,,,,sixth,4,22,Female,R,Donders,2021-07-06_15h58.59.573,ImageRatingTask_S1,2021.1.4,Win32,60.07449237,,,,,,,,,,,,,,,,,,,,,,0,5,5,5,1,,,,,,,,,
,,,,,,,,,,,,,,seventh,4,22,Female,R,Donders,2021-07-06_15h58.59.573,ImageRatingTask_S1,2021.1.4,Win32,60.07449237,,,,,,,,,,,,,,,,,,,,,,0,6,6,6,1,,,,,,,,,
,,,,,,,,,,,,,,last,4,22,Female,R,Donders,2021-07-06_15h58.59.573,ImageRatingTask_S1,2021.1.4,Win32,60.07449237,,,,,,,,,,,,,,,,,,,,,,0,7,7,7,1,,,,,,,,,
,,,,,,,,,,,,,,,4,22,Female,R,Donders,2021-07-06_15h58.59.573,ImageRatingTask_S1,2021.1.4,Win32,60.07449237,,,,,,,,,,,,,,,,,,,,,,,,,,,0,5,5,120,1,DreamStudyImages_rs1000x750g/Food/IAPS7330_dessert3.jpg,,,
,,,,,,,,,,,,,,main,4,22,Female,R,Donders,2021-07-06_15h58.59.573,ImageRatingTask_S1,2021.1.4,Win32,60.07449237,,,,,,,,,,,,5,4.0357,1,1.6936,7,2.077,1,6.7325,8,0.7115,0,0,0,0,1,,,,,,,,,
,,,,,,,,,,,,,,second,4,22,Female,R,Donders,2021-07-06_15h58.59.573,ImageRatingTask_S1,2021.1.4,Win32,60.07449237,,,,,,,,,,,,,,,,,,,,,,0,1,1,1,1,,,,,,,,,
,,,,,,,,,,,,,,third,4,22,Female,R,Donders,2021-07-06_15h58.59.573,ImageRatingTask_S1,2021.1.4,Win32,60.07449237,,,,,,,,,,,,,,,,,,,,,,0,2,2,2,1,,,,,,,,,
,,,,,,,,,,,,,,fourth,4,22,Female,R,Donders,2021-07-06_15h58.59.573,ImageRatingTask_S1,2021.1.4,Win32,60.07449237,,,,,,,,,,,,,,,,,,,,,,0,3,3,3,1,,,,,,,,,
,,,,,,,,,,,,,,fifth,4,22,Female,R,Donders,2021-07-06_15h58.59.573,ImageRatingTask_S1,2021.1.4,Win32,60.07449237,,,,,,,,,,,,,,,,,,,,,,0,4,4,4,1,,,,,,,,,
,,,,,,,,,,,,,,sixth,4,22,Female,R,Donders,2021-07-06_15h58.59.573,ImageRatingTask_S1,2021.1.4,Win32,60.07449237,,,,,,,,,,,,,,,,,,,,,,0,5,5,5,1,,,,,,,,,
,,,,,,,,,,,,,,seventh,4,22,Female,R,Donders,2021-07-06_15h58.59.573,ImageRatingTask_S1,2021.1.4,Win32,60.07449237,,,,,,,,,,,,,,,,,,,,,,0,6,6,6,1,,,,,,,,,
,,,,,,,,,,,,,,last,4,22,Female,R,Donders,2021-07-06_15h58.59.573,ImageRatingTask_S1,2021.1.4,Win32,60.07449237,,,,,,,,,,,,,,,,,,,,,,0,7,7,7,1,,,,,,,,,
,,,,,,,,,,,,,,,4,22,Female,R,Donders,2021-07-06_15h58.59.573,ImageRatingTask_S1,2021.1.4,Win32,60.07449237,,,,,,,,,,,,,,,,,,,,,,,,,,,0,6,6,60,1,DreamStudyImages_rs1000x750g/Water/Landscapes_009_h.jpg,,,
,,,,,,,,,,,,,,main,4,22,Female,R,Donders,2021-07-06_15h58.59.573,ImageRatingTask_S1,2021.1.4,Win32,60.07449237,,,,,,,,,,,,2,4.3424,6,2.1996,7,2.5908,1,8.37,3,1.1695,0,0,0,0,1,,,,,,,,,
,,,,,,,,,,,,,,second,4,22,Female,R,Donders,2021-07-06_15h58.59.573,ImageRatingTask_S1,2021.1.4,Win32,60.07449237,,,,,,,,,,,,,,,,,,,,,,0,1,1,1,1,,,,,,,,,
,,,,,,,,,,,,,,third,4,22,Female,R,Donders,2021-07-06_15h58.59.573,ImageRatingTask_S1,2021.1.4,Win32,60.07449237,,,,,,,,,,,,,,,,,,,,,,0,2,2,2,1,,,,,,,,,
,,,,,,,,,,,,,,fourth,4,22,Female,R,Donders,2021-07-06_15h58.59.573,ImageRatingTask_S1,2021.1.4,Win32,60.07449237,,,,,,,,,,,,,,,,,,,,,,0,3,3,3,1,,,,,,,,,
,,,,,,,,,,,,,,fifth,4,22,Female,R,Donders,2021-07-06_15h58.59.573,ImageRatingTask_S1,2021.1.4,Win32,60.07449237,,,,,,,,,,,,,,,,,,,,,,0,4,4,4,1,,,,,,,,,
,,,,,,,,,,,,,,sixth,4,22,Female,R,Donders,2021-07-06_15h58.59.573,ImageRatingTask_S1,2021.1.4,Win32,60.07449237,,,,,,,,,,,,,,,,,,,,,,0,5,5,5,1,,,,,,,,,
,,,,,,,,,,,,,,seventh,4,22,Female,R,Donders,2021-07-06_15h58.59.573,ImageRatingTask_S1,2021.1.4,Win32,60.07449237,,,,,,,,,,,,,,,,,,,,,,0,6,6,6,1,,,,,,,,,
,,,,,,,,,,,,,,last,4,22,Female,R,Donders,2021-07-06_15h58.59.573,ImageRatingTask_S1,2021.1.4,Win32,60.07449237,,,,,,,,,,,,,,,,,,,,,,0,7,7,7,1,,,,,,,,,
,,,,,,,,,,,,,,,4,22,Female,R,Donders,2021-07-06_15h58.59.573,ImageRatingTask_S1,2021.1.4,Win32,60.07449237,,,,,,,,,,,,,,,,,,,,,,,,,,,0,7,7,115,1,DreamStudyImages_rs1000x750g/Mammals/Animals_013_h.jpg,,,
,,,,,,,,,,,,,,main,4,22,Female,R,Donders,2021-07-06_15h58.59.573,ImageRatingTask_S1,2021.1.4,Win32,60.07449237,,,,,,,,,,,,6,5.4543,1,4.5376,6,2.4121,1,7.2467,3,1.6762,0,0,0,0,1,,,,,,,,,
,,,,,,,,,,,,,,second,4,22,Female,R,Donders,2021-07-06_15h58.59.573,ImageRatingTask_S1,2021.1.4,Win32,60.07449237,,,,,,,,,,,,,,,,,,,,,,0,1,1,1,1,,,,,,,,,
,,,,,,,,,,,,,,third,4,22,Female,R,Donders,2021-07-06_15h58.59.573,ImageRatingTask_S1,2021.1.4,Win32,60.07449237,,,,,,,,,,,,,,,,,,,,,,0,2,2,2,1,,,,,,,,,
,,,,,,,,,,,,,,fourth,4,22,Female,R,Donders,2021-07-06_15h58.59.573,ImageRatingTask_S1,2021.1.4,Win32,60.07449237,,,,,,,,,,,,,,,,,,,,,,0,3,3,3,1,,,,,,,,,
,,,,,,,,,,,,,,fifth,4,22,Female,R,Donders,2021-07-06_15h58.59.573,ImageRatingTask_S1,2021.1.4,Win32,60.07449237,,,,,,,,,,,,,,,,,,,,,,0,4,4,4,1,,,,,,,,,
,,,,,,,,,,,,,,sixth,4,22,Female,R,Donders,2021-07-06_15h58.59.573,ImageRatingTask_S1,2021.1.4,Win32,60.07449237,,,,,,,,,,,,,,,,,,,,,,0,5,5,5,1,,,,,,,,,
,,,,,,,,,,,,,,seventh,4,22,Female,R,Donders,2021-07-06_15h58.59.573,ImageRatingTask_S1,2021.1.4,Win32,60.07449237,,,,,,,,,,,,,,,,,,,,,,0,6,6,6,1,,,,,,,,,
,,,,,,,,,,,,,,last,4,22,Female,R,Donders,2021-07-06_15h58.59.573,ImageRatingTask_S1,2021.1.4,Win32,60.07449237,,,,,,,,,,,,,,,,,,,,,,0,7,7,7,1,,,,,,,,,
,,,,,,,,,,,,,,,4,22,Female,R,Donders,2021-07-06_15h58.59.573,ImageRatingTask_S1,2021.1.4,Win32,60.07449237,,,,,,,,,,,,,,,,,,,,,,,,,,,0,8,8,87,1,DreamStudyImages_rs1000x750g/Mammals/Animals_158_h.jpg,,,
,,,,,,,,,,,,,,main,4,22,Female,R,Donders,2021-07-06_15h58.59.573,ImageRatingTask_S1,2021.1.4,Win32,60.07449237,,,,,,,,,,,,5,3.3349,2,1.8434,8,2.5779,1,3.1776,5,1.0348,0,0,0,0,1,,,,,,,,,
,,,,,,,,,,,,,,second,4,22,Female,R,Donders,2021-07-06_15h58.59.573,ImageRatingTask_S1,2021.1.4,Win32,60.07449237,,,,,,,,,,,,,,,,,,,,,,0,1,1,1,1,,,,,,,,,
,,,,,,,,,,,,,,third,4,22,Female,R,Donders,2021-07-06_15h58.59.573,ImageRatingTask_S1,2021.1.4,Win32,60.07449237,,,,,,,,,,,,,,,,,,,,,,0,2,2,2,1,,,,,,,,,
,,,,,,,,,,,,,,fourth,4,22,Female,R,Donders,2021-07-06_15h58.59.573,ImageRatingTask_S1,2021.1.4,Win32,60.07449237,,,,,,,,,,,,,,,,,,,,,,0,3,3,3,1,,,,,,,,,
,,,,,,,,,,,,,,fifth,4,22,Female,R,Donders,2021-07-06_15h58.59.573,ImageRatingTask_S1,2021.1.4,Win32,60.07449237,,,,,,,,,,,,,,,,,,,,,,0,4,4,4,1,,,,,,,,,
,,,,,,,,,,,,,,sixth,4,22,Female,R,Donders,2021-07-06_15h58.59.573,ImageRatingTask_S1,2021.1.4,Win32,60.07449237,,,,,,,,,,,,,,,,,,,,,,0,5,5,5,1,,,,,,,,,
,,,,,,,,,,,,,,seventh,4,22,Female,R,Donders,2021-07-06_15h58.59.573,ImageRatingTask_S1,2021.1.4,Win32,60.07449237,,,,,,,,,,,,,,,,,,,,,,0,6,6,6,1,,,,,,,,,
,,,,,,,,,,,,,,last,4,22,Female,R,Donders,2021-07-06_15h58.59.573,ImageRatingTask_S1,2021.1.4,Win32,60.07449237,,,,,,,,,,,,,,,,,,,,,,0,7,7,7,1,,,,,,,,,
,,,,,,,,,,,,,,,4,22,Female,R,Donders,2021-07-06_15h58.59.573,ImageRatingTask_S1,2021.1.4,Win32,60.07449237,,,,,,,,,,,,,,,,,,,,,,,,,,,0,9,9,59,1,DreamStudyImages_rs1000x750g/Food/Objects_064_v.jpg,,,
,,,,,,,,,,,,,,main,4,22,Female,R,Donders,2021-07-06_15h58.59.573,ImageRatingTask_S1,2021.1.4,Win32,60.07449237,,,,,,,,,,,,6,8.8108,3,2.008,6,2.367,1,3.0667,3,0.9952,0,0,0,0,1,,,,,,,,,
,,,,,,,,,,,,,,second,4,22,Female,R,Donders,2021-07-06_15h58.59.573,ImageRatingTask_S1,2021.1.4,Win32,60.07449237,,,,,,,,,,,,,,,,,,,,,,0,1,1,1,1,,,,,,,,,
,,,,,,,,,,,,,,third,4,22,Female,R,Donders,2021-07-06_15h58.59.573,ImageRatingTask_S1,2021.1.4,Win32,60.07449237,,,,,,,,,,,,,,,,,,,,,,0,2,2,2,1,,,,,,,,,
,,,,,,,,,,,,,,fourth,4,22,Female,R,Donders,2021-07-06_15h58.59.573,ImageRatingTask_S1,2021.1.4,Win32,60.07449237,,,,,,,,,,,,,,,,,,,,,,0,3,3,3,1,,,,,,,,,
,,,,,,,,,,,,,,fifth,4,22,Female,R,Donders,2021-07-06_15h58.59.573,ImageRatingTask_S1,2021.1.4,Win32,60.07449237,,,,,,,,,,,,,,,,,,,,,,0,4,4,4,1,,,,,,,,,
,,,,,,,,,,,,,,sixth,4,22,Female,R,Donders,2021-07-06_15h58.59.573,ImageRatingTask_S1,2021.1.4,Win32,60.07449237,,,,,,,,,,,,,,,,,,,,,,0,5,5,5,1,,,,,,,,,
,,,,,,,,,,,,,,seventh,4,22,Female,R,Donders,2021-07-06_15h58.59.573,ImageRatingTask_S1,2021.1.4,Win32,60.07449237,,,,,,,,,,,,,,,,,,,,,,0,6,6,6,1,,,,,,,,,
,,,,,,,,,,,,,,last,4,22,Female,R,Donders,2021-07-06_15h58.59.573,ImageRatingTask_S1,2021.1.4,Win32,60.07449237,,,,,,,,,,,,,,,,,,,,,,0,7,7,7,1,,,,,,,,,
,,,,,,,,,,,,,,,4,22,Female,R,Donders,2021-07-06_15h58.59.573,ImageRatingTask_S1,2021.1.4,Win32,60.07449237,,,,,,,,,,,,,,,,,,,,,,,,,,,0,10,10,158,1,DreamStudyImages_rs1000x750g/Mammals/IAPS1460_babycat.jpg,,,
,,,,,,,,,,,,,,main,4,22,Female,R,Donders,2021-07-06_15h58.59.573,ImageRatingTask_S1,2021.1.4,Win32,60.07449237,,,,,,,,,,,,4,5.8541,1,1.6179,6,4.0494,1,2.886,8,0.837,0,0,0,0,1,,,,,,,,,
,,,,,,,,,,,,,,second,4,22,Female,R,Donders,2021-07-06_15h58.59.573,ImageRatingTask_S1,2021.1.4,Win32,60.07449237,,,,,,,,,,,,,,,,,,,,,,0,1,1,1,1,,,,,,,,,
,,,,,,,,,,,,,,third,4,22,Female,R,Donders,2021-07-06_15h58.59.573,ImageRatingTask_S1,2021.1.4,Win32,60.07449237,,,,,,,,,,,,,,,,,,,,,,0,2,2,2,1,,,,,,,,,
,,,,,,,,,,,,,,fourth,4,22,Female,R,Donders,2021-07-06_15h58.59.573,ImageRatingTask_S1,2021.1.4,Win32,60.07449237,,,,,,,,,,,,,,,,,,,,,,0,3,3,3,1,,,,,,,,,
,,,,,,,,,,,,,,fifth,4,22,Female,R,Donders,2021-07-06_15h58.59.573,ImageRatingTask_S1,2021.1.4,Win32,60.07449237,,,,,,,,,,,,,,,,,,,,,,0,4,4,4,1,,,,,,,,,
,,,,,,,,,,,,,,sixth,4,22,Female,R,Donders,2021-07-06_15h58.59.573,ImageRatingTask_S1,2021.1.4,Win32,60.07449237,,,,,,,,,,,,,,,,,,,,,,0,5,5,5,1,,,,,,,,,
,,,,,,,,,,,,,,seventh,4,22,Female,R,Donders,2021-07-06_15h58.59.573,ImageRatingTask_S1,2021.1.4,Win32,60.07449237,,,,,,,,,,,,,,,,,,,,,,0,6,6,6,1,,,,,,,,,
,,,,,,,,,,,,,,last,4,22,Female,R,Donders,2021-07-06_15h58.59.573,ImageRatingTask_S1,2021.1.4,Win32,60.07449237,,,,,,,,,,,,,,,,,,,,,,0,7,7,7,1,,,,,,,,,
,,,,,,,,,,,,,,,4,22,Female,R,Donders,2021-07-06_15h58.59.573,ImageRatingTask_S1,2021.1.4,Win32,60.07449237,,,,,,,,,,,,,,,,,,,,,,,,,,,0,11,11,73,1,DreamStudyImages_rs1000x750g/Water/muddywater.jpg,,,
,,,,,,,,,,,,,,main,4,22,Female,R,Donders,2021-07-06_15h58.59.573,ImageRatingTask_S1,2021.1.4,Win32,60.07449237,,,,,,,,,,,,5,3.5375,1,1.4238,5,3.8943,1,2.0782,5,1.1832,0,0,0,0,1,,,,,,,,,
,,,,,,,,,,,,,,second,4,22,Female,R,Donders,2021-07-06_15h58.59.573,ImageRatingTask_S1,2021.1.4,Win32,60.07449237,,,,,,,,,,,,,,,,,,,,,,0,1,1,1,1,,,,,,,,,
,,,,,,,,,,,,,,third,4,22,Female,R,Donders,2021-07-06_15h58.59.573,ImageRatingTask_S1,2021.1.4,Win32,60.07449237,,,,,,,,,,,,,,,,,,,,,,0,2,2,2,1,,,,,,,,,
,,,,,,,,,,,,,,fourth,4,22,Female,R,Donders,2021-07-06_15h58.59.573,ImageRatingTask_S1,2021.1.4,Win32,60.07449237,,,,,,,,,,,,,,,,,,,,,,0,3,3,3,1,,,,,,,,,
,,,,,,,,,,,,,,fifth,4,22,Female,R,Donders,2021-07-06_15h58.59.573,ImageRatingTask_S1,2021.1.4,Win32,60.07449237,,,,,,,,,,,,,,,,,,,,,,0,4,4,4,1,,,,,,,,,
,,,,,,,,,,,,,,sixth,4,22,Female,R,Donders,2021-07-06_15h58.59.573,ImageRatingTask_S1,2021.1.4,Win32,60.07449237,,,,,,,,,,,,,,,,,,,,,,0,5,5,5,1,,,,,,,,,
,,,,,,,,,,,,,,seventh,4,22,Female,R,Donders,2021-07-06_15h58.59.573,ImageRatingTask_S1,2021.1.4,Win32,60.07449237,,,,,,,,,,,,,,,,,,,,,,0,6,6,6,1,,,,,,,,,
,,,,,,,,,,,,,,last,4,22,Female,R,Donders,2021-07-06_15h58.59.573,ImageRatingTask_S1,2021.1.4,Win32,60.07449237,,,,,,,,,,,,,,,,,,,,,,0,7,7,7,1,,,,,,,,,
,,,,,,,,,,,,,,,4,22,Female,R,Donders,2021-07-06_15h58.59.573,ImageRatingTask_S1,2021.1.4,Win32,60.07449237,,,,,,,,,,,,,,,,,,,,,,,,,,,0,12,12,15,1,DreamStudyImages_rs1000x750g/Food/Objects_091_h.jpg,,,
,,,,,,,,,,,,,,main,4,22,Female,R,Donders,2021-07-06_15h58.59.573,ImageRatingTask_S1,2021.1.4,Win32,60.07449237,,,,,,,,,,,,4,3.6679,3,1.4759,5,3.2707,1,3.0589,3,1.75,0,0,0,0,1,,,,,,,,,
,,,,,,,,,,,,,,second,4,22,Female,R,Donders,2021-07-06_15h58.59.573,ImageRatingTask_S1,2021.1.4,Win32,60.07449237,,,,,,,,,,,,,,,,,,,,,,0,1,1,1,1,,,,,,,,,
,,,,,,,,,,,,,,third,4,22,Female,R,Donders,2021-07-06_15h58.59.573,ImageRatingTask_S1,2021.1.4,Win32,60.07449237,,,,,,,,,,,,,,,,,,,,,,0,2,2,2,1,,,,,,,,,
,,,,,,,,,,,,,,fourth,4,22,Female,R,Donders,2021-07-06_15h58.59.573,ImageRatingTask_S1,2021.1.4,Win32,60.07449237,,,,,,,,,,,,,,,,,,,,,,0,3,3,3,1,,,,,,,,,
,,,,,,,,,,,,,,fifth,4,22,Female,R,Donders,2021-07-06_15h58.59.573,ImageRatingTask_S1,2021.1.4,Win32,60.07449237,,,,,,,,,,,,,,,,,,,,,,0,4,4,4,1,,,,,,,,,
,,,,,,,,,,,,,,sixth,4,22,Female,R,Donders,2021-07-06_15h58.59.573,ImageRatingTask_S1,2021.1.4,Win32,60.07449237,,,,,,,,,,,,,,,,,,,,,,0,5,5,5,1,,,,,,,,,
,,,,,,,,,,,,,,seventh,4,22,Female,R,Donders,2021-07-06_15h58.59.573,ImageRatingTask_S1,2021.1.4,Win32,60.07449237,,,,,,,,,,,,,,,,,,,,,,0,6,6,6,1,,,,,,,,,
,,,,,,,,,,,,,,last,4,22,Female,R,Donders,2021-07-06_15h58.59.573,ImageRatingTask_S1,2021.1.4,Win32,60.07449237,,,,,,,,,,,,,,,,,,,,,,0,7,7,7,1,,,,,,,,,
,,,,,,,,,,,,,,,4,22,Female,R,Donders,2021-07-06_15h58.59.573,ImageRatingTask_S1,2021.1.4,Win32,60.07449237,,,,,,,,,,,,,,,,,,,,,,,,,,,0,13,13,156,1,DreamStudyImages_rs1000x750g/Mammals/IAPS1505_dog7.jpg,,,
,,,,,,,,,,,,,,main,4,22,Female,R,Donders,2021-07-06_15h58.59.573,ImageRatingTask_S1,2021.1.4,Win32,60.07449237,,,,,,,,,,,,7,3.7405,1,1.4058,7,1.771,1,2.1102,8,0.7672,0,0,0,0,1,,,,,,,,,
,,,,,,,,,,,,,,second,4,22,Female,R,Donders,2021-07-06_15h58.59.573,ImageRatingTask_S1,2021.1.4,Win32,60.07449237,,,,,,,,,,,,,,,,,,,,,,0,1,1,1,1,,,,,,,,,
,,,,,,,,,,,,,,third,4,22,Female,R,Donders,2021-07-06_15h58.59.573,ImageRatingTask_S1,2021.1.4,Win32,60.07449237,,,,,,,,,,,,,,,,,,,,,,0,2,2,2,1,,,,,,,,,
,,,,,,,,,,,,,,fourth,4,22,Female,R,Donders,2021-07-06_15h58.59.573,ImageRatingTask_S1,2021.1.4,Win32,60.07449237,,,,,,,,,,,,,,,,,,,,,,0,3,3,3,1,,,,,,,,,
,,,,,,,,,,,,,,fifth,4,22,Female,R,Donders,2021-07-06_15h58.59.573,ImageRatingTask_S1,2021.1.4,Win32,60.07449237,,,,,,,,,,,,,,,,,,,,,,0,4,4,4,1,,,,,,,,,
,,,,,,,,,,,,,,sixth,4,22,Female,R,Donders,2021-07-06_15h58.59.573,ImageRatingTask_S1,2021.1.4,Win32,60.07449237,,,,,,,,,,,,,,,,,,,,,,0,5,5,5,1,,,,,,,,,
,,,,,,,,,,,,,,seventh,4,22,Female,R,Donders,2021-07-06_15h58.59.573,ImageRatingTask_S1,2021.1.4,Win32,60.07449237,,,,,,,,,,,,,,,,,,,,,,0,6,6,6,1,,,,,,,,,
,,,,,,,,,,,,,,last,4,22,Female,R,Donders,2021-07-06_15h58.59.573,ImageRatingTask_S1,2021.1.4,Win32,60.07449237,,,,,,,,,,,,,,,,,,,,,,0,7,7,7,1,,,,,,,,,
,,,,,,,,,,,,,,,4,22,Female,R,Donders,2021-07-06_15h58.59.573,ImageRatingTask_S1,2021.1.4,Win32,60.07449237,,,,,,,,,,,,,,,,,,,,,,,,,,,0,14,14,123,1,DreamStudyImages_rs1000x750g/Water/rockylake.jpg,,,
,,,,,,,,,,,,,,main,4,22,Female,R,Donders,2021-07-06_15h58.59.573,ImageRatingTask_S1,2021.1.4,Win32,60.07449237,,,,,,,,,,,,3,3.0326,2,1.5134,5,2.4164,1,1.262,3,1.283,0,0,0,0,1,,,,,,,,,
,,,,,,,,,,,,,,second,4,22,Female,R,Donders,2021-07-06_15h58.59.573,ImageRatingTask_S1,2021.1.4,Win32,60.07449237,,,,,,,,,,,,,,,,,,,,,,0,1,1,1,1,,,,,,,,,
,,,,,,,,,,,,,,third,4,22,Female,R,Donders,2021-07-06_15h58.59.573,ImageRatingTask_S1,2021.1.4,Win32,60.07449237,,,,,,,,,,,,,,,,,,,,,,0,2,2,2,1,,,,,,,,,
,,,,,,,,,,,,,,fourth,4,22,Female,R,Donders,2021-07-06_15h58.59.573,ImageRatingTask_S1,2021.1.4,Win32,60.07449237,,,,,,,,,,,,,,,,,,,,,,0,3,3,3,1,,,,,,,,,
,,,,,,,,,,,,,,fifth,4,22,Female,R,Donders,2021-07-06_15h58.59.573,ImageRatingTask_S1,2021.1.4,Win32,60.07449237,,,,,,,,,,,,,,,,,,,,,,0,4,4,4,1,,,,,,,,,
,,,,,,,,,,,,,,sixth,4,22,Female,R,Donders,2021-07-06_15h58.59.573,ImageRatingTask_S1,2021.1.4,Win32,60.07449237,,,,,,,,,,,,,,,,,,,,,,0,5,5,5,1,,,,,,,,,
,,,,,,,,,,,,,,seventh,4,22,Female,R,Donders,2021-07-06_15h58.59.573,ImageRatingTask_S1,2021.1.4,Win32,60.07449237,,,,,,,,,,,,,,,,,,,,,,0,6,6,6,1,,,,,,,,,
,,,,,,,,,,,,,,last,4,22,Female,R,Donders,2021-07-06_15h58.59.573,ImageRatingTask_S1,2021.1.4,Win32,60.07449237,,,,,,,,,,,,,,,,,,,,,,0,7,7,7,1,,,,,,,,,
,,,,,,,,,,,,,,,4,22,Female,R,Donders,2021-07-06_15h58.59.573,ImageRatingTask_S1,2021.1.4,Win32,60.07449237,,,,,,,,,,,,,,,,,,,,,,,,,,,0,15,15,95,1,DreamStudyImages_rs1000x750g/Mammals/IAPS1525_dog9.jpg,,,
,,,,,,,,,,,,,,main,4,22,Female,R,Donders,2021-07-06_15h58.59.573,ImageRatingTask_S1,2021.1.4,Win32,60.07449237,,,,,,,,,,,,2,9.1462,6,2.208,4,2.6678,1,6.5358,8,1.3179,0,0,0,0,1,,,,,,,,,
,,,,,,,,,,,,,,second,4,22,Female,R,Donders,2021-07-06_15h58.59.573,ImageRatingTask_S1,2021.1.4,Win32,60.07449237,,,,,,,,,,,,,,,,,,,,,,0,1,1,1,1,,,,,,,,,
,,,,,,,,,,,,,,third,4,22,Female,R,Donders,2021-07-06_15h58.59.573,ImageRatingTask_S1,2021.1.4,Win32,60.07449237,,,,,,,,,,,,,,,,,,,,,,0,2,2,2,1,,,,,,,,,
,,,,,,,,,,,,,,fourth,4,22,Female,R,Donders,2021-07-06_15h58.59.573,ImageRatingTask_S1,2021.1.4,Win32,60.07449237,,,,,,,,,,,,,,,,,,,,,,0,3,3,3,1,,,,,,,,,
,,,,,,,,,,,,,,fifth,4,22,Female,R,Donders,2021-07-06_15h58.59.573,ImageRatingTask_S1,2021.1.4,Win32,60.07449237,,,,,,,,,,,,,,,,,,,,,,0,4,4,4,1,,,,,,,,,
,,,,,,,,,,,,,,sixth,4,22,Female,R,Donders,2021-07-06_15h58.59.573,ImageRatingTask_S1,2021.1.4,Win32,60.07449237,,,,,,,,,,,,,,,,,,,,,,0,5,5,5,1,,,,,,,,,
,,,,,,,,,,,,,,seventh,4,22,Female,R,Donders,2021-07-06_15h58.59.573,ImageRatingTask_S1,2021.1.4,Win32,60.07449237,,,,,,,,,,,,,,,,,,,,,,0,6,6,6,1,,,,,,,,,
,,,,,,,,,,,,,,last,4,22,Female,R,Donders,2021-07-06_15h58.59.573,ImageRatingTask_S1,2021.1.4,Win32,60.07449237,,,,,,,,,,,,,,,,,,,,,,0,7,7,7,1,,,,,,,,,
,,,,,,,,,,,,,,,4,22,Female,R,Donders,2021-07-06_15h58.59.573,ImageRatingTask_S1,2021.1.4,Win32,60.07449237,,,,,,,,,,,,,,,,,,,,,,,,,,,0,16,16,34,1,DreamStudyImages_rs1000x750g/Water/Explosion 5.jpg,,,
,,,,,,,,,,,,,,main,4,22,Female,R,Donders,2021-07-06_15h58.59.573,ImageRatingTask_S1,2021.1.4,Win32,60.07449237,,,,,,,,,,,,3,3.1097,4,1.2691,7,1.8804,1,2.1597,2,0.6814,0,0,0,0,1,,,,,,,,,
,,,,,,,,,,,,,,second,4,22,Female,R,Donders,2021-07-06_15h58.59.573,ImageRatingTask_S1,2021.1.4,Win32,60.07449237,,,,,,,,,,,,,,,,,,,,,,0,1,1,1,1,,,,,,,,,
,,,,,,,,,,,,,,third,4,22,Female,R,Donders,2021-07-06_15h58.59.573,ImageRatingTask_S1,2021.1.4,Win32,60.07449237,,,,,,,,,,,,,,,,,,,,,,0,2,2,2,1,,,,,,,,,
,,,,,,,,,,,,,,fourth,4,22,Female,R,Donders,2021-07-06_15h58.59.573,ImageRatingTask_S1,2021.1.4,Win32,60.07449237,,,,,,,,,,,,,,,,,,,,,,0,3,3,3,1,,,,,,,,,
,,,,,,,,,,,,,,fifth,4,22,Female,R,Donders,2021-07-06_15h58.59.573,ImageRatingTask_S1,2021.1.4,Win32,60.07449237,,,,,,,,,,,,,,,,,,,,,,0,4,4,4,1,,,,,,,,,
,,,,,,,,,,,,,,sixth,4,22,Female,R,Donders,2021-07-06_15h58.59.573,ImageRatingTask_S1,2021.1.4,Win32,60.07449237,,,,,,,,,,,,,,,,,,,,,,0,5,5,5,1,,,,,,,,,
,,,,,,,,,,,,,,seventh,4,22,Female,R,Donders,2021-07-06_15h58.59.573,ImageRatingTask_S1,2021.1.4,Win32,60.07449237,,,,,,,,,,,,,,,,,,,,,,0,6,6,6,1,,,,,,,,,
,,,,,,,,,,,,,,last,4,22,Female,R,Donders,2021-07-06_15h58.59.573,ImageRatingTask_S1,2021.1.4,Win32,60.07449237,,,,,,,,,,,,,,,,,,,,,,0,7,7,7,1,,,,,,,,,
,,,,,,,,,,,,,,,4,22,Female,R,Donders,2021-07-06_15h58.59.573,ImageRatingTask_S1,2021.1.4,Win32,60.07449237,,,,,,,,,,,,,,,,,,,,,,,,,,,0,17,17,122,1,DreamStudyImages_rs1000x750g/Children/Faces_032_h.jpg,,,
,,,,,,,,,,,,,,main,4,22,Female,R,Donders,2021-07-06_15h58.59.573,ImageRatingTask_S1,2021.1.4,Win32,60.07449237,,,,,,,,,,,,3,3.5246,2,1.5099,5,2.2818,1,2.0707,7,0.8165,0,0,0,0,1,,,,,,,,,
,,,,,,,,,,,,,,second,4,22,Female,R,Donders,2021-07-06_15h58.59.573,ImageRatingTask_S1,2021.1.4,Win32,60.07449237,,,,,,,,,,,,,,,,,,,,,,0,1,1,1,1,,,,,,,,,
,,,,,,,,,,,,,,third,4,22,Female,R,Donders,2021-07-06_15h58.59.573,ImageRatingTask_S1,2021.1.4,Win32,60.07449237,,,,,,,,,,,,,,,,,,,,,,0,2,2,2,1,,,,,,,,,
,,,,,,,,,,,,,,fourth,4,22,Female,R,Donders,2021-07-06_15h58.59.573,ImageRatingTask_S1,2021.1.4,Win32,60.07449237,,,,,,,,,,,,,,,,,,,,,,0,3,3,3,1,,,,,,,,,
,,,,,,,,,,,,,,fifth,4,22,Female,R,Donders,2021-07-06_15h58.59.573,ImageRatingTask_S1,2021.1.4,Win32,60.07449237,,,,,,,,,,,,,,,,,,,,,,0,4,4,4,1,,,,,,,,,
,,,,,,,,,,,,,,sixth,4,22,Female,R,Donders,2021-07-06_15h58.59.573,ImageRatingTask_S1,2021.1.4,Win32,60.07449237,,,,,,,,,,,,,,,,,,,,,,0,5,5,5,1,,,,,,,,,
,,,,,,,,,,,,,,seventh,4,22,Female,R,Donders,2021-07-06_15h58.59.573,ImageRatingTask_S1,2021.1.4,Win32,60.07449237,,,,,,,,,,,,,,,,,,,,,,0,6,6,6,1,,,,,,,,,
,,,,,,,,,,,,,,last,4,22,Female,R,Donders,2021-07-06_15h58.59.573,ImageRatingTask_S1,2021.1.4,Win32,60.07449237,,,,,,,,,,,,,,,,,,,,,,0,7,7,7,1,,,,,,,,,
,,,,,,,,,,,,,,,4,22,Female,R,Donders,2021-07-06_15h58.59.573,ImageRatingTask_S1,2021.1.4,Win32,60.07449237,,,,,,,,,,,,,,,,,,,,,,,,,,,0,18,18,74,1,DreamStudyImages_rs1000x750g/Vehicles/Destruction 10.jpg,,,
,,,,,,,,,,,,,,main,4,22,Female,R,Donders,2021-07-06_15h58.59.573,ImageRatingTask_S1,2021.1.4,Win32,60.07449237,,,,,,,,,,,,6,5.3647,3,1.6662,6,9.165,2,4.6494,2,2.636,0,0,0,0,1,,,,,,,,,
,,,,,,,,,,,,,,second,4,22,Female,R,Donders,2021-07-06_15h58.59.573,ImageRatingTask_S1,2021.1.4,Win32,60.07449237,,,,,,,,,,,,,,,,,,,,6,0.484,0,1,1,1,1,,,,,,,,,
,,,,,,,,,,,,,,third,4,22,Female,R,Donders,2021-07-06_15h58.59.573,ImageRatingTask_S1,2021.1.4,Win32,60.07449237,,,,,,,,,,,,,,,,,,,,,,0,2,2,2,1,,,,,,,,,
,,,,,,,,,,,,,,fourth,4,22,Female,R,Donders,2021-07-06_15h58.59.573,ImageRatingTask_S1,2021.1.4,Win32,60.07449237,,,,,,,,,,,,,,,,,,,,,,0,3,3,3,1,,,,,,,,,
,,,,,,,,,,,,,,fifth,4,22,Female,R,Donders,2021-07-06_15h58.59.573,ImageRatingTask_S1,2021.1.4,Win32,60.07449237,,,,,,,,,,,,,,,,,,,,,,0,4,4,4,1,,,,,,,,,
,,,,,,,,,,,,,,sixth,4,22,Female,R,Donders,2021-07-06_15h58.59.573,ImageRatingTask_S1,2021.1.4,Win32,60.07449237,,,,,,,,,,,,,,,,,,,,,,0,5,5,5,1,,,,,,,,,
,,,,,,,,,,,,,,seventh,4,22,Female,R,Donders,2021-07-06_15h58.59.573,ImageRatingTask_S1,2021.1.4,Win32,60.07449237,,,,,,,,,,,,,,,,,,,,,,0,6,6,6,1,,,,,,,,,
,,,,,,,,,,,,,,last,4,22,Female,R,Donders,2021-07-06_15h58.59.573,ImageRatingTask_S1,2021.1.4,Win32,60.07449237,,,,,,,,,,,,,,,,,,,,,,0,7,7,7,1,,,,,,,,,
,,,,,,,,,,,,,,,4,22,Female,R,Donders,2021-07-06_15h58.59.573,ImageRatingTask_S1,2021.1.4,Win32,60.07449237,,,,,,,,,,,,,,,,,,,,,,,,,,,0,19,19,89,1,DreamStudyImages_rs1000x750g/Children/IAPS2274_children7.jpg,,,
,,,,,,,,,,,,,,main,4,22,Female,R,Donders,2021-07-06_15h58.59.573,ImageRatingTask_S1,2021.1.4,Win32,60.07449237,,,,,,,,,,,,2,4.379,7,2.5802,5,2.9709,2,6.1776,5,1.1745,0,0,0,0,1,,,,,,,,,
,,,,,,,,,,,,,,second,4,22,Female,R,Donders,2021-07-06_15h58.59.573,ImageRatingTask_S1,2021.1.4,Win32,60.07449237,,,,,,,,,,,,,,,,,,,,3,0.8192,0,1,1,1,1,,,,,,,,,
,,,,,,,,,,,,,,third,4,22,Female,R,Donders,2021-07-06_15h58.59.573,ImageRatingTask_S1,2021.1.4,Win32,60.07449237,,,,,,,,,,,,,,,,,,,,,,0,2,2,2,1,,,,,,,,,
,,,,,,,,,,,,,,fourth,4,22,Female,R,Donders,2021-07-06_15h58.59.573,ImageRatingTask_S1,2021.1.4,Win32,60.07449237,,,,,,,,,,,,,,,,,,,,,,0,3,3,3,1,,,,,,,,,
,,,,,,,,,,,,,,fifth,4,22,Female,R,Donders,2021-07-06_15h58.59.573,ImageRatingTask_S1,2021.1.4,Win32,60.07449237,,,,,,,,,,,,,,,,,,,,,,0,4,4,4,1,,,,,,,,,
,,,,,,,,,,,,,,sixth,4,22,Female,R,Donders,2021-07-06_15h58.59.573,ImageRatingTask_S1,2021.1.4,Win32,60.07449237,,,,,,,,,,,,,,,,,,,,,,0,5,5,5,1,,,,,,,,,
,,,,,,,,,,,,,,seventh,4,22,Female,R,Donders,2021-07-06_15h58.59.573,ImageRatingTask_S1,2021.1.4,Win32,60.07449237,,,,,,,,,,,,,,,,,,,,,,0,6,6,6,1,,,,,,,,,
,,,,,,,,,,,,,,last,4,22,Female,R,Donders,2021-07-06_15h58.59.573,ImageRatingTask_S1,2021.1.4,Win32,60.07449237,,,,,,,,,,,,,,,,,,,,,,0,7,7,7,1,,,,,,,,,
,,,,,,,,,,,,,,,4,22,Female,R,Donders,2021-07-06_15h58.59.573,ImageRatingTask_S1,2021.1.4,Win32,60.07449237,,,,,,,,,,,,,,,,,,,,,,,,,,,0,20,20,7,1,DreamStudyImages_rs1000x750g/Food/Objects_018_h.jpg,,,
,,,,,,,,,,,,,,main,4,22,Female,R,Donders,2021-07-06_15h58.59.573,ImageRatingTask_S1,2021.1.4,Win32,60.07449237,,,,,,,,,,,,7,2.9498,5,1.8274,5,1.9255,1,3.8398,5,1.0047,0,0,0,0,1,,,,,,,,,
,,,,,,,,,,,,,,second,4,22,Female,R,Donders,2021-07-06_15h58.59.573,ImageRatingTask_S1,2021.1.4,Win32,60.07449237,,,,,,,,,,,,,,,,,,,,,,0,1,1,1,1,,,,,,,,,
,,,,,,,,,,,,,,third,4,22,Female,R,Donders,2021-07-06_15h58.59.573,ImageRatingTask_S1,2021.1.4,Win32,60.07449237,,,,,,,,,,,,,,,,,,,,,,0,2,2,2,1,,,,,,,,,
,,,,,,,,,,,,,,fourth,4,22,Female,R,Donders,2021-07-06_15h58.59.573,ImageRatingTask_S1,2021.1.4,Win32,60.07449237,,,,,,,,,,,,,,,,,,,,,,0,3,3,3,1,,,,,,,,,
,,,,,,,,,,,,,,fifth,4,22,Female,R,Donders,2021-07-06_15h58.59.573,ImageRatingTask_S1,2021.1.4,Win32,60.07449237,,,,,,,,,,,,,,,,,,,,,,0,4,4,4,1,,,,,,,,,
,,,,,,,,,,,,,,sixth,4,22,Female,R,Donders,2021-07-06_15h58.59.573,ImageRatingTask_S1,2021.1.4,Win32,60.07449237,,,,,,,,,,,,,,,,,,,,,,0,5,5,5,1,,,,,,,,,
,,,,,,,,,,,,,,seventh,4,22,Female,R,Donders,2021-07-06_15h58.59.573,ImageRatingTask_S1,2021.1.4,Win32,60.07449237,,,,,,,,,,,,,,,,,,,,,,0,6,6,6,1,,,,,,,,,
,,,,,,,,,,,,,,last,4,22,Female,R,Donders,2021-07-06_15h58.59.573,ImageRatingTask_S1,2021.1.4,Win32,60.07449237,,,,,,,,,,,,,,,,,,,,,,0,7,7,7,1,,,,,,,,,
,,,,,,,,,,,,,,,4,22,Female,R,Donders,2021-07-06_15h58.59.573,ImageRatingTask_S1,2021.1.4,Win32,60.07449237,,,,,,,,,,,,,,,,,,,,,,,,,,,0,21,21,17,1,DreamStudyImages_rs1000x750g/Food/Birthday 1.jpg,,,
,,,,,,,,,,,,,,main,4,22,Female,R,Donders,2021-07-06_15h58.59.573,ImageRatingTask_S1,2021.1.4,Win32,60.07449237,,,,,,,,,,,,4,151.6002,1,1.5192,6,1.9809,1,1.7122,5,0.6267,0,0,0,0,1,,,,,,,,,
,,,,,,,,,,,,,,second,4,22,Female,R,Donders,2021-07-06_15h58.59.573,ImageRatingTask_S1,2021.1.4,Win32,60.07449237,,,,,,,,,,,,,,,,,,,,,,0,1,1,1,1,,,,,,,,,
,,,,,,,,,,,,,,third,4,22,Female,R,Donders,2021-07-06_15h58.59.573,ImageRatingTask_S1,2021.1.4,Win32,60.07449237,,,,,,,,,,,,,,,,,,,,,,0,2,2,2,1,,,,,,,,,
,,,,,,,,,,,,,,fourth,4,22,Female,R,Donders,2021-07-06_15h58.59.573,ImageRatingTask_S1,2021.1.4,Win32,60.07449237,,,,,,,,,,,,,,,,,,,,,,0,3,3,3,1,,,,,,,,,
,,,,,,,,,,,,,,fifth,4,22,Female,R,Donders,2021-07-06_15h58.59.573,ImageRatingTask_S1,2021.1.4,Win32,60.07449237,,,,,,,,,,,,,,,,,,,,,,0,4,4,4,1,,,,,,,,,
,,,,,,,,,,,,,,sixth,4,22,Female,R,Donders,2021-07-06_15h58.59.573,ImageRatingTask_S1,2021.1.4,Win32,60.07449237,,,,,,,,,,,,,,,,,,,,,,0,5,5,5,1,,,,,,,,,
,,,,,,,,,,,,,,seventh,4,22,Female,R,Donders,2021-07-06_15h58.59.573,ImageRatingTask_S1,2021.1.4,Win32,60.07449237,,,,,,,,,,,,,,,,,,,,,,0,6,6,6,1,,,,,,,,,
,,,,,,,,,,,,,,last,4,22,Female,R,Donders,2021-07-06_15h58.59.573,ImageRatingTask_S1,2021.1.4,Win32,60.07449237,,,,,,,,,,,,,,,,,,,,,,0,7,7,7,1,,,,,,,,,
,,,,,,,,,,,,,,,4,22,Female,R,Donders,2021-07-06_15h58.59.573,ImageRatingTask_S1,2021.1.4,Win32,60.07449237,,,,,,,,,,,,,,,,,,,,,,,,,,,0,22,22,4,1,DreamStudyImages_rs1000x750g/Food/Objects_101_h.jpg,,,
,,,,,,,,,,,,,,main,4,22,Female,R,Donders,2021-07-06_15h58.59.573,ImageRatingTask_S1,2021.1.4,Win32,60.07449237,,,,,,,,,,,,5,8.7907,2,1.6962,3,1.882,2,3.5251,7,2.1103,0,0,0,0,1,,,,,,,,,
,,,,,,,,,,,,,,second,4,22,Female,R,Donders,2021-07-06_15h58.59.573,ImageRatingTask_S1,2021.1.4,Win32,60.07449237,,,,,,,,,,,,,,,,,,,,8,0.5167,0,1,1,1,1,,,,,,,,,
,,,,,,,,,,,,,,third,4,22,Female,R,Donders,2021-07-06_15h58.59.573,ImageRatingTask_S1,2021.1.4,Win32,60.07449237,,,,,,,,,,,,,,,,,,,,,,0,2,2,2,1,,,,,,,,,
,,,,,,,,,,,,,,fourth,4,22,Female,R,Donders,2021-07-06_15h58.59.573,ImageRatingTask_S1,2021.1.4,Win32,60.07449237,,,,,,,,,,,,,,,,,,,,,,0,3,3,3,1,,,,,,,,,
,,,,,,,,,,,,,,fifth,4,22,Female,R,Donders,2021-07-06_15h58.59.573,ImageRatingTask_S1,2021.1.4,Win32,60.07449237,,,,,,,,,,,,,,,,,,,,,,0,4,4,4,1,,,,,,,,,
,,,,,,,,,,,,,,sixth,4,22,Female,R,Donders,2021-07-06_15h58.59.573,ImageRatingTask_S1,2021.1.4,Win32,60.07449237,,,,,,,,,,,,,,,,,,,,,,0,5,5,5,1,,,,,,,,,
,,,,,,,,,,,,,,seventh,4,22,Female,R,Donders,2021-07-06_15h58.59.573,ImageRatingTask_S1,2021.1.4,Win32,60.07449237,,,,,,,,,,,,,,,,,,,,,,0,6,6,6,1,,,,,,,,,
,,,,,,,,,,,,,,last,4,22,Female,R,Donders,2021-07-06_15h58.59.573,ImageRatingTask_S1,2021.1.4,Win32,60.07449237,,,,,,,,,,,,,,,,,,,,,,0,7,7,7,1,,,,,,,,,
,,,,,,,,,,,,,,,4,22,Female,R,Donders,2021-07-06_15h58.59.573,ImageRatingTask_S1,2021.1.4,Win32,60.07449237,,,,,,,,,,,,,,,,,,,,,,,,,,,0,23,23,30,1,DreamStudyImages_rs1000x750g/Water/IAPS7036_harbour_CROPPED.jpg,,,
,,,,,,,,,,,,,,main,4,22,Female,R,Donders,2021-07-06_15h58.59.573,ImageRatingTask_S1,2021.1.4,Win32,60.07449237,,,,,,,,,,,,6,3.988,3,2.0296,7,2.5916,1,1.268,2,1.4308,0,0,0,0,1,,,,,,,,,
,,,,,,,,,,,,,,second,4,22,Female,R,Donders,2021-07-06_15h58.59.573,ImageRatingTask_S1,2021.1.4,Win32,60.07449237,,,,,,,,,,,,,,,,,,,,,,0,1,1,1,1,,,,,,,,,
,,,,,,,,,,,,,,third,4,22,Female,R,Donders,2021-07-06_15h58.59.573,ImageRatingTask_S1,2021.1.4,Win32,60.07449237,,,,,,,,,,,,,,,,,,,,,,0,2,2,2,1,,,,,,,,,
,,,,,,,,,,,,,,fourth,4,22,Female,R,Donders,2021-07-06_15h58.59.573,ImageRatingTask_S1,2021.1.4,Win32,60.07449237,,,,,,,,,,,,,,,,,,,,,,0,3,3,3,1,,,,,,,,,
,,,,,,,,,,,,,,fifth,4,22,Female,R,Donders,2021-07-06_15h58.59.573,ImageRatingTask_S1,2021.1.4,Win32,60.07449237,,,,,,,,,,,,,,,,,,,,,,0,4,4,4,1,,,,,,,,,
,,,,,,,,,,,,,,sixth,4,22,Female,R,Donders,2021-07-06_15h58.59.573,ImageRatingTask_S1,2021.1.4,Win32,60.07449237,,,,,,,,,,,,,,,,,,,,,,0,5,5,5,1,,,,,,,,,
,,,,,,,,,,,,,,seventh,4,22,Female,R,Donders,2021-07-06_15h58.59.573,ImageRatingTask_S1,2021.1.4,Win32,60.07449237,,,,,,,,,,,,,,,,,,,,,,0,6,6,6,1,,,,,,,,,
,,,,,,,,,,,,,,last,4,22,Female,R,Donders,2021-07-06_15h58.59.573,ImageRatingTask_S1,2021.1.4,Win32,60.07449237,,,,,,,,,,,,,,,,,,,,,,0,7,7,7,1,,,,,,,,,
,,,,,,,,,,,,,,,4,22,Female,R,Donders,2021-07-06_15h58.59.573,ImageRatingTask_S1,2021.1.4,Win32,60.07449237,,,,,,,,,,,,,,,,,,,,,,,,,,,0,24,24,36,1,DreamStudyImages_rs1000x750g/Children/Faces_097_v.jpg,,,
,,,,,,,,,,,,,,main,4,22,Female,R,Donders,2021-07-06_15h58.59.573,ImageRatingTask_S1,2021.1.4,Win32,60.07449237,,,,,,,,,,,,4,2.9285,2,1.5642,7,1.8966,1,1.3877,5,0.6546,0,0,0,0,1,,,,,,,,,
,,,,,,,,,,,,,,second,4,22,Female,R,Donders,2021-07-06_15h58.59.573,ImageRatingTask_S1,2021.1.4,Win32,60.07449237,,,,,,,,,,,,,,,,,,,,,,0,1,1,1,1,,,,,,,,,
,,,,,,,,,,,,,,third,4,22,Female,R,Donders,2021-07-06_15h58.59.573,ImageRatingTask_S1,2021.1.4,Win32,60.07449237,,,,,,,,,,,,,,,,,,,,,,0,2,2,2,1,,,,,,,,,
,,,,,,,,,,,,,,fourth,4,22,Female,R,Donders,2021-07-06_15h58.59.573,ImageRatingTask_S1,2021.1.4,Win32,60.07449237,,,,,,,,,,,,,,,,,,,,,,0,3,3,3,1,,,,,,,,,
,,,,,,,,,,,,,,fifth,4,22,Female,R,Donders,2021-07-06_15h58.59.573,ImageRatingTask_S1,2021.1.4,Win32,60.07449237,,,,,,,,,,,,,,,,,,,,,,0,4,4,4,1,,,,,,,,,
,,,,,,,,,,,,,,sixth,4,22,Female,R,Donders,2021-07-06_15h58.59.573,ImageRatingTask_S1,2021.1.4,Win32,60.07449237,,,,,,,,,,,,,,,,,,,,,,0,5,5,5,1,,,,,,,,,
,,,,,,,,,,,,,,seventh,4,22,Female,R,Donders,2021-07-06_15h58.59.573,ImageRatingTask_S1,2021.1.4,Win32,60.07449237,,,,,,,,,,,,,,,,,,,,,,0,6,6,6,1,,,,,,,,,
,,,,,,,,,,,,,,last,4,22,Female,R,Donders,2021-07-06_15h58.59.573,ImageRatingTask_S1,2021.1.4,Win32,60.07449237,,,,,,,,,,,,,,,,,,,,,,0,7,7,7,1,,,,,,,,,
,,,,,,,,,,,,,,,4,22,Female,R,Donders,2021-07-06_15h58.59.573,ImageRatingTask_S1,2021.1.4,Win32,60.07449237,,,,,,,,,,,,,,,,,,,,,,,,,,,0,25,25,55,1,DreamStudyImages_rs1000x750g/Food/Dessert 1.jpg,,,
,,,,,,,,,,,,,,main,4,22,Female,R,Donders,2021-07-06_15h58.59.573,ImageRatingTask_S1,2021.1.4,Win32,60.07449237,,,,,,,,,,,,2,4.3552,6,4.3219,7,2.5578,1,5.4536,3,1.1777,0,0,0,0,1,,,,,,,,,
,,,,,,,,,,,,,,second,4,22,Female,R,Donders,2021-07-06_15h58.59.573,ImageRatingTask_S1,2021.1.4,Win32,60.07449237,,,,,,,,,,,,,,,,,,,,,,0,1,1,1,1,,,,,,,,,
,,,,,,,,,,,,,,third,4,22,Female,R,Donders,2021-07-06_15h58.59.573,ImageRatingTask_S1,2021.1.4,Win32,60.07449237,,,,,,,,,,,,,,,,,,,,,,0,2,2,2,1,,,,,,,,,
,,,,,,,,,,,,,,fourth,4,22,Female,R,Donders,2021-07-06_15h58.59.573,ImageRatingTask_S1,2021.1.4,Win32,60.07449237,,,,,,,,,,,,,,,,,,,,,,0,3,3,3,1,,,,,,,,,
,,,,,,,,,,,,,,fifth,4,22,Female,R,Donders,2021-07-06_15h58.59.573,ImageRatingTask_S1,2021.1.4,Win32,60.07449237,,,,,,,,,,,,,,,,,,,,,,0,4,4,4,1,,,,,,,,,
,,,,,,,,,,,,,,sixth,4,22,Female,R,Donders,2021-07-06_15h58.59.573,ImageRatingTask_S1,2021.1.4,Win32,60.07449237,,,,,,,,,,,,,,,,,,,,,,0,5,5,5,1,,,,,,,,,
,,,,,,,,,,,,,,seventh,4,22,Female,R,Donders,2021-07-06_15h58.59.573,ImageRatingTask_S1,2021.1.4,Win32,60.07449237,,,,,,,,,,,,,,,,,,,,,,0,6,6,6,1,,,,,,,,,
,,,,,,,,,,,,,,last,4,22,Female,R,Donders,2021-07-06_15h58.59.573,ImageRatingTask_S1,2021.1.4,Win32,60.07449237,,,,,,,,,,,,,,,,,,,,,,0,7,7,7,1,,,,,,,,,
,,,,,,,,,,,,,,,4,22,Female,R,Donders,2021-07-06_15h58.59.573,ImageRatingTask_S1,2021.1.4,Win32,60.07449237,,,,,,,,,,,,,,,,,,,,,,,,,,,0,26,26,11,1,DreamStudyImages_rs1000x750g/Mammals/Animals_078_h.jpg,,,
,,,,,,,,,,,,,,main,4,22,Female,R,Donders,2021-07-06_15h58.59.573,ImageRatingTask_S1,2021.1.4,Win32,60.07449237,,,,,,,,,,,,5,3.8675,3,2.0072,7,2.7126,1,5.7477,5,0.6383,0,0,0,0,1,,,,,,,,,
,,,,,,,,,,,,,,second,4,22,Female,R,Donders,2021-07-06_15h58.59.573,ImageRatingTask_S1,2021.1.4,Win32,60.07449237,,,,,,,,,,,,,,,,,,,,,,0,1,1,1,1,,,,,,,,,
,,,,,,,,,,,,,,third,4,22,Female,R,Donders,2021-07-06_15h58.59.573,ImageRatingTask_S1,2021.1.4,Win32,60.07449237,,,,,,,,,,,,,,,,,,,,,,0,2,2,2,1,,,,,,,,,
,,,,,,,,,,,,,,fourth,4,22,Female,R,Donders,2021-07-06_15h58.59.573,ImageRatingTask_S1,2021.1.4,Win32,60.07449237,,,,,,,,,,,,,,,,,,,,,,0,3,3,3,1,,,,,,,,,
,,,,,,,,,,,,,,fifth,4,22,Female,R,Donders,2021-07-06_15h58.59.573,ImageRatingTask_S1,2021.1.4,Win32,60.07449237,,,,,,,,,,,,,,,,,,,,,,0,4,4,4,1,,,,,,,,,
,,,,,,,,,,,,,,sixth,4,22,Female,R,Donders,2021-07-06_15h58.59.573,ImageRatingTask_S1,2021.1.4,Win32,60.07449237,,,,,,,,,,,,,,,,,,,,,,0,5,5,5,1,,,,,,,,,
,,,,,,,,,,,,,,seventh,4,22,Female,R,Donders,2021-07-06_15h58.59.573,ImageRatingTask_S1,2021.1.4,Win32,60.07449237,,,,,,,,,,,,,,,,,,,,,,0,6,6,6,1,,,,,,,,,
,,,,,,,,,,,,,,last,4,22,Female,R,Donders,2021-07-06_15h58.59.573,ImageRatingTask_S1,2021.1.4,Win32,60.07449237,,,,,,,,,,,,,,,,,,,,,,0,7,7,7,1,,,,,,,,,
,,,,,,,,,,,,,,,4,22,Female,R,Donders,2021-07-06_15h58.59.573,ImageRatingTask_S1,2021.1.4,Win32,60.07449237,,,,,,,,,,,,,,,,,,,,,,,,,,,0,27,27,137,1,DreamStudyImages_rs1000x750g/Food/Objects_086_h.jpg,,,
,,,,,,,,,,,,,,main,4,22,Female,R,Donders,2021-07-06_15h58.59.573,ImageRatingTask_S1,2021.1.4,Win32,60.07449237,,,,,,,,,,,,4,4.0421,2,1.9843,7,1.6007,1,1.0114,2,0.6956,0,0,0,0,1,,,,,,,,,
,,,,,,,,,,,,,,second,4,22,Female,R,Donders,2021-07-06_15h58.59.573,ImageRatingTask_S1,2021.1.4,Win32,60.07449237,,,,,,,,,,,,,,,,,,,,,,0,1,1,1,1,,,,,,,,,
,,,,,,,,,,,,,,third,4,22,Female,R,Donders,2021-07-06_15h58.59.573,ImageRatingTask_S1,2021.1.4,Win32,60.07449237,,,,,,,,,,,,,,,,,,,,,,0,2,2,2,1,,,,,,,,,
,,,,,,,,,,,,,,fourth,4,22,Female,R,Donders,2021-07-06_15h58.59.573,ImageRatingTask_S1,2021.1.4,Win32,60.07449237,,,,,,,,,,,,,,,,,,,,,,0,3,3,3,1,,,,,,,,,
,,,,,,,,,,,,,,fifth,4,22,Female,R,Donders,2021-07-06_15h58.59.573,ImageRatingTask_S1,2021.1.4,Win32,60.07449237,,,,,,,,,,,,,,,,,,,,,,0,4,4,4,1,,,,,,,,,
,,,,,,,,,,,,,,sixth,4,22,Female,R,Donders,2021-07-06_15h58.59.573,ImageRatingTask_S1,2021.1.4,Win32,60.07449237,,,,,,,,,,,,,,,,,,,,,,0,5,5,5,1,,,,,,,,,
,,,,,,,,,,,,,,seventh,4,22,Female,R,Donders,2021-07-06_15h58.59.573,ImageRatingTask_S1,2021.1.4,Win32,60.07449237,,,,,,,,,,,,,,,,,,,,,,0,6,6,6,1,,,,,,,,,
,,,,,,,,,,,,,,last,4,22,Female,R,Donders,2021-07-06_15h58.59.573,ImageRatingTask_S1,2021.1.4,Win32,60.07449237,,,,,,,,,,,,,,,,,,,,,,0,7,7,7,1,,,,,,,,,
,,,,,,,,,,,,,,,4,22,Female,R,Donders,2021-07-06_15h58.59.573,ImageRatingTask_S1,2021.1.4,Win32,60.07449237,,,,,,,,,,,,,,,,,,,,,,,,,,,0,28,28,103,1,DreamStudyImages_rs1000x750g/Children/Faces_369_v.jpg,,,
,,,,,,,,,,,,,,main,4,22,Female,R,Donders,2021-07-06_15h58.59.573,ImageRatingTask_S1,2021.1.4,Win32,60.07449237,,,,,,,,,,,,6,4.2782,4,2.0508,5,2.3912,1,2.3998,5,1.346,0,0,0,0,1,,,,,,,,,
,,,,,,,,,,,,,,second,4,22,Female,R,Donders,2021-07-06_15h58.59.573,ImageRatingTask_S1,2021.1.4,Win32,60.07449237,,,,,,,,,,,,,,,,,,,,,,0,1,1,1,1,,,,,,,,,
,,,,,,,,,,,,,,third,4,22,Female,R,Donders,2021-07-06_15h58.59.573,ImageRatingTask_S1,2021.1.4,Win32,60.07449237,,,,,,,,,,,,,,,,,,,,,,0,2,2,2,1,,,,,,,,,
,,,,,,,,,,,,,,fourth,4,22,Female,R,Donders,2021-07-06_15h58.59.573,ImageRatingTask_S1,2021.1.4,Win32,60.07449237,,,,,,,,,,,,,,,,,,,,,,0,3,3,3,1,,,,,,,,,
,,,,,,,,,,,,,,fifth,4,22,Female,R,Donders,2021-07-06_15h58.59.573,ImageRatingTask_S1,2021.1.4,Win32,60.07449237,,,,,,,,,,,,,,,,,,,,,,0,4,4,4,1,,,,,,,,,
,,,,,,,,,,,,,,sixth,4,22,Female,R,Donders,2021-07-06_15h58.59.573,ImageRatingTask_S1,2021.1.4,Win32,60.07449237,,,,,,,,,,,,,,,,,,,,,,0,5,5,5,1,,,,,,,,,
,,,,,,,,,,,,,,seventh,4,22,Female,R,Donders,2021-07-06_15h58.59.573,ImageRatingTask_S1,2021.1.4,Win32,60.07449237,,,,,,,,,,,,,,,,,,,,,,0,6,6,6,1,,,,,,,,,
,,,,,,,,,,,,,,last,4,22,Female,R,Donders,2021-07-06_15h58.59.573,ImageRatingTask_S1,2021.1.4,Win32,60.07449237,,,,,,,,,,,,,,,,,,,,,,0,7,7,7,1,,,,,,,,,
,,,,,,,,,,,,,,,4,22,Female,R,Donders,2021-07-06_15h58.59.573,ImageRatingTask_S1,2021.1.4,Win32,60.07449237,,,,,,,,,,,,,,,,,,,,,,,,,,,0,29,29,48,1,DreamStudyImages_rs1000x750g/Food/Food 1.jpg,,,
,,,,,,,,,,,,,,main,4,22,Female,R,Donders,2021-07-06_15h58.59.573,ImageRatingTask_S1,2021.1.4,Win32,60.07449237,,,,,,,,,,,,5,4.0059,3,1.788,7,1.5031,1,2.5655,5,0.8717,0,0,0,0,1,,,,,,,,,
,,,,,,,,,,,,,,second,4,22,Female,R,Donders,2021-07-06_15h58.59.573,ImageRatingTask_S1,2021.1.4,Win32,60.07449237,,,,,,,,,,,,,,,,,,,,,,0,1,1,1,1,,,,,,,,,
,,,,,,,,,,,,,,third,4,22,Female,R,Donders,2021-07-06_15h58.59.573,ImageRatingTask_S1,2021.1.4,Win32,60.07449237,,,,,,,,,,,,,,,,,,,,,,0,2,2,2,1,,,,,,,,,
,,,,,,,,,,,,,,fourth,4,22,Female,R,Donders,2021-07-06_15h58.59.573,ImageRatingTask_S1,2021.1.4,Win32,60.07449237,,,,,,,,,,,,,,,,,,,,,,0,3,3,3,1,,,,,,,,,
,,,,,,,,,,,,,,fifth,4,22,Female,R,Donders,2021-07-06_15h58.59.573,ImageRatingTask_S1,2021.1.4,Win32,60.07449237,,,,,,,,,,,,,,,,,,,,,,0,4,4,4,1,,,,,,,,,
,,,,,,,,,,,,,,sixth,4,22,Female,R,Donders,2021-07-06_15h58.59.573,ImageRatingTask_S1,2021.1.4,Win32,60.07449237,,,,,,,,,,,,,,,,,,,,,,0,5,5,5,1,,,,,,,,,
,,,,,,,,,,,,,,seventh,4,22,Female,R,Donders,2021-07-06_15h58.59.573,ImageRatingTask_S1,2021.1.4,Win32,60.07449237,,,,,,,,,,,,,,,,,,,,,,0,6,6,6,1,,,,,,,,,
,,,,,,,,,,,,,,last,4,22,Female,R,Donders,2021-07-06_15h58.59.573,ImageRatingTask_S1,2021.1.4,Win32,60.07449237,,,,,,,,,,,,,,,,,,,,,,0,7,7,7,1,,,,,,,,,
,,,,,,,,,,,,,,,4,22,Female,R,Donders,2021-07-06_15h58.59.573,ImageRatingTask_S1,2021.1.4,Win32,60.07449237,,,,,,,,,,,,,,,,,,,,,,,,,,,0,30,30,65,1,DreamStudyImages_rs1000x750g/Food/Objects_056_h.jpg,,,
,,,,,,,,,,,,,,main,4,22,Female,R,Donders,2021-07-06_15h58.59.573,ImageRatingTask_S1,2021.1.4,Win32,60.07449237,,,,,,,,,,,,7,3.0768,3,1.6468,6,4.1817,1,1.4481,3,0.9498,0,0,0,0,1,,,,,,,,,
,,,,,,,,,,,,,,second,4,22,Female,R,Donders,2021-07-06_15h58.59.573,ImageRatingTask_S1,2021.1.4,Win32,60.07449237,,,,,,,,,,,,,,,,,,,,,,0,1,1,1,1,,,,,,,,,
,,,,,,,,,,,,,,third,4,22,Female,R,Donders,2021-07-06_15h58.59.573,ImageRatingTask_S1,2021.1.4,Win32,60.07449237,,,,,,,,,,,,,,,,,,,,,,0,2,2,2,1,,,,,,,,,
,,,,,,,,,,,,,,fourth,4,22,Female,R,Donders,2021-07-06_15h58.59.573,ImageRatingTask_S1,2021.1.4,Win32,60.07449237,,,,,,,,,,,,,,,,,,,,,,0,3,3,3,1,,,,,,,,,
,,,,,,,,,,,,,,fifth,4,22,Female,R,Donders,2021-07-06_15h58.59.573,ImageRatingTask_S1,2021.1.4,Win32,60.07449237,,,,,,,,,,,,,,,,,,,,,,0,4,4,4,1,,,,,,,,,
,,,,,,,,,,,,,,sixth,4,22,Female,R,Donders,2021-07-06_15h58.59.573,ImageRatingTask_S1,2021.1.4,Win32,60.07449237,,,,,,,,,,,,,,,,,,,,,,0,5,5,5,1,,,,,,,,,
,,,,,,,,,,,,,,seventh,4,22,Female,R,Donders,2021-07-06_15h58.59.573,ImageRatingTask_S1,2021.1.4,Win32,60.07449237,,,,,,,,,,,,,,,,,,,,,,0,6,6,6,1,,,,,,,,,
,,,,,,,,,,,,,,last,4,22,Female,R,Donders,2021-07-06_15h58.59.573,ImageRatingTask_S1,2021.1.4,Win32,60.07449237,,,,,,,,,,,,,,,,,,,,,,0,7,7,7,1,,,,,,,,,
,,,,,,,,,,,,,,,4,22,Female,R,Donders,2021-07-06_15h58.59.573,ImageRatingTask_S1,2021.1.4,Win32,60.07449237,,,,,,,,,,,,,,,,,,,,,,,,,,,0,31,31,9,1,DreamStudyImages_rs1000x750g/Mammals/Animals_134_h.jpg,,,
,,,,,,,,,,,,,,main,4,22,Female,R,Donders,2021-07-06_15h58.59.573,ImageRatingTask_S1,2021.1.4,Win32,60.07449237,,,,,,,,,,,,5,4.5938,3,3.1449,4,2.083,1,1.3502,5,0.7032,0,0,0,0,1,,,,,,,,,
,,,,,,,,,,,,,,second,4,22,Female,R,Donders,2021-07-06_15h58.59.573,ImageRatingTask_S1,2021.1.4,Win32,60.07449237,,,,,,,,,,,,,,,,,,,,,,0,1,1,1,1,,,,,,,,,
,,,,,,,,,,,,,,third,4,22,Female,R,Donders,2021-07-06_15h58.59.573,ImageRatingTask_S1,2021.1.4,Win32,60.07449237,,,,,,,,,,,,,,,,,,,,,,0,2,2,2,1,,,,,,,,,
,,,,,,,,,,,,,,fourth,4,22,Female,R,Donders,2021-07-06_15h58.59.573,ImageRatingTask_S1,2021.1.4,Win32,60.07449237,,,,,,,,,,,,,,,,,,,,,,0,3,3,3,1,,,,,,,,,
,,,,,,,,,,,,,,fifth,4,22,Female,R,Donders,2021-07-06_15h58.59.573,ImageRatingTask_S1,2021.1.4,Win32,60.07449237,,,,,,,,,,,,,,,,,,,,,,0,4,4,4,1,,,,,,,,,
,,,,,,,,,,,,,,sixth,4,22,Female,R,Donders,2021-07-06_15h58.59.573,ImageRatingTask_S1,2021.1.4,Win32,60.07449237,,,,,,,,,,,,,,,,,,,,,,0,5,5,5,1,,,,,,,,,
,,,,,,,,,,,,,,seventh,4,22,Female,R,Donders,2021-07-06_15h58.59.573,ImageRatingTask_S1,2021.1.4,Win32,60.07449237,,,,,,,,,,,,,,,,,,,,,,0,6,6,6,1,,,,,,,,,
,,,,,,,,,,,,,,last,4,22,Female,R,Donders,2021-07-06_15h58.59.573,ImageRatingTask_S1,2021.1.4,Win32,60.07449237,,,,,,,,,,,,,,,,,,,,,,0,7,7,7,1,,,,,,,,,
,,,,,,,,,,,,,,,4,22,Female,R,Donders,2021-07-06_15h58.59.573,ImageRatingTask_S1,2021.1.4,Win32,60.07449237,,,,,,,,,,,,,,,,,,,,,,,,,,,0,32,32,41,1,DreamStudyImages_rs1000x750g/Food/7260.jpg,,,
,,,,,,,,,,,,,,main,4,22,Female,R,Donders,2021-07-06_15h58.59.573,ImageRatingTask_S1,2021.1.4,Win32,60.07449237,,,,,,,,,,,,2,2.7816,6,3.4406,6,4.2524,1,1.4905,5,0.967,0,0,0,0,1,,,,,,,,,
,,,,,,,,,,,,,,second,4,22,Female,R,Donders,2021-07-06_15h58.59.573,ImageRatingTask_S1,2021.1.4,Win32,60.07449237,,,,,,,,,,,,,,,,,,,,,,0,1,1,1,1,,,,,,,,,
,,,,,,,,,,,,,,third,4,22,Female,R,Donders,2021-07-06_15h58.59.573,ImageRatingTask_S1,2021.1.4,Win32,60.07449237,,,,,,,,,,,,,,,,,,,,,,0,2,2,2,1,,,,,,,,,
,,,,,,,,,,,,,,fourth,4,22,Female,R,Donders,2021-07-06_15h58.59.573,ImageRatingTask_S1,2021.1.4,Win32,60.07449237,,,,,,,,,,,,,,,,,,,,,,0,3,3,3,1,,,,,,,,,
,,,,,,,,,,,,,,fifth,4,22,Female,R,Donders,2021-07-06_15h58.59.573,ImageRatingTask_S1,2021.1.4,Win32,60.07449237,,,,,,,,,,,,,,,,,,,,,,0,4,4,4,1,,,,,,,,,
,,,,,,,,,,,,,,sixth,4,22,Female,R,Donders,2021-07-06_15h58.59.573,ImageRatingTask_S1,2021.1.4,Win32,60.07449237,,,,,,,,,,,,,,,,,,,,,,0,5,5,5,1,,,,,,,,,
,,,,,,,,,,,,,,seventh,4,22,Female,R,Donders,2021-07-06_15h58.59.573,ImageRatingTask_S1,2021.1.4,Win32,60.07449237,,,,,,,,,,,,,,,,,,,,,,0,6,6,6,1,,,,,,,,,
,,,,,,,,,,,,,,last,4,22,Female,R,Donders,2021-07-06_15h58.59.573,ImageRatingTask_S1,2021.1.4,Win32,60.07449237,,,,,,,,,,,,,,,,,,,,,,0,7,7,7,1,,,,,,,,,
,,,,,,,,,,,,,,,4,22,Female,R,Donders,2021-07-06_15h58.59.573,ImageRatingTask_S1,2021.1.4,Win32,60.07449237,,,,,,,,,,,,,,,,,,,,,,,,,,,0,33,33,100,1,DreamStudyImages_rs1000x750g/Food/Objects_063_v.jpg,,,
,,,,,,,,,,,,,,main,4,22,Female,R,Donders,2021-07-06_15h58.59.573,ImageRatingTask_S1,2021.1.4,Win32,60.07449237,,,,,,,,,,,,3,2.9856,4,1.5804,7,1.9263,1,2.097,3,0.9121,0,0,0,0,1,,,,,,,,,
,,,,,,,,,,,,,,second,4,22,Female,R,Donders,2021-07-06_15h58.59.573,ImageRatingTask_S1,2021.1.4,Win32,60.07449237,,,,,,,,,,,,,,,,,,,,,,0,1,1,1,1,,,,,,,,,
,,,,,,,,,,,,,,third,4,22,Female,R,Donders,2021-07-06_15h58.59.573,ImageRatingTask_S1,2021.1.4,Win32,60.07449237,,,,,,,,,,,,,,,,,,,,,,0,2,2,2,1,,,,,,,,,
,,,,,,,,,,,,,,fourth,4,22,Female,R,Donders,2021-07-06_15h58.59.573,ImageRatingTask_S1,2021.1.4,Win32,60.07449237,,,,,,,,,,,,,,,,,,,,,,0,3,3,3,1,,,,,,,,,
,,,,,,,,,,,,,,fifth,4,22,Female,R,Donders,2021-07-06_15h58.59.573,ImageRatingTask_S1,2021.1.4,Win32,60.07449237,,,,,,,,,,,,,,,,,,,,,,0,4,4,4,1,,,,,,,,,
,,,,,,,,,,,,,,sixth,4,22,Female,R,Donders,2021-07-06_15h58.59.573,ImageRatingTask_S1,2021.1.4,Win32,60.07449237,,,,,,,,,,,,,,,,,,,,,,0,5,5,5,1,,,,,,,,,
,,,,,,,,,,,,,,seventh,4,22,Female,R,Donders,2021-07-06_15h58.59.573,ImageRatingTask_S1,2021.1.4,Win32,60.07449237,,,,,,,,,,,,,,,,,,,,,,0,6,6,6,1,,,,,,,,,
,,,,,,,,,,,,,,last,4,22,Female,R,Donders,2021-07-06_15h58.59.573,ImageRatingTask_S1,2021.1.4,Win32,60.07449237,,,,,,,,,,,,,,,,,,,,,,0,7,7,7,1,,,,,,,,,
,,,,,,,,,,,,,,,4,22,Female,R,Donders,2021-07-06_15h58.59.573,ImageRatingTask_S1,2021.1.4,Win32,60.07449237,,,,,,,,,,,,,,,,,,,,,,,,,,,0,34,34,118,1,DreamStudyImages_rs1000x750g/Mammals/Animals_019_h.jpg,,,
,,,,,,,,,,,,,,main,4,22,Female,R,Donders,2021-07-06_15h58.59.573,ImageRatingTask_S1,2021.1.4,Win32,60.07449237,,,,,,,,,,,,4,2.3517,2,1.7222,5,2.7743,1,4.2003,6,0.861,0,0,0,0,1,,,,,,,,,
,,,,,,,,,,,,,,second,4,22,Female,R,Donders,2021-07-06_15h58.59.573,ImageRatingTask_S1,2021.1.4,Win32,60.07449237,,,,,,,,,,,,,,,,,,,,,,0,1,1,1,1,,,,,,,,,
,,,,,,,,,,,,,,third,4,22,Female,R,Donders,2021-07-06_15h58.59.573,ImageRatingTask_S1,2021.1.4,Win32,60.07449237,,,,,,,,,,,,,,,,,,,,,,0,2,2,2,1,,,,,,,,,
,,,,,,,,,,,,,,fourth,4,22,Female,R,Donders,2021-07-06_15h58.59.573,ImageRatingTask_S1,2021.1.4,Win32,60.07449237,,,,,,,,,,,,,,,,,,,,,,0,3,3,3,1,,,,,,,,,
,,,,,,,,,,,,,,fifth,4,22,Female,R,Donders,2021-07-06_15h58.59.573,ImageRatingTask_S1,2021.1.4,Win32,60.07449237,,,,,,,,,,,,,,,,,,,,,,0,4,4,4,1,,,,,,,,,
,,,,,,,,,,,,,,sixth,4,22,Female,R,Donders,2021-07-06_15h58.59.573,ImageRatingTask_S1,2021.1.4,Win32,60.07449237,,,,,,,,,,,,,,,,,,,,,,0,5,5,5,1,,,,,,,,,
,,,,,,,,,,,,,,seventh,4,22,Female,R,Donders,2021-07-06_15h58.59.573,ImageRatingTask_S1,2021.1.4,Win32,60.07449237,,,,,,,,,,,,,,,,,,,,,,0,6,6,6,1,,,,,,,,,
,,,,,,,,,,,,,,last,4,22,Female,R,Donders,2021-07-06_15h58.59.573,ImageRatingTask_S1,2021.1.4,Win32,60.07449237,,,,,,,,,,,,,,,,,,,,,,0,7,7,7,1,,,,,,,,,
,,,,,,,,,,,,,,,4,22,Female,R,Donders,2021-07-06_15h58.59.573,ImageRatingTask_S1,2021.1.4,Win32,60.07449237,,,,,,,,,,,,,,,,,,,,,,,,,,,0,35,35,28,1,DreamStudyImages_rs1000x750g/Houses/Pollution 1.jpg,,,
,,,,,,,,,,,,,,main,4,22,Female,R,Donders,2021-07-06_15h58.59.573,ImageRatingTask_S1,2021.1.4,Win32,60.07449237,,,,,,,,,,,,4,2.0443,4,2.2086,8,4.131,1,1.4486,2,0.8726,0,0,0,0,1,,,,,,,,,
,,,,,,,,,,,,,,second,4,22,Female,R,Donders,2021-07-06_15h58.59.573,ImageRatingTask_S1,2021.1.4,Win32,60.07449237,,,,,,,,,,,,,,,,,,,,,,0,1,1,1,1,,,,,,,,,
,,,,,,,,,,,,,,third,4,22,Female,R,Donders,2021-07-06_15h58.59.573,ImageRatingTask_S1,2021.1.4,Win32,60.07449237,,,,,,,,,,,,,,,,,,,,,,0,2,2,2,1,,,,,,,,,
,,,,,,,,,,,,,,fourth,4,22,Female,R,Donders,2021-07-06_15h58.59.573,ImageRatingTask_S1,2021.1.4,Win32,60.07449237,,,,,,,,,,,,,,,,,,,,,,0,3,3,3,1,,,,,,,,,
,,,,,,,,,,,,,,fifth,4,22,Female,R,Donders,2021-07-06_15h58.59.573,ImageRatingTask_S1,2021.1.4,Win32,60.07449237,,,,,,,,,,,,,,,,,,,,,,0,4,4,4,1,,,,,,,,,
,,,,,,,,,,,,,,sixth,4,22,Female,R,Donders,2021-07-06_15h58.59.573,ImageRatingTask_S1,2021.1.4,Win32,60.07449237,,,,,,,,,,,,,,,,,,,,,,0,5,5,5,1,,,,,,,,,
,,,,,,,,,,,,,,seventh,4,22,Female,R,Donders,2021-07-06_15h58.59.573,ImageRatingTask_S1,2021.1.4,Win32,60.07449237,,,,,,,,,,,,,,,,,,,,,,0,6,6,6,1,,,,,,,,,
,,,,,,,,,,,,,,last,4,22,Female,R,Donders,2021-07-06_15h58.59.573,ImageRatingTask_S1,2021.1.4,Win32,60.07449237,,,,,,,,,,,,,,,,,,,,,,0,7,7,7,1,,,,,,,,,
,,,,,,,,,,,,,,,4,22,Female,R,Donders,2021-07-06_15h58.59.573,ImageRatingTask_S1,2021.1.4,Win32,60.07449237,,,,,,,,,,,,,,,,,,,,,,,,,,,0,36,36,127,1,DreamStudyImages_rs1000x750g/Children/IAPS2457_boy10.jpg,,,
,,,,,,,,,,,,,,main,4,22,Female,R,Donders,2021-07-06_15h58.59.573,ImageRatingTask_S1,2021.1.4,Win32,60.07449237,,,,,,,,,,,,5,2.6385,1,1.1079,6,5.2783,1,1.0457,7,0.8486,0,0,0,0,1,,,,,,,,,
,,,,,,,,,,,,,,second,4,22,Female,R,Donders,2021-07-06_15h58.59.573,ImageRatingTask_S1,2021.1.4,Win32,60.07449237,,,,,,,,,,,,,,,,,,,,,,0,1,1,1,1,,,,,,,,,
,,,,,,,,,,,,,,third,4,22,Female,R,Donders,2021-07-06_15h58.59.573,ImageRatingTask_S1,2021.1.4,Win32,60.07449237,,,,,,,,,,,,,,,,,,,,,,0,2,2,2,1,,,,,,,,,
,,,,,,,,,,,,,,fourth,4,22,Female,R,Donders,2021-07-06_15h58.59.573,ImageRatingTask_S1,2021.1.4,Win32,60.07449237,,,,,,,,,,,,,,,,,,,,,,0,3,3,3,1,,,,,,,,,
,,,,,,,,,,,,,,fifth,4,22,Female,R,Donders,2021-07-06_15h58.59.573,ImageRatingTask_S1,2021.1.4,Win32,60.07449237,,,,,,,,,,,,,,,,,,,,,,0,4,4,4,1,,,,,,,,,
,,,,,,,,,,,,,,sixth,4,22,Female,R,Donders,2021-07-06_15h58.59.573,ImageRatingTask_S1,2021.1.4,Win32,60.07449237,,,,,,,,,,,,,,,,,,,,,,0,5,5,5,1,,,,,,,,,
,,,,,,,,,,,,,,seventh,4,22,Female,R,Donders,2021-07-06_15h58.59.573,ImageRatingTask_S1,2021.1.4,Win32,60.07449237,,,,,,,,,,,,,,,,,,,,,,0,6,6,6,1,,,,,,,,,
,,,,,,,,,,,,,,last,4,22,Female,R,Donders,2021-07-06_15h58.59.573,ImageRatingTask_S1,2021.1.4,Win32,60.07449237,,,,,,,,,,,,,,,,,,,,,,0,7,7,7,1,,,,,,,,,
,,,,,,,,,,,,,,,4,22,Female,R,Donders,2021-07-06_15h58.59.573,ImageRatingTask_S1,2021.1.4,Win32,60.07449237,,,,,,,,,,,,,,,,,,,,,,,,,,,0,37,37,63,1,DreamStudyImages_rs1000x750g/Vehicles/Objects_299_h.jpg,,,
,,,,,,,,,,,,,,main,4,22,Female,R,Donders,2021-07-06_15h58.59.573,ImageRatingTask_S1,2021.1.4,Win32,60.07449237,,,,,,,,,,,,6,2.9393,1,1.8762,5,2.0407,1,2.4998,3,2.0495,0,0,0,0,1,,,,,,,,,
,,,,,,,,,,,,,,second,4,22,Female,R,Donders,2021-07-06_15h58.59.573,ImageRatingTask_S1,2021.1.4,Win32,60.07449237,,,,,,,,,,,,,,,,,,,,,,0,1,1,1,1,,,,,,,,,
,,,,,,,,,,,,,,third,4,22,Female,R,Donders,2021-07-06_15h58.59.573,ImageRatingTask_S1,2021.1.4,Win32,60.07449237,,,,,,,,,,,,,,,,,,,,,,0,2,2,2,1,,,,,,,,,
,,,,,,,,,,,,,,fourth,4,22,Female,R,Donders,2021-07-06_15h58.59.573,ImageRatingTask_S1,2021.1.4,Win32,60.07449237,,,,,,,,,,,,,,,,,,,,,,0,3,3,3,1,,,,,,,,,
,,,,,,,,,,,,,,fifth,4,22,Female,R,Donders,2021-07-06_15h58.59.573,ImageRatingTask_S1,2021.1.4,Win32,60.07449237,,,,,,,,,,,,,,,,,,,,,,0,4,4,4,1,,,,,,,,,
,,,,,,,,,,,,,,sixth,4,22,Female,R,Donders,2021-07-06_15h58.59.573,ImageRatingTask_S1,2021.1.4,Win32,60.07449237,,,,,,,,,,,,,,,,,,,,,,0,5,5,5,1,,,,,,,,,
,,,,,,,,,,,,,,seventh,4,22,Female,R,Donders,2021-07-06_15h58.59.573,ImageRatingTask_S1,2021.1.4,Win32,60.07449237,,,,,,,,,,,,,,,,,,,,,,0,6,6,6,1,,,,,,,,,
,,,,,,,,,,,,,,last,4,22,Female,R,Donders,2021-07-06_15h58.59.573,ImageRatingTask_S1,2021.1.4,Win32,60.07449237,,,,,,,,,,,,,,,,,,,,,,0,7,7,7,1,,,,,,,,,
,,,,,,,,,,,,,,,4,22,Female,R,Donders,2021-07-06_15h58.59.573,ImageRatingTask_S1,2021.1.4,Win32,60.07449237,,,,,,,,,,,,,,,,,,,,,,,,,,,0,38,38,24,1,DreamStudyImages_rs1000x750g/Mammals/IAPS1600_horse3.jpg,,,
,,,,,,,,,,,,,,main,4,22,Female,R,Donders,2021-07-06_15h58.59.573,ImageRatingTask_S1,2021.1.4,Win32,60.07449237,,,,,,,,,,,,5,6.4848,3,1.5335,7,6.0902,1,2.8229,5,0.8914,0,0,0,0,1,,,,,,,,,
,,,,,,,,,,,,,,second,4,22,Female,R,Donders,2021-07-06_15h58.59.573,ImageRatingTask_S1,2021.1.4,Win32,60.07449237,,,,,,,,,,,,,,,,,,,,,,0,1,1,1,1,,,,,,,,,
,,,,,,,,,,,,,,third,4,22,Female,R,Donders,2021-07-06_15h58.59.573,ImageRatingTask_S1,2021.1.4,Win32,60.07449237,,,,,,,,,,,,,,,,,,,,,,0,2,2,2,1,,,,,,,,,
,,,,,,,,,,,,,,fourth,4,22,Female,R,Donders,2021-07-06_15h58.59.573,ImageRatingTask_S1,2021.1.4,Win32,60.07449237,,,,,,,,,,,,,,,,,,,,,,0,3,3,3,1,,,,,,,,,
,,,,,,,,,,,,,,fifth,4,22,Female,R,Donders,2021-07-06_15h58.59.573,ImageRatingTask_S1,2021.1.4,Win32,60.07449237,,,,,,,,,,,,,,,,,,,,,,0,4,4,4,1,,,,,,,,,
,,,,,,,,,,,,,,sixth,4,22,Female,R,Donders,2021-07-06_15h58.59.573,ImageRatingTask_S1,2021.1.4,Win32,60.07449237,,,,,,,,,,,,,,,,,,,,,,0,5,5,5,1,,,,,,,,,
,,,,,,,,,,,,,,seventh,4,22,Female,R,Donders,2021-07-06_15h58.59.573,ImageRatingTask_S1,2021.1.4,Win32,60.07449237,,,,,,,,,,,,,,,,,,,,,,0,6,6,6,1,,,,,,,,,
,,,,,,,,,,,,,,last,4,22,Female,R,Donders,2021-07-06_15h58.59.573,ImageRatingTask_S1,2021.1.4,Win32,60.07449237,,,,,,,,,,,,,,,,,,,,,,0,7,7,7,1,,,,,,,,,
,,,,,,,,,,,,,,,4,22,Female,R,Donders,2021-07-06_15h58.59.573,ImageRatingTask_S1,2021.1.4,Win32,60.07449237,,,,,,,,,,,,,,,,,,,,,,,,,,,0,39,39,58,1,DreamStudyImages_rs1000x750g/Food/Objects_102_v.jpg,,,
,,,,,,,,,,,,,,main,4,22,Female,R,Donders,2021-07-06_15h58.59.573,ImageRatingTask_S1,2021.1.4,Win32,60.07449237,,,,,,,,,,,,4,3.3965,3,1.1893,4,1.8045,1,2.6295,8,0.7544,0,0,0,0,1,,,,,,,,,
,,,,,,,,,,,,,,second,4,22,Female,R,Donders,2021-07-06_15h58.59.573,ImageRatingTask_S1,2021.1.4,Win32,60.07449237,,,,,,,,,,,,,,,,,,,,,,0,1,1,1,1,,,,,,,,,
,,,,,,,,,,,,,,third,4,22,Female,R,Donders,2021-07-06_15h58.59.573,ImageRatingTask_S1,2021.1.4,Win32,60.07449237,,,,,,,,,,,,,,,,,,,,,,0,2,2,2,1,,,,,,,,,
,,,,,,,,,,,,,,fourth,4,22,Female,R,Donders,2021-07-06_15h58.59.573,ImageRatingTask_S1,2021.1.4,Win32,60.07449237,,,,,,,,,,,,,,,,,,,,,,0,3,3,3,1,,,,,,,,,
,,,,,,,,,,,,,,fifth,4,22,Female,R,Donders,2021-07-06_15h58.59.573,ImageRatingTask_S1,2021.1.4,Win32,60.07449237,,,,,,,,,,,,,,,,,,,,,,0,4,4,4,1,,,,,,,,,
,,,,,,,,,,,,,,sixth,4,22,Female,R,Donders,2021-07-06_15h58.59.573,ImageRatingTask_S1,2021.1.4,Win32,60.07449237,,,,,,,,,,,,,,,,,,,,,,0,5,5,5,1,,,,,,,,,
,,,,,,,,,,,,,,seventh,4,22,Female,R,Donders,2021-07-06_15h58.59.573,ImageRatingTask_S1,2021.1.4,Win32,60.07449237,,,,,,,,,,,,,,,,,,,,,,0,6,6,6,1,,,,,,,,,
,,,,,,,,,,,,,,last,4,22,Female,R,Donders,2021-07-06_15h58.59.573,ImageRatingTask_S1,2021.1.4,Win32,60.07449237,,,,,,,,,,,,,,,,,,,,,,0,7,7,7,1,,,,,,,,,
,,,,,,,,,,,,,,,4,22,Female,R,Donders,2021-07-06_15h58.59.573,ImageRatingTask_S1,2021.1.4,Win32,60.07449237,,,,,,,,,,,,,,,,,,,,,,,,,,,0,40,40,37,1,DreamStudyImages_rs1000x750g/Water/5820.jpg,,,
,,,,,,,,,,,,,,main,4,22,Female,R,Donders,2021-07-06_15h58.59.573,ImageRatingTask_S1,2021.1.4,Win32,60.07449237,,,,,,,,,,,,6,3.6548,1,1.9182,7,2.516,1,2.085,2,0.6896,0,0,0,0,1,,,,,,,,,
,,,,,,,,,,,,,,second,4,22,Female,R,Donders,2021-07-06_15h58.59.573,ImageRatingTask_S1,2021.1.4,Win32,60.07449237,,,,,,,,,,,,,,,,,,,,,,0,1,1,1,1,,,,,,,,,
,,,,,,,,,,,,,,third,4,22,Female,R,Donders,2021-07-06_15h58.59.573,ImageRatingTask_S1,2021.1.4,Win32,60.07449237,,,,,,,,,,,,,,,,,,,,,,0,2,2,2,1,,,,,,,,,
,,,,,,,,,,,,,,fourth,4,22,Female,R,Donders,2021-07-06_15h58.59.573,ImageRatingTask_S1,2021.1.4,Win32,60.07449237,,,,,,,,,,,,,,,,,,,,,,0,3,3,3,1,,,,,,,,,
,,,,,,,,,,,,,,fifth,4,22,Female,R,Donders,2021-07-06_15h58.59.573,ImageRatingTask_S1,2021.1.4,Win32,60.07449237,,,,,,,,,,,,,,,,,,,,,,0,4,4,4,1,,,,,,,,,
,,,,,,,,,,,,,,sixth,4,22,Female,R,Donders,2021-07-06_15h58.59.573,ImageRatingTask_S1,2021.1.4,Win32,60.07449237,,,,,,,,,,,,,,,,,,,,,,0,5,5,5,1,,,,,,,,,
,,,,,,,,,,,,,,seventh,4,22,Female,R,Donders,2021-07-06_15h58.59.573,ImageRatingTask_S1,2021.1.4,Win32,60.07449237,,,,,,,,,,,,,,,,,,,,,,0,6,6,6,1,,,,,,,,,
,,,,,,,,,,,,,,last,4,22,Female,R,Donders,2021-07-06_15h58.59.573,ImageRatingTask_S1,2021.1.4,Win32,60.07449237,,,,,,,,,,,,,,,,,,,,,,0,7,7,7,1,,,,,,,,,
,,,,,,,,,,,,,,,4,22,Female,R,Donders,2021-07-06_15h58.59.573,ImageRatingTask_S1,2021.1.4,Win32,60.07449237,,,,,,,,,,,,,,,,,,,,,,,,,,,0,41,41,3,1,DreamStudyImages_rs1000x750g/Children/Faces_124_h.jpg,,,
,,,,,,,,,,,,,,main,4,22,Female,R,Donders,2021-07-06_15h58.59.573,ImageRatingTask_S1,2021.1.4,Win32,60.07449237,,,,,,,,,,,,2,7.7989,6,2.4597,5,4.0865,0,1.9476,,,0,0,0,0,1,,,,,,,,,
,,,,,,,,,,,,,,second,4,22,Female,R,Donders,2021-07-06_15h58.59.573,ImageRatingTask_S1,2021.1.4,Win32,60.07449237,,,,,,,,,,,,,,,,,,,,,,0,1,1,1,1,,,,,,,,,
,,,,,,,,,,,,,,third,4,22,Female,R,Donders,2021-07-06_15h58.59.573,ImageRatingTask_S1,2021.1.4,Win32,60.07449237,,,,,,,,,,,,,,,,,,,,,,0,2,2,2,1,,,,,,,,,
,,,,,,,,,,,,,,fourth,4,22,Female,R,Donders,2021-07-06_15h58.59.573,ImageRatingTask_S1,2021.1.4,Win32,60.07449237,,,,,,,,,,,,,,,,,,,,,,0,3,3,3,1,,,,,,,,,
,,,,,,,,,,,,,,fifth,4,22,Female,R,Donders,2021-07-06_15h58.59.573,ImageRatingTask_S1,2021.1.4,Win32,60.07449237,,,,,,,,,,,,,,,,,,,,,,0,4,4,4,1,,,,,,,,,
,,,,,,,,,,,,,,sixth,4,22,Female,R,Donders,2021-07-06_15h58.59.573,ImageRatingTask_S1,2021.1.4,Win32,60.07449237,,,,,,,,,,,,,,,,,,,,,,0,5,5,5,1,,,,,,,,,
,,,,,,,,,,,,,,seventh,4,22,Female,R,Donders,2021-07-06_15h58.59.573,ImageRatingTask_S1,2021.1.4,Win32,60.07449237,,,,,,,,,,,,,,,,,,,,,,0,6,6,6,1,,,,,,,,,
,,,,,,,,,,,,,,last,4,22,Female,R,Donders,2021-07-06_15h58.59.573,ImageRatingTask_S1,2021.1.4,Win32,60.07449237,,,,,,,,,,,,,,,,,,,,,,0,7,7,7,1,,,,,,,,,
,,,,,,,,,,,,,,,4,22,Female,R,Donders,2021-07-06_15h58.59.573,ImageRatingTask_S1,2021.1.4,Win32,60.07449237,,,,,,,,,,,,,,,,,,,,,,,,,,,0,42,42,69,1,DreamStudyImages_rs1000x750g/Houses/IAPS9471_burntbuilding.jpg,,,
,,,,,,,,,,,,,,main,4,22,Female,R,Donders,2021-07-06_15h58.59.573,ImageRatingTask_S1,2021.1.4,Win32,60.07449237,,,,,,,,,,,,5,3.6981,1,0.884,6,1.7583,1,1.1655,2,0.7846,0,0,0,0,1,,,,,,,,,
,,,,,,,,,,,,,,second,4,22,Female,R,Donders,2021-07-06_15h58.59.573,ImageRatingTask_S1,2021.1.4,Win32,60.07449237,,,,,,,,,,,,,,,,,,,,,,0,1,1,1,1,,,,,,,,,
,,,,,,,,,,,,,,third,4,22,Female,R,Donders,2021-07-06_15h58.59.573,ImageRatingTask_S1,2021.1.4,Win32,60.07449237,,,,,,,,,,,,,,,,,,,,,,0,2,2,2,1,,,,,,,,,
,,,,,,,,,,,,,,fourth,4,22,Female,R,Donders,2021-07-06_15h58.59.573,ImageRatingTask_S1,2021.1.4,Win32,60.07449237,,,,,,,,,,,,,,,,,,,,,,0,3,3,3,1,,,,,,,,,
,,,,,,,,,,,,,,fifth,4,22,Female,R,Donders,2021-07-06_15h58.59.573,ImageRatingTask_S1,2021.1.4,Win32,60.07449237,,,,,,,,,,,,,,,,,,,,,,0,4,4,4,1,,,,,,,,,
,,,,,,,,,,,,,,sixth,4,22,Female,R,Donders,2021-07-06_15h58.59.573,ImageRatingTask_S1,2021.1.4,Win32,60.07449237,,,,,,,,,,,,,,,,,,,,,,0,5,5,5,1,,,,,,,,,
,,,,,,,,,,,,,,seventh,4,22,Female,R,Donders,2021-07-06_15h58.59.573,ImageRatingTask_S1,2021.1.4,Win32,60.07449237,,,,,,,,,,,,,,,,,,,,,,0,6,6,6,1,,,,,,,,,
,,,,,,,,,,,,,,last,4,22,Female,R,Donders,2021-07-06_15h58.59.573,ImageRatingTask_S1,2021.1.4,Win32,60.07449237,,,,,,,,,,,,,,,,,,,,,,0,7,7,7,1,,,,,,,,,
,,,,,,,,,,,,,,,4,22,Female,R,Donders,2021-07-06_15h58.59.573,ImageRatingTask_S1,2021.1.4,Win32,60.07449237,,,,,,,,,,,,,,,,,,,,,,,,,,,0,43,43,51,1,DreamStudyImages_rs1000x750g/Children/Baby 2.jpg,,,
,,,,,,,,,,,,,,main,4,22,Female,R,Donders,2021-07-06_15h58.59.573,ImageRatingTask_S1,2021.1.4,Win32,60.07449237,,,,,,,,,,,,5,5.8575,1,1.2035,7,1.8115,1,1.2328,6,1.0148,0,0,0,0,1,,,,,,,,,
,,,,,,,,,,,,,,second,4,22,Female,R,Donders,2021-07-06_15h58.59.573,ImageRatingTask_S1,2021.1.4,Win32,60.07449237,,,,,,,,,,,,,,,,,,,,,,0,1,1,1,1,,,,,,,,,
,,,,,,,,,,,,,,third,4,22,Female,R,Donders,2021-07-06_15h58.59.573,ImageRatingTask_S1,2021.1.4,Win32,60.07449237,,,,,,,,,,,,,,,,,,,,,,0,2,2,2,1,,,,,,,,,
,,,,,,,,,,,,,,fourth,4,22,Female,R,Donders,2021-07-06_15h58.59.573,ImageRatingTask_S1,2021.1.4,Win32,60.07449237,,,,,,,,,,,,,,,,,,,,,,0,3,3,3,1,,,,,,,,,
,,,,,,,,,,,,,,fifth,4,22,Female,R,Donders,2021-07-06_15h58.59.573,ImageRatingTask_S1,2021.1.4,Win32,60.07449237,,,,,,,,,,,,,,,,,,,,,,0,4,4,4,1,,,,,,,,,
,,,,,,,,,,,,,,sixth,4,22,Female,R,Donders,2021-07-06_15h58.59.573,ImageRatingTask_S1,2021.1.4,Win32,60.07449237,,,,,,,,,,,,,,,,,,,,,,0,5,5,5,1,,,,,,,,,
,,,,,,,,,,,,,,seventh,4,22,Female,R,Donders,2021-07-06_15h58.59.573,ImageRatingTask_S1,2021.1.4,Win32,60.07449237,,,,,,,,,,,,,,,,,,,,,,0,6,6,6,1,,,,,,,,,
,,,,,,,,,,,,,,last,4,22,Female,R,Donders,2021-07-06_15h58.59.573,ImageRatingTask_S1,2021.1.4,Win32,60.07449237,,,,,,,,,,,,,,,,,,,,,,0,7,7,7,1,,,,,,,,,
,,,,,,,,,,,,,,,4,22,Female,R,Donders,2021-07-06_15h58.59.573,ImageRatingTask_S1,2021.1.4,Win32,60.07449237,,,,,,,,,,,,,,,,,,,,,,,,,,,0,44,44,22,1,DreamStudyImages_rs1000x750g/Houses/Landscapes_019_h.jpg,,,
,,,,,,,,,,,,,,main,4,22,Female,R,Donders,2021-07-06_15h58.59.573,ImageRatingTask_S1,2021.1.4,Win32,60.07449237,,,,,,,,,,,,5,3.6494,1,0.9407,7,3.4496,1,2.3158,8,0.7316,0,0,0,0,1,,,,,,,,,
,,,,,,,,,,,,,,second,4,22,Female,R,Donders,2021-07-06_15h58.59.573,ImageRatingTask_S1,2021.1.4,Win32,60.07449237,,,,,,,,,,,,,,,,,,,,,,0,1,1,1,1,,,,,,,,,
,,,,,,,,,,,,,,third,4,22,Female,R,Donders,2021-07-06_15h58.59.573,ImageRatingTask_S1,2021.1.4,Win32,60.07449237,,,,,,,,,,,,,,,,,,,,,,0,2,2,2,1,,,,,,,,,
,,,,,,,,,,,,,,fourth,4,22,Female,R,Donders,2021-07-06_15h58.59.573,ImageRatingTask_S1,2021.1.4,Win32,60.07449237,,,,,,,,,,,,,,,,,,,,,,0,3,3,3,1,,,,,,,,,
,,,,,,,,,,,,,,fifth,4,22,Female,R,Donders,2021-07-06_15h58.59.573,ImageRatingTask_S1,2021.1.4,Win32,60.07449237,,,,,,,,,,,,,,,,,,,,,,0,4,4,4,1,,,,,,,,,
,,,,,,,,,,,,,,sixth,4,22,Female,R,Donders,2021-07-06_15h58.59.573,ImageRatingTask_S1,2021.1.4,Win32,60.07449237,,,,,,,,,,,,,,,,,,,,,,0,5,5,5,1,,,,,,,,,
,,,,,,,,,,,,,,seventh,4,22,Female,R,Donders,2021-07-06_15h58.59.573,ImageRatingTask_S1,2021.1.4,Win32,60.07449237,,,,,,,,,,,,,,,,,,,,,,0,6,6,6,1,,,,,,,,,
,,,,,,,,,,,,,,last,4,22,Female,R,Donders,2021-07-06_15h58.59.573,ImageRatingTask_S1,2021.1.4,Win32,60.07449237,,,,,,,,,,,,,,,,,,,,,,0,7,7,7,1,,,,,,,,,
,,,,,,,,,,,,,,,4,22,Female,R,Donders,2021-07-06_15h58.59.573,ImageRatingTask_S1,2021.1.4,Win32,60.07449237,,,,,,,,,,,,,,,,,,,,,,,,,,,0,45,45,39,1,DreamStudyImages_rs1000x750g/Water/Landscapes_109_h.jpg,,,
,,,,,,,,,,,,,,main,4,22,Female,R,Donders,2021-07-06_15h58.59.573,ImageRatingTask_S1,2021.1.4,Win32,60.07449237,,,,,,,,,,,,5,3.7463,1,1.0848,6,3.3896,1,1.1783,7,0.692,0,0,0,0,1,,,,,,,,,
,,,,,,,,,,,,,,second,4,22,Female,R,Donders,2021-07-06_15h58.59.573,ImageRatingTask_S1,2021.1.4,Win32,60.07449237,,,,,,,,,,,,,,,,,,,,,,0,1,1,1,1,,,,,,,,,
,,,,,,,,,,,,,,third,4,22,Female,R,Donders,2021-07-06_15h58.59.573,ImageRatingTask_S1,2021.1.4,Win32,60.07449237,,,,,,,,,,,,,,,,,,,,,,0,2,2,2,1,,,,,,,,,
,,,,,,,,,,,,,,fourth,4,22,Female,R,Donders,2021-07-06_15h58.59.573,ImageRatingTask_S1,2021.1.4,Win32,60.07449237,,,,,,,,,,,,,,,,,,,,,,0,3,3,3,1,,,,,,,,,
,,,,,,,,,,,,,,fifth,4,22,Female,R,Donders,2021-07-06_15h58.59.573,ImageRatingTask_S1,2021.1.4,Win32,60.07449237,,,,,,,,,,,,,,,,,,,,,,0,4,4,4,1,,,,,,,,,
,,,,,,,,,,,,,,sixth,4,22,Female,R,Donders,2021-07-06_15h58.59.573,ImageRatingTask_S1,2021.1.4,Win32,60.07449237,,,,,,,,,,,,,,,,,,,,,,0,5,5,5,1,,,,,,,,,
,,,,,,,,,,,,,,seventh,4,22,Female,R,Donders,2021-07-06_15h58.59.573,ImageRatingTask_S1,2021.1.4,Win32,60.07449237,,,,,,,,,,,,,,,,,,,,,,0,6,6,6,1,,,,,,,,,
,,,,,,,,,,,,,,last,4,22,Female,R,Donders,2021-07-06_15h58.59.573,ImageRatingTask_S1,2021.1.4,Win32,60.07449237,,,,,,,,,,,,,,,,,,,,,,0,7,7,7,1,,,,,,,,,
,,,,,,,,,,,,,,,4,22,Female,R,Donders,2021-07-06_15h58.59.573,ImageRatingTask_S1,2021.1.4,Win32,60.07449237,,,,,,,,,,,,,,,,,,,,,,,,,,,0,46,46,142,1,DreamStudyImages_rs1000x750g/Vehicles/dashboard.jpg,,,
,,,,,,,,,,,,,,main,4,22,Female,R,Donders,2021-07-06_15h58.59.573,ImageRatingTask_S1,2021.1.4,Win32,60.07449237,,,,,,,,,,,,4,6.8917,2,1.7549,7,2.1401,0,1.7512,,,0,0,0,0,1,,,,,,,,,
,,,,,,,,,,,,,,second,4,22,Female,R,Donders,2021-07-06_15h58.59.573,ImageRatingTask_S1,2021.1.4,Win32,60.07449237,,,,,,,,,,,,,,,,,,,,,,0,1,1,1,1,,,,,,,,,
,,,,,,,,,,,,,,third,4,22,Female,R,Donders,2021-07-06_15h58.59.573,ImageRatingTask_S1,2021.1.4,Win32,60.07449237,,,,,,,,,,,,,,,,,,,,,,0,2,2,2,1,,,,,,,,,
,,,,,,,,,,,,,,fourth,4,22,Female,R,Donders,2021-07-06_15h58.59.573,ImageRatingTask_S1,2021.1.4,Win32,60.07449237,,,,,,,,,,,,,,,,,,,,,,0,3,3,3,1,,,,,,,,,
,,,,,,,,,,,,,,fifth,4,22,Female,R,Donders,2021-07-06_15h58.59.573,ImageRatingTask_S1,2021.1.4,Win32,60.07449237,,,,,,,,,,,,,,,,,,,,,,0,4,4,4,1,,,,,,,,,
,,,,,,,,,,,,,,sixth,4,22,Female,R,Donders,2021-07-06_15h58.59.573,ImageRatingTask_S1,2021.1.4,Win32,60.07449237,,,,,,,,,,,,,,,,,,,,,,0,5,5,5,1,,,,,,,,,
,,,,,,,,,,,,,,seventh,4,22,Female,R,Donders,2021-07-06_15h58.59.573,ImageRatingTask_S1,2021.1.4,Win32,60.07449237,,,,,,,,,,,,,,,,,,,,,,0,6,6,6,1,,,,,,,,,
,,,,,,,,,,,,,,last,4,22,Female,R,Donders,2021-07-06_15h58.59.573,ImageRatingTask_S1,2021.1.4,Win32,60.07449237,,,,,,,,,,,,,,,,,,,,,,0,7,7,7,1,,,,,,,,,
,,,,,,,,,,,,,,,4,22,Female,R,Donders,2021-07-06_15h58.59.573,ImageRatingTask_S1,2021.1.4,Win32,60.07449237,,,,,,,,,,,,,,,,,,,,,,,,,,,0,47,47,135,1,DreamStudyImages_rs1000x750g/Water/Objects_140_h.jpg,,,
,,,,,,,,,,,,,,main,4,22,Female,R,Donders,2021-07-06_15h58.59.573,ImageRatingTask_S1,2021.1.4,Win32,60.07449237,,,,,,,,,,,,2,2.9169,6,2.1335,6,5.2254,1,3.7812,6,1.0762,0,0,0,0,1,,,,,,,,,
,,,,,,,,,,,,,,second,4,22,Female,R,Donders,2021-07-06_15h58.59.573,ImageRatingTask_S1,2021.1.4,Win32,60.07449237,,,,,,,,,,,,,,,,,,,,,,0,1,1,1,1,,,,,,,,,
,,,,,,,,,,,,,,third,4,22,Female,R,Donders,2021-07-06_15h58.59.573,ImageRatingTask_S1,2021.1.4,Win32,60.07449237,,,,,,,,,,,,,,,,,,,,,,0,2,2,2,1,,,,,,,,,
,,,,,,,,,,,,,,fourth,4,22,Female,R,Donders,2021-07-06_15h58.59.573,ImageRatingTask_S1,2021.1.4,Win32,60.07449237,,,,,,,,,,,,,,,,,,,,,,0,3,3,3,1,,,,,,,,,
,,,,,,,,,,,,,,fifth,4,22,Female,R,Donders,2021-07-06_15h58.59.573,ImageRatingTask_S1,2021.1.4,Win32,60.07449237,,,,,,,,,,,,,,,,,,,,,,0,4,4,4,1,,,,,,,,,
,,,,,,,,,,,,,,sixth,4,22,Female,R,Donders,2021-07-06_15h58.59.573,ImageRatingTask_S1,2021.1.4,Win32,60.07449237,,,,,,,,,,,,,,,,,,,,,,0,5,5,5,1,,,,,,,,,
,,,,,,,,,,,,,,seventh,4,22,Female,R,Donders,2021-07-06_15h58.59.573,ImageRatingTask_S1,2021.1.4,Win32,60.07449237,,,,,,,,,,,,,,,,,,,,,,0,6,6,6,1,,,,,,,,,
,,,,,,,,,,,,,,last,4,22,Female,R,Donders,2021-07-06_15h58.59.573,ImageRatingTask_S1,2021.1.4,Win32,60.07449237,,,,,,,,,,,,,,,,,,,,,,0,7,7,7,1,,,,,,,,,
,,,,,,,,,,,,,,,4,22,Female,R,Donders,2021-07-06_15h58.59.573,ImageRatingTask_S1,2021.1.4,Win32,60.07449237,,,,,,,,,,,,,,,,,,,,,,,,,,,0,48,48,133,1,DreamStudyImages_rs1000x750g/Houses/9941.jpg,,,
,,,,,,,,,,,,,,main,4,22,Female,R,Donders,2021-07-06_15h58.59.573,ImageRatingTask_S1,2021.1.4,Win32,60.07449237,,,,,,,,,,,,5,5.758,3,1.3572,7,2.2333,1,1.893,5,0.8076,0,0,0,0,1,,,,,,,,,
,,,,,,,,,,,,,,second,4,22,Female,R,Donders,2021-07-06_15h58.59.573,ImageRatingTask_S1,2021.1.4,Win32,60.07449237,,,,,,,,,,,,,,,,,,,,,,0,1,1,1,1,,,,,,,,,
,,,,,,,,,,,,,,third,4,22,Female,R,Donders,2021-07-06_15h58.59.573,ImageRatingTask_S1,2021.1.4,Win32,60.07449237,,,,,,,,,,,,,,,,,,,,,,0,2,2,2,1,,,,,,,,,
,,,,,,,,,,,,,,fourth,4,22,Female,R,Donders,2021-07-06_15h58.59.573,ImageRatingTask_S1,2021.1.4,Win32,60.07449237,,,,,,,,,,,,,,,,,,,,,,0,3,3,3,1,,,,,,,,,
,,,,,,,,,,,,,,fifth,4,22,Female,R,Donders,2021-07-06_15h58.59.573,ImageRatingTask_S1,2021.1.4,Win32,60.07449237,,,,,,,,,,,,,,,,,,,,,,0,4,4,4,1,,,,,,,,,
,,,,,,,,,,,,,,sixth,4,22,Female,R,Donders,2021-07-06_15h58.59.573,ImageRatingTask_S1,2021.1.4,Win32,60.07449237,,,,,,,,,,,,,,,,,,,,,,0,5,5,5,1,,,,,,,,,
,,,,,,,,,,,,,,seventh,4,22,Female,R,Donders,2021-07-06_15h58.59.573,ImageRatingTask_S1,2021.1.4,Win32,60.07449237,,,,,,,,,,,,,,,,,,,,,,0,6,6,6,1,,,,,,,,,
,,,,,,,,,,,,,,last,4,22,Female,R,Donders,2021-07-06_15h58.59.573,ImageRatingTask_S1,2021.1.4,Win32,60.07449237,,,,,,,,,,,,,,,,,,,,,,0,7,7,7,1,,,,,,,,,
,,,,,,,,,,,,,,,4,22,Female,R,Donders,2021-07-06_15h58.59.573,ImageRatingTask_S1,2021.1.4,Win32,60.07449237,,,,,,,,,,,,,,,,,,,,,,,,,,,0,49,49,99,1,DreamStudyImages_rs1000x750g/Food/Objects_061_h.jpg,,,
,,,,,,,,,,,,,,main,4,22,Female,R,Donders,2021-07-06_15h58.59.573,ImageRatingTask_S1,2021.1.4,Win32,60.07449237,,,,,,,,,,,,5,5.1926,1,1.1535,6,1.9917,1,2.3993,7,1.0094,0,0,0,0,1,,,,,,,,,
,,,,,,,,,,,,,,second,4,22,Female,R,Donders,2021-07-06_15h58.59.573,ImageRatingTask_S1,2021.1.4,Win32,60.07449237,,,,,,,,,,,,,,,,,,,,,,0,1,1,1,1,,,,,,,,,
,,,,,,,,,,,,,,third,4,22,Female,R,Donders,2021-07-06_15h58.59.573,ImageRatingTask_S1,2021.1.4,Win32,60.07449237,,,,,,,,,,,,,,,,,,,,,,0,2,2,2,1,,,,,,,,,
,,,,,,,,,,,,,,fourth,4,22,Female,R,Donders,2021-07-06_15h58.59.573,ImageRatingTask_S1,2021.1.4,Win32,60.07449237,,,,,,,,,,,,,,,,,,,,,,0,3,3,3,1,,,,,,,,,
,,,,,,,,,,,,,,fifth,4,22,Female,R,Donders,2021-07-06_15h58.59.573,ImageRatingTask_S1,2021.1.4,Win32,60.07449237,,,,,,,,,,,,,,,,,,,,,,0,4,4,4,1,,,,,,,,,
,,,,,,,,,,,,,,sixth,4,22,Female,R,Donders,2021-07-06_15h58.59.573,ImageRatingTask_S1,2021.1.4,Win32,60.07449237,,,,,,,,,,,,,,,,,,,,,,0,5,5,5,1,,,,,,,,,
,,,,,,,,,,,,,,seventh,4,22,Female,R,Donders,2021-07-06_15h58.59.573,ImageRatingTask_S1,2021.1.4,Win32,60.07449237,,,,,,,,,,,,,,,,,,,,,,0,6,6,6,1,,,,,,,,,
,,,,,,,,,,,,,,last,4,22,Female,R,Donders,2021-07-06_15h58.59.573,ImageRatingTask_S1,2021.1.4,Win32,60.07449237,,,,,,,,,,,,,,,,,,,,,,0,7,7,7,1,,,,,,,,,
,,,,,,,,,,,,,,,4,22,Female,R,Donders,2021-07-06_15h58.59.573,ImageRatingTask_S1,2021.1.4,Win32,60.07449237,,,,,,,,,,,,,,,,,,,,,,,,,,,0,50,50,104,1,DreamStudyImages_rs1000x750g/Vehicles/vanfleet.jpg,,,
,,,,,,,,,,,,,,main,4,22,Female,R,Donders,2021-07-06_15h58.59.573,ImageRatingTask_S1,2021.1.4,Win32,60.07449237,,,,,,,,,,,,6,2.5572,1,1.4013,7,1.9372,1,1.4,2,0.3774,0,0,0,0,1,,,,,,,,,
,,,,,,,,,,,,,,second,4,22,Female,R,Donders,2021-07-06_15h58.59.573,ImageRatingTask_S1,2021.1.4,Win32,60.07449237,,,,,,,,,,,,,,,,,,,,,,0,1,1,1,1,,,,,,,,,
,,,,,,,,,,,,,,third,4,22,Female,R,Donders,2021-07-06_15h58.59.573,ImageRatingTask_S1,2021.1.4,Win32,60.07449237,,,,,,,,,,,,,,,,,,,,,,0,2,2,2,1,,,,,,,,,
,,,,,,,,,,,,,,fourth,4,22,Female,R,Donders,2021-07-06_15h58.59.573,ImageRatingTask_S1,2021.1.4,Win32,60.07449237,,,,,,,,,,,,,,,,,,,,,,0,3,3,3,1,,,,,,,,,
,,,,,,,,,,,,,,fifth,4,22,Female,R,Donders,2021-07-06_15h58.59.573,ImageRatingTask_S1,2021.1.4,Win32,60.07449237,,,,,,,,,,,,,,,,,,,,,,0,4,4,4,1,,,,,,,,,
,,,,,,,,,,,,,,sixth,4,22,Female,R,Donders,2021-07-06_15h58.59.573,ImageRatingTask_S1,2021.1.4,Win32,60.07449237,,,,,,,,,,,,,,,,,,,,,,0,5,5,5,1,,,,,,,,,
,,,,,,,,,,,,,,seventh,4,22,Female,R,Donders,2021-07-06_15h58.59.573,ImageRatingTask_S1,2021.1.4,Win32,60.07449237,,,,,,,,,,,,,,,,,,,,,,0,6,6,6,1,,,,,,,,,
,,,,,,,,,,,,,,last,4,22,Female,R,Donders,2021-07-06_15h58.59.573,ImageRatingTask_S1,2021.1.4,Win32,60.07449237,,,,,,,,,,,,,,,,,,,,,,0,7,7,7,1,,,,,,,,,
,,,,,,,,,,,,,,,4,22,Female,R,Donders,2021-07-06_15h58.59.573,ImageRatingTask_S1,2021.1.4,Win32,60.07449237,,,,,,,,,,,,,,,,,,,,,,,,,,,0,51,51,66,1,DreamStudyImages_rs1000x750g/Children/Faces_123_h.jpg,,,
,,,,,,,,,,,,,,main,4,22,Female,R,Donders,2021-07-06_15h58.59.573,ImageRatingTask_S1,2021.1.4,Win32,60.07449237,,,,,,,,,,,,5,2.5539,1,1.3016,6,5.5592,1,1.7084,5,1.2044,0,0,0,0,1,,,,,,,,,
,,,,,,,,,,,,,,second,4,22,Female,R,Donders,2021-07-06_15h58.59.573,ImageRatingTask_S1,2021.1.4,Win32,60.07449237,,,,,,,,,,,,,,,,,,,,,,0,1,1,1,1,,,,,,,,,
,,,,,,,,,,,,,,third,4,22,Female,R,Donders,2021-07-06_15h58.59.573,ImageRatingTask_S1,2021.1.4,Win32,60.07449237,,,,,,,,,,,,,,,,,,,,,,0,2,2,2,1,,,,,,,,,
,,,,,,,,,,,,,,fourth,4,22,Female,R,Donders,2021-07-06_15h58.59.573,ImageRatingTask_S1,2021.1.4,Win32,60.07449237,,,,,,,,,,,,,,,,,,,,,,0,3,3,3,1,,,,,,,,,
,,,,,,,,,,,,,,fifth,4,22,Female,R,Donders,2021-07-06_15h58.59.573,ImageRatingTask_S1,2021.1.4,Win32,60.07449237,,,,,,,,,,,,,,,,,,,,,,0,4,4,4,1,,,,,,,,,
,,,,,,,,,,,,,,sixth,4,22,Female,R,Donders,2021-07-06_15h58.59.573,ImageRatingTask_S1,2021.1.4,Win32,60.07449237,,,,,,,,,,,,,,,,,,,,,,0,5,5,5,1,,,,,,,,,
,,,,,,,,,,,,,,seventh,4,22,Female,R,Donders,2021-07-06_15h58.59.573,ImageRatingTask_S1,2021.1.4,Win32,60.07449237,,,,,,,,,,,,,,,,,,,,,,0,6,6,6,1,,,,,,,,,
,,,,,,,,,,,,,,last,4,22,Female,R,Donders,2021-07-06_15h58.59.573,ImageRatingTask_S1,2021.1.4,Win32,60.07449237,,,,,,,,,,,,,,,,,,,,,,0,7,7,7,1,,,,,,,,,
,,,,,,,,,,,,,,,4,22,Female,R,Donders,2021-07-06_15h58.59.573,ImageRatingTask_S1,2021.1.4,Win32,60.07449237,,,,,,,,,,,,,,,,,,,,,,,,,,,0,52,52,40,1,DreamStudyImages_rs1000x750g/Food/Objects_048_h.jpg,,,
,,,,,,,,,,,,,,main,4,22,Female,R,Donders,2021-07-06_15h58.59.573,ImageRatingTask_S1,2021.1.4,Win32,60.07449237,,,,,,,,,,,,5,6.3913,4,2.4225,6,6.1481,2,5.4117,4,1.1231,0,0,0,0,1,,,,,,,,,
,,,,,,,,,,,,,,second,4,22,Female,R,Donders,2021-07-06_15h58.59.573,ImageRatingTask_S1,2021.1.4,Win32,60.07449237,,,,,,,,,,,,,,,,,,,,5,1.2069,0,1,1,1,1,,,,,,,,,
,,,,,,,,,,,,,,third,4,22,Female,R,Donders,2021-07-06_15h58.59.573,ImageRatingTask_S1,2021.1.4,Win32,60.07449237,,,,,,,,,,,,,,,,,,,,,,0,2,2,2,1,,,,,,,,,
,,,,,,,,,,,,,,fourth,4,22,Female,R,Donders,2021-07-06_15h58.59.573,ImageRatingTask_S1,2021.1.4,Win32,60.07449237,,,,,,,,,,,,,,,,,,,,,,0,3,3,3,1,,,,,,,,,
,,,,,,,,,,,,,,fifth,4,22,Female,R,Donders,2021-07-06_15h58.59.573,ImageRatingTask_S1,2021.1.4,Win32,60.07449237,,,,,,,,,,,,,,,,,,,,,,0,4,4,4,1,,,,,,,,,
,,,,,,,,,,,,,,sixth,4,22,Female,R,Donders,2021-07-06_15h58.59.573,ImageRatingTask_S1,2021.1.4,Win32,60.07449237,,,,,,,,,,,,,,,,,,,,,,0,5,5,5,1,,,,,,,,,
,,,,,,,,,,,,,,seventh,4,22,Female,R,Donders,2021-07-06_15h58.59.573,ImageRatingTask_S1,2021.1.4,Win32,60.07449237,,,,,,,,,,,,,,,,,,,,,,0,6,6,6,1,,,,,,,,,
,,,,,,,,,,,,,,last,4,22,Female,R,Donders,2021-07-06_15h58.59.573,ImageRatingTask_S1,2021.1.4,Win32,60.07449237,,,,,,,,,,,,,,,,,,,,,,0,7,7,7,1,,,,,,,,,
,,,,,,,,,,,,,,,4,22,Female,R,Donders,2021-07-06_15h58.59.573,ImageRatingTask_S1,2021.1.4,Win32,60.07449237,,,,,,,,,,,,,,,,,,,,,,,,,,,0,53,53,159,1,DreamStudyImages_rs1000x750g/Mammals/Lion 5.jpg,,,
,,,,,,,,,,,,,,main,4,22,Female,R,Donders,2021-07-06_15h58.59.573,ImageRatingTask_S1,2021.1.4,Win32,60.07449237,,,,,,,,,,,,5,5.5452,1,1.2066,5,2.3448,1,1.5832,8,0.6396,0,0,0,0,1,,,,,,,,,
,,,,,,,,,,,,,,second,4,22,Female,R,Donders,2021-07-06_15h58.59.573,ImageRatingTask_S1,2021.1.4,Win32,60.07449237,,,,,,,,,,,,,,,,,,,,,,0,1,1,1,1,,,,,,,,,
,,,,,,,,,,,,,,third,4,22,Female,R,Donders,2021-07-06_15h58.59.573,ImageRatingTask_S1,2021.1.4,Win32,60.07449237,,,,,,,,,,,,,,,,,,,,,,0,2,2,2,1,,,,,,,,,
,,,,,,,,,,,,,,fourth,4,22,Female,R,Donders,2021-07-06_15h58.59.573,ImageRatingTask_S1,2021.1.4,Win32,60.07449237,,,,,,,,,,,,,,,,,,,,,,0,3,3,3,1,,,,,,,,,
,,,,,,,,,,,,,,fifth,4,22,Female,R,Donders,2021-07-06_15h58.59.573,ImageRatingTask_S1,2021.1.4,Win32,60.07449237,,,,,,,,,,,,,,,,,,,,,,0,4,4,4,1,,,,,,,,,
,,,,,,,,,,,,,,sixth,4,22,Female,R,Donders,2021-07-06_15h58.59.573,ImageRatingTask_S1,2021.1.4,Win32,60.07449237,,,,,,,,,,,,,,,,,,,,,,0,5,5,5,1,,,,,,,,,
,,,,,,,,,,,,,,seventh,4,22,Female,R,Donders,2021-07-06_15h58.59.573,ImageRatingTask_S1,2021.1.4,Win32,60.07449237,,,,,,,,,,,,,,,,,,,,,,0,6,6,6,1,,,,,,,,,
,,,,,,,,,,,,,,last,4,22,Female,R,Donders,2021-07-06_15h58.59.573,ImageRatingTask_S1,2021.1.4,Win32,60.07449237,,,,,,,,,,,,,,,,,,,,,,0,7,7,7,1,,,,,,,,,
,,,,,,,,,,,,,,,4,22,Female,R,Donders,2021-07-06_15h58.59.573,ImageRatingTask_S1,2021.1.4,Win32,60.07449237,,,,,,,,,,,,,,,,,,,,,,,,,,,0,54,54,71,1,DreamStudyImages_rs1000x750g/Water/cityfountain.jpg,,,
,,,,,,,,,,,,,,main,4,22,Female,R,Donders,2021-07-06_15h58.59.573,ImageRatingTask_S1,2021.1.4,Win32,60.07449237,,,,,,,,,,,,7,3.8293,1,1.3919,5,5.052,1,3.3661,8,1.0775,0,0,0,0,1,,,,,,,,,
,,,,,,,,,,,,,,second,4,22,Female,R,Donders,2021-07-06_15h58.59.573,ImageRatingTask_S1,2021.1.4,Win32,60.07449237,,,,,,,,,,,,,,,,,,,,,,0,1,1,1,1,,,,,,,,,
,,,,,,,,,,,,,,third,4,22,Female,R,Donders,2021-07-06_15h58.59.573,ImageRatingTask_S1,2021.1.4,Win32,60.07449237,,,,,,,,,,,,,,,,,,,,,,0,2,2,2,1,,,,,,,,,
,,,,,,,,,,,,,,fourth,4,22,Female,R,Donders,2021-07-06_15h58.59.573,ImageRatingTask_S1,2021.1.4,Win32,60.07449237,,,,,,,,,,,,,,,,,,,,,,0,3,3,3,1,,,,,,,,,
,,,,,,,,,,,,,,fifth,4,22,Female,R,Donders,2021-07-06_15h58.59.573,ImageRatingTask_S1,2021.1.4,Win32,60.07449237,,,,,,,,,,,,,,,,,,,,,,0,4,4,4,1,,,,,,,,,
,,,,,,,,,,,,,,sixth,4,22,Female,R,Donders,2021-07-06_15h58.59.573,ImageRatingTask_S1,2021.1.4,Win32,60.07449237,,,,,,,,,,,,,,,,,,,,,,0,5,5,5,1,,,,,,,,,
,,,,,,,,,,,,,,seventh,4,22,Female,R,Donders,2021-07-06_15h58.59.573,ImageRatingTask_S1,2021.1.4,Win32,60.07449237,,,,,,,,,,,,,,,,,,,,,,0,6,6,6,1,,,,,,,,,
,,,,,,,,,,,,,,last,4,22,Female,R,Donders,2021-07-06_15h58.59.573,ImageRatingTask_S1,2021.1.4,Win32,60.07449237,,,,,,,,,,,,,,,,,,,,,,0,7,7,7,1,,,,,,,,,
,,,,,,,,,,,,,,,4,22,Female,R,Donders,2021-07-06_15h58.59.573,ImageRatingTask_S1,2021.1.4,Win32,60.07449237,,,,,,,,,,,,,,,,,,,,,,,,,,,0,55,55,109,1,DreamStudyImages_rs1000x750g/Water/Bridge 1.jpg,,,
,,,,,,,,,,,,,,main,4,22,Female,R,Donders,2021-07-06_15h58.59.573,ImageRatingTask_S1,2021.1.4,Win32,60.07449237,,,,,,,,,,,,1,3.6894,8,3.4474,6,4.3846,1,4.1525,2,0.8962,0,0,0,0,1,,,,,,,,,
,,,,,,,,,,,,,,second,4,22,Female,R,Donders,2021-07-06_15h58.59.573,ImageRatingTask_S1,2021.1.4,Win32,60.07449237,,,,,,,,,,,,,,,,,,,,,,0,1,1,1,1,,,,,,,,,
,,,,,,,,,,,,,,third,4,22,Female,R,Donders,2021-07-06_15h58.59.573,ImageRatingTask_S1,2021.1.4,Win32,60.07449237,,,,,,,,,,,,,,,,,,,,,,0,2,2,2,1,,,,,,,,,
,,,,,,,,,,,,,,fourth,4,22,Female,R,Donders,2021-07-06_15h58.59.573,ImageRatingTask_S1,2021.1.4,Win32,60.07449237,,,,,,,,,,,,,,,,,,,,,,0,3,3,3,1,,,,,,,,,
,,,,,,,,,,,,,,fifth,4,22,Female,R,Donders,2021-07-06_15h58.59.573,ImageRatingTask_S1,2021.1.4,Win32,60.07449237,,,,,,,,,,,,,,,,,,,,,,0,4,4,4,1,,,,,,,,,
,,,,,,,,,,,,,,sixth,4,22,Female,R,Donders,2021-07-06_15h58.59.573,ImageRatingTask_S1,2021.1.4,Win32,60.07449237,,,,,,,,,,,,,,,,,,,,,,0,5,5,5,1,,,,,,,,,
,,,,,,,,,,,,,,seventh,4,22,Female,R,Donders,2021-07-06_15h58.59.573,ImageRatingTask_S1,2021.1.4,Win32,60.07449237,,,,,,,,,,,,,,,,,,,,,,0,6,6,6,1,,,,,,,,,
,,,,,,,,,,,,,,last,4,22,Female,R,Donders,2021-07-06_15h58.59.573,ImageRatingTask_S1,2021.1.4,Win32,60.07449237,,,,,,,,,,,,,,,,,,,,,,0,7,7,7,1,,,,,,,,,
,,,,,,,,,,,,,,,4,22,Female,R,Donders,2021-07-06_15h58.59.573,ImageRatingTask_S1,2021.1.4,Win32,60.07449237,,,,,,,,,,,,,,,,,,,,,,,,,,,0,56,56,88,1,DreamStudyImages_rs1000x750g/Children/Miserable pose 3.jpg,,,
,,,,,,,,,,,,,,main,4,22,Female,R,Donders,2021-07-06_15h58.59.573,ImageRatingTask_S1,2021.1.4,Win32,60.07449237,,,,,,,,,,,,3,2.4546,3,1.5606,7,2.5612,1,3.7469,3,0.3214,0,0,0,0,1,,,,,,,,,
,,,,,,,,,,,,,,second,4,22,Female,R,Donders,2021-07-06_15h58.59.573,ImageRatingTask_S1,2021.1.4,Win32,60.07449237,,,,,,,,,,,,,,,,,,,,,,0,1,1,1,1,,,,,,,,,
,,,,,,,,,,,,,,third,4,22,Female,R,Donders,2021-07-06_15h58.59.573,ImageRatingTask_S1,2021.1.4,Win32,60.07449237,,,,,,,,,,,,,,,,,,,,,,0,2,2,2,1,,,,,,,,,
,,,,,,,,,,,,,,fourth,4,22,Female,R,Donders,2021-07-06_15h58.59.573,ImageRatingTask_S1,2021.1.4,Win32,60.07449237,,,,,,,,,,,,,,,,,,,,,,0,3,3,3,1,,,,,,,,,
,,,,,,,,,,,,,,fifth,4,22,Female,R,Donders,2021-07-06_15h58.59.573,ImageRatingTask_S1,2021.1.4,Win32,60.07449237,,,,,,,,,,,,,,,,,,,,,,0,4,4,4,1,,,,,,,,,
,,,,,,,,,,,,,,sixth,4,22,Female,R,Donders,2021-07-06_15h58.59.573,ImageRatingTask_S1,2021.1.4,Win32,60.07449237,,,,,,,,,,,,,,,,,,,,,,0,5,5,5,1,,,,,,,,,
,,,,,,,,,,,,,,seventh,4,22,Female,R,Donders,2021-07-06_15h58.59.573,ImageRatingTask_S1,2021.1.4,Win32,60.07449237,,,,,,,,,,,,,,,,,,,,,,0,6,6,6,1,,,,,,,,,
,,,,,,,,,,,,,,last,4,22,Female,R,Donders,2021-07-06_15h58.59.573,ImageRatingTask_S1,2021.1.4,Win32,60.07449237,,,,,,,,,,,,,,,,,,,,,,0,7,7,7,1,,,,,,,,,
,,,,,,,,,,,,,,,4,22,Female,R,Donders,2021-07-06_15h58.59.573,ImageRatingTask_S1,2021.1.4,Win32,60.07449237,,,,,,,,,,,,,,,,,,,,,,,,,,,0,57,57,33,1,DreamStudyImages_rs1000x750g/Mammals/Animals_176_h.jpg,,,
,,,,,,,,,,,,,,main,4,22,Female,R,Donders,2021-07-06_15h58.59.573,ImageRatingTask_S1,2021.1.4,Win32,60.07449237,,,,,,,,,,,,7,5.4645,4,4.398,5,2.1136,3,4.2248,8,3.0545,0,0,0,0,1,,,,,,,,,
,,,,,,,,,,,,,,second,4,22,Female,R,Donders,2021-07-06_15h58.59.573,ImageRatingTask_S1,2021.1.4,Win32,60.07449237,,,,,,,,,,,,,,,,,,,,1,1.7656,0,1,1,1,1,,,,,,,,,
,,,,,,,,,,,,,,third,4,22,Female,R,Donders,2021-07-06_15h58.59.573,ImageRatingTask_S1,2021.1.4,Win32,60.07449237,,,,,,,,,,,,,,,,,,,,2,0.2167,0,2,2,2,1,,,,,,,,,
,,,,,,,,,,,,,,fourth,4,22,Female,R,Donders,2021-07-06_15h58.59.573,ImageRatingTask_S1,2021.1.4,Win32,60.07449237,,,,,,,,,,,,,,,,,,,,,,0,3,3,3,1,,,,,,,,,
,,,,,,,,,,,,,,fifth,4,22,Female,R,Donders,2021-07-06_15h58.59.573,ImageRatingTask_S1,2021.1.4,Win32,60.07449237,,,,,,,,,,,,,,,,,,,,,,0,4,4,4,1,,,,,,,,,
,,,,,,,,,,,,,,sixth,4,22,Female,R,Donders,2021-07-06_15h58.59.573,ImageRatingTask_S1,2021.1.4,Win32,60.07449237,,,,,,,,,,,,,,,,,,,,,,0,5,5,5,1,,,,,,,,,
,,,,,,,,,,,,,,seventh,4,22,Female,R,Donders,2021-07-06_15h58.59.573,ImageRatingTask_S1,2021.1.4,Win32,60.07449237,,,,,,,,,,,,,,,,,,,,,,0,6,6,6,1,,,,,,,,,
,,,,,,,,,,,,,,last,4,22,Female,R,Donders,2021-07-06_15h58.59.573,ImageRatingTask_S1,2021.1.4,Win32,60.07449237,,,,,,,,,,,,,,,,,,,,,,0,7,7,7,1,,,,,,,,,
,,,,,,,,,,,,,,,4,22,Female,R,Donders,2021-07-06_15h58.59.573,ImageRatingTask_S1,2021.1.4,Win32,60.07449237,,,,,,,,,,,,,,,,,,,,,,,,,,,0,58,58,121,1,DreamStudyImages_rs1000x750g/Water/5833.jpg,,,
,,,,,,,,,,,,,,main,4,22,Female,R,Donders,2021-07-06_15h58.59.573,ImageRatingTask_S1,2021.1.4,Win32,60.07449237,,,,,,,,,,,,4,2.4286,2,1.6228,6,1.7167,1,2.2197,6,0.8401,0,0,0,0,1,,,,,,,,,
,,,,,,,,,,,,,,second,4,22,Female,R,Donders,2021-07-06_15h58.59.573,ImageRatingTask_S1,2021.1.4,Win32,60.07449237,,,,,,,,,,,,,,,,,,,,,,0,1,1,1,1,,,,,,,,,
,,,,,,,,,,,,,,third,4,22,Female,R,Donders,2021-07-06_15h58.59.573,ImageRatingTask_S1,2021.1.4,Win32,60.07449237,,,,,,,,,,,,,,,,,,,,,,0,2,2,2,1,,,,,,,,,
,,,,,,,,,,,,,,fourth,4,22,Female,R,Donders,2021-07-06_15h58.59.573,ImageRatingTask_S1,2021.1.4,Win32,60.07449237,,,,,,,,,,,,,,,,,,,,,,0,3,3,3,1,,,,,,,,,
,,,,,,,,,,,,,,fifth,4,22,Female,R,Donders,2021-07-06_15h58.59.573,ImageRatingTask_S1,2021.1.4,Win32,60.07449237,,,,,,,,,,,,,,,,,,,,,,0,4,4,4,1,,,,,,,,,
,,,,,,,,,,,,,,sixth,4,22,Female,R,Donders,2021-07-06_15h58.59.573,ImageRatingTask_S1,2021.1.4,Win32,60.07449237,,,,,,,,,,,,,,,,,,,,,,0,5,5,5,1,,,,,,,,,
,,,,,,,,,,,,,,seventh,4,22,Female,R,Donders,2021-07-06_15h58.59.573,ImageRatingTask_S1,2021.1.4,Win32,60.07449237,,,,,,,,,,,,,,,,,,,,,,0,6,6,6,1,,,,,,,,,
,,,,,,,,,,,,,,last,4,22,Female,R,Donders,2021-07-06_15h58.59.573,ImageRatingTask_S1,2021.1.4,Win32,60.07449237,,,,,,,,,,,,,,,,,,,,,,0,7,7,7,1,,,,,,,,,
,,,,,,,,,,,,,,,4,22,Female,R,Donders,2021-07-06_15h58.59.573,ImageRatingTask_S1,2021.1.4,Win32,60.07449237,,,,,,,,,,,,,,,,,,,,,,,,,,,0,59,59,90,1,DreamStudyImages_rs1000x750g/Houses/Landscapes_016_h.jpg,,,
,,,,,,,,,,,,,,main,4,22,Female,R,Donders,2021-07-06_15h58.59.573,ImageRatingTask_S1,2021.1.4,Win32,60.07449237,,,,,,,,,,,,6,3.4888,2,1.4315,6,1.9826,1,1.2705,3,0.9885,0,0,0,0,1,,,,,,,,,
,,,,,,,,,,,,,,second,4,22,Female,R,Donders,2021-07-06_15h58.59.573,ImageRatingTask_S1,2021.1.4,Win32,60.07449237,,,,,,,,,,,,,,,,,,,,,,0,1,1,1,1,,,,,,,,,
,,,,,,,,,,,,,,third,4,22,Female,R,Donders,2021-07-06_15h58.59.573,ImageRatingTask_S1,2021.1.4,Win32,60.07449237,,,,,,,,,,,,,,,,,,,,,,0,2,2,2,1,,,,,,,,,
,,,,,,,,,,,,,,fourth,4,22,Female,R,Donders,2021-07-06_15h58.59.573,ImageRatingTask_S1,2021.1.4,Win32,60.07449237,,,,,,,,,,,,,,,,,,,,,,0,3,3,3,1,,,,,,,,,
,,,,,,,,,,,,,,fifth,4,22,Female,R,Donders,2021-07-06_15h58.59.573,ImageRatingTask_S1,2021.1.4,Win32,60.07449237,,,,,,,,,,,,,,,,,,,,,,0,4,4,4,1,,,,,,,,,
,,,,,,,,,,,,,,sixth,4,22,Female,R,Donders,2021-07-06_15h58.59.573,ImageRatingTask_S1,2021.1.4,Win32,60.07449237,,,,,,,,,,,,,,,,,,,,,,0,5,5,5,1,,,,,,,,,
,,,,,,,,,,,,,,seventh,4,22,Female,R,Donders,2021-07-06_15h58.59.573,ImageRatingTask_S1,2021.1.4,Win32,60.07449237,,,,,,,,,,,,,,,,,,,,,,0,6,6,6,1,,,,,,,,,
,,,,,,,,,,,,,,last,4,22,Female,R,Donders,2021-07-06_15h58.59.573,ImageRatingTask_S1,2021.1.4,Win32,60.07449237,,,,,,,,,,,,,,,,,,,,,,0,7,7,7,1,,,,,,,,,
,,,,,,,,,,,,,,,4,22,Female,R,Donders,2021-07-06_15h58.59.573,ImageRatingTask_S1,2021.1.4,Win32,60.07449237,,,,,,,,,,,,,,,,,,,,,,,,,,,0,60,60,141,1,DreamStudyImages_rs1000x750g/Mammals/Lion 1.jpg,,,
,,,,,,,,,,,,,,main,4,22,Female,R,Donders,2021-07-06_15h58.59.573,ImageRatingTask_S1,2021.1.4,Win32,60.07449237,,,,,,,,,,,,3,3.8068,5,3.7722,5,1.8653,1,2.1162,7,0.9952,0,0,0,0,1,,,,,,,,,
,,,,,,,,,,,,,,second,4,22,Female,R,Donders,2021-07-06_15h58.59.573,ImageRatingTask_S1,2021.1.4,Win32,60.07449237,,,,,,,,,,,,,,,,,,,,,,0,1,1,1,1,,,,,,,,,
,,,,,,,,,,,,,,third,4,22,Female,R,Donders,2021-07-06_15h58.59.573,ImageRatingTask_S1,2021.1.4,Win32,60.07449237,,,,,,,,,,,,,,,,,,,,,,0,2,2,2,1,,,,,,,,,
,,,,,,,,,,,,,,fourth,4,22,Female,R,Donders,2021-07-06_15h58.59.573,ImageRatingTask_S1,2021.1.4,Win32,60.07449237,,,,,,,,,,,,,,,,,,,,,,0,3,3,3,1,,,,,,,,,
,,,,,,,,,,,,,,fifth,4,22,Female,R,Donders,2021-07-06_15h58.59.573,ImageRatingTask_S1,2021.1.4,Win32,60.07449237,,,,,,,,,,,,,,,,,,,,,,0,4,4,4,1,,,,,,,,,
,,,,,,,,,,,,,,sixth,4,22,Female,R,Donders,2021-07-06_15h58.59.573,ImageRatingTask_S1,2021.1.4,Win32,60.07449237,,,,,,,,,,,,,,,,,,,,,,0,5,5,5,1,,,,,,,,,
,,,,,,,,,,,,,,seventh,4,22,Female,R,Donders,2021-07-06_15h58.59.573,ImageRatingTask_S1,2021.1.4,Win32,60.07449237,,,,,,,,,,,,,,,,,,,,,,0,6,6,6,1,,,,,,,,,
,,,,,,,,,,,,,,last,4,22,Female,R,Donders,2021-07-06_15h58.59.573,ImageRatingTask_S1,2021.1.4,Win32,60.07449237,,,,,,,,,,,,,,,,,,,,,,0,7,7,7,1,,,,,,,,,
,,,,,,,,,,,,,,,4,22,Female,R,Donders,2021-07-06_15h58.59.573,ImageRatingTask_S1,2021.1.4,Win32,60.07449237,,,,,,,,,,,,,,,,,,,,,,,,,,,0,61,61,146,1,DreamStudyImages_rs1000x750g/Vehicles/IAPS9909_carcrash6.jpg,,,
