slider_pre.response,slider_pre.rt,key_val.keys,key_val.rt,key_aro.keys,key_aro.rt,key_qual.keys,key_qual.rt,key_ncat.keys,key_ncat.rt,key_cats.keys,key_cats.rt,ncat_order.thisRepN,ncat_order.thisTrialN,ncat_order.thisN,ncat_order.thisIndex,ncat_order.ran,cond_cat,participant,age,gender,handedness (L/R),site (IMT/Donders),date,expName,psychopyVersion,OS,frameRate,img_trials.thisRepN,img_trials.thisTrialN,img_trials.thisN,img_trials.thisIndex,img_trials.ran,filename,slider_post.response,slider_post.rt,textbox_openfb.text
3,163.2908,8,42.5195,6,1.721,7,2.3294,1,1.6975,5,0.9713,0,0,0,0,1,main,5,21,Female,R,Donders,2021-07-07_15h28.40.941,ImageRatingTask_S2,2021.1.4,Win32,60.04202942,,,,,,,,,
,,,,,,,,,,,,0,1,1,1,1,second,5,21,Female,R,Donders,2021-07-07_15h28.40.941,ImageRatingTask_S2,2021.1.4,Win32,60.04202942,,,,,,,,,
,,,,,,,,,,,,0,2,2,2,1,third,5,21,Female,R,Donders,2021-07-07_15h28.40.941,ImageRatingTask_S2,2021.1.4,Win32,60.04202942,,,,,,,,,
,,,,,,,,,,,,0,3,3,3,1,fourth,5,21,Female,R,Donders,2021-07-07_15h28.40.941,ImageRatingTask_S2,2021.1.4,Win32,60.04202942,,,,,,,,,
,,,,,,,,,,,,0,4,4,4,1,fifth,5,21,Female,R,Donders,2021-07-07_15h28.40.941,ImageRatingTask_S2,2021.1.4,Win32,60.04202942,,,,,,,,,
,,,,,,,,,,,,0,5,5,5,1,sixth,5,21,Female,R,Donders,2021-07-07_15h28.40.941,ImageRatingTask_S2,2021.1.4,Win32,60.04202942,,,,,,,,,
,,,,,,,,,,,,0,6,6,6,1,seventh,5,21,Female,R,Donders,2021-07-07_15h28.40.941,ImageRatingTask_S2,2021.1.4,Win32,60.04202942,,,,,,,,,
,,,,,,,,,,,,0,7,7,7,1,last,5,21,Female,R,Donders,2021-07-07_15h28.40.941,ImageRatingTask_S2,2021.1.4,Win32,60.04202942,,,,,,,,,
,,,,,,,,,,,,,,,,,,5,21,Female,R,Donders,2021-07-07_15h28.40.941,ImageRatingTask_S2,2021.1.4,Win32,60.04202942,0,0,0,25,1,DreamStudyImages_rs1000x750g/Food/IAPS7410_chocolate2.jpg,,,
,,5,38.439,5,0.2736,9,1.7818,1,1.9246,2,1.1807,0,0,0,0,1,main,5,21,Female,R,Donders,2021-07-07_15h28.40.941,ImageRatingTask_S2,2021.1.4,Win32,60.04202942,,,,,,,,,
,,,,,,,,,,,,0,1,1,1,1,second,5,21,Female,R,Donders,2021-07-07_15h28.40.941,ImageRatingTask_S2,2021.1.4,Win32,60.04202942,,,,,,,,,
,,,,,,,,,,,,0,2,2,2,1,third,5,21,Female,R,Donders,2021-07-07_15h28.40.941,ImageRatingTask_S2,2021.1.4,Win32,60.04202942,,,,,,,,,
,,,,,,,,,,,,0,3,3,3,1,fourth,5,21,Female,R,Donders,2021-07-07_15h28.40.941,ImageRatingTask_S2,2021.1.4,Win32,60.04202942,,,,,,,,,
,,,,,,,,,,,,0,4,4,4,1,fifth,5,21,Female,R,Donders,2021-07-07_15h28.40.941,ImageRatingTask_S2,2021.1.4,Win32,60.04202942,,,,,,,,,
,,,,,,,,,,,,0,5,5,5,1,sixth,5,21,Female,R,Donders,2021-07-07_15h28.40.941,ImageRatingTask_S2,2021.1.4,Win32,60.04202942,,,,,,,,,
,,,,,,,,,,,,0,6,6,6,1,seventh,5,21,Female,R,Donders,2021-07-07_15h28.40.941,ImageRatingTask_S2,2021.1.4,Win32,60.04202942,,,,,,,,,
,,,,,,,,,,,,0,7,7,7,1,last,5,21,Female,R,Donders,2021-07-07_15h28.40.941,ImageRatingTask_S2,2021.1.4,Win32,60.04202942,,,,,,,,,
,,,,,,,,,,,,,,,,,,5,21,Female,R,Donders,2021-07-07_15h28.40.941,ImageRatingTask_S2,2021.1.4,Win32,60.04202942,0,1,1,100,1,DreamStudyImages_rs1000x750g/Children/Faces_100_h.jpg,,,
,,5,25.7863,4,2.533,7,4.2019,1,2.7241,2,0.824,0,0,0,0,1,main,5,21,Female,R,Donders,2021-07-07_15h28.40.941,ImageRatingTask_S2,2021.1.4,Win32,60.04202942,,,,,,,,,
,,,,,,,,,,,,0,1,1,1,1,second,5,21,Female,R,Donders,2021-07-07_15h28.40.941,ImageRatingTask_S2,2021.1.4,Win32,60.04202942,,,,,,,,,
,,,,,,,,,,,,0,2,2,2,1,third,5,21,Female,R,Donders,2021-07-07_15h28.40.941,ImageRatingTask_S2,2021.1.4,Win32,60.04202942,,,,,,,,,
,,,,,,,,,,,,0,3,3,3,1,fourth,5,21,Female,R,Donders,2021-07-07_15h28.40.941,ImageRatingTask_S2,2021.1.4,Win32,60.04202942,,,,,,,,,
,,,,,,,,,,,,0,4,4,4,1,fifth,5,21,Female,R,Donders,2021-07-07_15h28.40.941,ImageRatingTask_S2,2021.1.4,Win32,60.04202942,,,,,,,,,
,,,,,,,,,,,,0,5,5,5,1,sixth,5,21,Female,R,Donders,2021-07-07_15h28.40.941,ImageRatingTask_S2,2021.1.4,Win32,60.04202942,,,,,,,,,
,,,,,,,,,,,,0,6,6,6,1,seventh,5,21,Female,R,Donders,2021-07-07_15h28.40.941,ImageRatingTask_S2,2021.1.4,Win32,60.04202942,,,,,,,,,
,,,,,,,,,,,,0,7,7,7,1,last,5,21,Female,R,Donders,2021-07-07_15h28.40.941,ImageRatingTask_S2,2021.1.4,Win32,60.04202942,,,,,,,,,
,,,,,,,,,,,,,,,,,,5,21,Female,R,Donders,2021-07-07_15h28.40.941,ImageRatingTask_S2,2021.1.4,Win32,60.04202942,0,2,2,28,1,DreamStudyImages_rs1000x750g/Children/Faces_029_h.jpg,,,
,,8,28.826,6,2.0739,8,1.9991,1,21.3898,3,114.8998,0,0,0,0,1,main,5,21,Female,R,Donders,2021-07-07_15h28.40.941,ImageRatingTask_S2,2021.1.4,Win32,60.04202942,,,,,,,,,
,,,,,,,,,,,,0,1,1,1,1,second,5,21,Female,R,Donders,2021-07-07_15h28.40.941,ImageRatingTask_S2,2021.1.4,Win32,60.04202942,,,,,,,,,
,,,,,,,,,,,,0,2,2,2,1,third,5,21,Female,R,Donders,2021-07-07_15h28.40.941,ImageRatingTask_S2,2021.1.4,Win32,60.04202942,,,,,,,,,
,,,,,,,,,,,,0,3,3,3,1,fourth,5,21,Female,R,Donders,2021-07-07_15h28.40.941,ImageRatingTask_S2,2021.1.4,Win32,60.04202942,,,,,,,,,
,,,,,,,,,,,,0,4,4,4,1,fifth,5,21,Female,R,Donders,2021-07-07_15h28.40.941,ImageRatingTask_S2,2021.1.4,Win32,60.04202942,,,,,,,,,
,,,,,,,,,,,,0,5,5,5,1,sixth,5,21,Female,R,Donders,2021-07-07_15h28.40.941,ImageRatingTask_S2,2021.1.4,Win32,60.04202942,,,,,,,,,
,,,,,,,,,,,,0,6,6,6,1,seventh,5,21,Female,R,Donders,2021-07-07_15h28.40.941,ImageRatingTask_S2,2021.1.4,Win32,60.04202942,,,,,,,,,
,,,,,,,,,,,,0,7,7,7,1,last,5,21,Female,R,Donders,2021-07-07_15h28.40.941,ImageRatingTask_S2,2021.1.4,Win32,60.04202942,,,,,,,,,
,,,,,,,,,,,,,,,,,,5,21,Female,R,Donders,2021-07-07_15h28.40.941,ImageRatingTask_S2,2021.1.4,Win32,60.04202942,0,3,3,117,1,DreamStudyImages_rs1000x750g/Mammals/Chipmunk 3.jpg,,,
,,8,1.9362,3,3.8535,8,2.7441,1,1.0995,8,0.7884,0,0,0,0,1,main,5,21,Female,R,Donders,2021-07-07_15h28.40.941,ImageRatingTask_S2,2021.1.4,Win32,60.04202942,,,,,,,,,
,,,,,,,,,,,,0,1,1,1,1,second,5,21,Female,R,Donders,2021-07-07_15h28.40.941,ImageRatingTask_S2,2021.1.4,Win32,60.04202942,,,,,,,,,
,,,,,,,,,,,,0,2,2,2,1,third,5,21,Female,R,Donders,2021-07-07_15h28.40.941,ImageRatingTask_S2,2021.1.4,Win32,60.04202942,,,,,,,,,
,,,,,,,,,,,,0,3,3,3,1,fourth,5,21,Female,R,Donders,2021-07-07_15h28.40.941,ImageRatingTask_S2,2021.1.4,Win32,60.04202942,,,,,,,,,
,,,,,,,,,,,,0,4,4,4,1,fifth,5,21,Female,R,Donders,2021-07-07_15h28.40.941,ImageRatingTask_S2,2021.1.4,Win32,60.04202942,,,,,,,,,
,,,,,,,,,,,,0,5,5,5,1,sixth,5,21,Female,R,Donders,2021-07-07_15h28.40.941,ImageRatingTask_S2,2021.1.4,Win32,60.04202942,,,,,,,,,
,,,,,,,,,,,,0,6,6,6,1,seventh,5,21,Female,R,Donders,2021-07-07_15h28.40.941,ImageRatingTask_S2,2021.1.4,Win32,60.04202942,,,,,,,,,
,,,,,,,,,,,,0,7,7,7,1,last,5,21,Female,R,Donders,2021-07-07_15h28.40.941,ImageRatingTask_S2,2021.1.4,Win32,60.04202942,,,,,,,,,
,,,,,,,,,,,,,,,,,,5,21,Female,R,Donders,2021-07-07_15h28.40.941,ImageRatingTask_S2,2021.1.4,Win32,60.04202942,0,4,4,134,1,DreamStudyImages_rs1000x750g/Water/ocean.jpg,,,
,,5,3.015,5,0.2124,8,1.649,1,1.087,7,0.6561,0,0,0,0,1,main,5,21,Female,R,Donders,2021-07-07_15h28.40.941,ImageRatingTask_S2,2021.1.4,Win32,60.04202942,,,,,,,,,
,,,,,,,,,,,,0,1,1,1,1,second,5,21,Female,R,Donders,2021-07-07_15h28.40.941,ImageRatingTask_S2,2021.1.4,Win32,60.04202942,,,,,,,,,
,,,,,,,,,,,,0,2,2,2,1,third,5,21,Female,R,Donders,2021-07-07_15h28.40.941,ImageRatingTask_S2,2021.1.4,Win32,60.04202942,,,,,,,,,
,,,,,,,,,,,,0,3,3,3,1,fourth,5,21,Female,R,Donders,2021-07-07_15h28.40.941,ImageRatingTask_S2,2021.1.4,Win32,60.04202942,,,,,,,,,
,,,,,,,,,,,,0,4,4,4,1,fifth,5,21,Female,R,Donders,2021-07-07_15h28.40.941,ImageRatingTask_S2,2021.1.4,Win32,60.04202942,,,,,,,,,
,,,,,,,,,,,,0,5,5,5,1,sixth,5,21,Female,R,Donders,2021-07-07_15h28.40.941,ImageRatingTask_S2,2021.1.4,Win32,60.04202942,,,,,,,,,
,,,,,,,,,,,,0,6,6,6,1,seventh,5,21,Female,R,Donders,2021-07-07_15h28.40.941,ImageRatingTask_S2,2021.1.4,Win32,60.04202942,,,,,,,,,
,,,,,,,,,,,,0,7,7,7,1,last,5,21,Female,R,Donders,2021-07-07_15h28.40.941,ImageRatingTask_S2,2021.1.4,Win32,60.04202942,,,,,,,,,
,,,,,,,,,,,,,,,,,,5,21,Female,R,Donders,2021-07-07_15h28.40.941,ImageRatingTask_S2,2021.1.4,Win32,60.04202942,0,5,5,36,1,DreamStudyImages_rs1000x750g/Vehicles/Objects_314_h.jpg,,,
,,1,178.1613,5,1.784,8,2.1106,0,7.9051,,,0,0,0,0,1,main,5,21,Female,R,Donders,2021-07-07_15h28.40.941,ImageRatingTask_S2,2021.1.4,Win32,60.04202942,,,,,,,,,
,,,,,,,,,,,,0,1,1,1,1,second,5,21,Female,R,Donders,2021-07-07_15h28.40.941,ImageRatingTask_S2,2021.1.4,Win32,60.04202942,,,,,,,,,
,,,,,,,,,,,,0,2,2,2,1,third,5,21,Female,R,Donders,2021-07-07_15h28.40.941,ImageRatingTask_S2,2021.1.4,Win32,60.04202942,,,,,,,,,
,,,,,,,,,,,,0,3,3,3,1,fourth,5,21,Female,R,Donders,2021-07-07_15h28.40.941,ImageRatingTask_S2,2021.1.4,Win32,60.04202942,,,,,,,,,
,,,,,,,,,,,,0,4,4,4,1,fifth,5,21,Female,R,Donders,2021-07-07_15h28.40.941,ImageRatingTask_S2,2021.1.4,Win32,60.04202942,,,,,,,,,
,,,,,,,,,,,,0,5,5,5,1,sixth,5,21,Female,R,Donders,2021-07-07_15h28.40.941,ImageRatingTask_S2,2021.1.4,Win32,60.04202942,,,,,,,,,
,,,,,,,,,,,,0,6,6,6,1,seventh,5,21,Female,R,Donders,2021-07-07_15h28.40.941,ImageRatingTask_S2,2021.1.4,Win32,60.04202942,,,,,,,,,
,,,,,,,,,,,,0,7,7,7,1,last,5,21,Female,R,Donders,2021-07-07_15h28.40.941,ImageRatingTask_S2,2021.1.4,Win32,60.04202942,,,,,,,,,
,,,,,,,,,,,,,,,,,,5,21,Female,R,Donders,2021-07-07_15h28.40.941,ImageRatingTask_S2,2021.1.4,Win32,60.04202942,0,6,6,148,1,DreamStudyImages_rs1000x750g/Food/Objects_023_v.jpg,,,
,,5,3.021,5,0.1806,8,2.4015,1,2.1447,7,0.2262,0,0,0,0,1,main,5,21,Female,R,Donders,2021-07-07_15h28.40.941,ImageRatingTask_S2,2021.1.4,Win32,60.04202942,,,,,,,,,
,,,,,,,,,,,,0,1,1,1,1,second,5,21,Female,R,Donders,2021-07-07_15h28.40.941,ImageRatingTask_S2,2021.1.4,Win32,60.04202942,,,,,,,,,
,,,,,,,,,,,,0,2,2,2,1,third,5,21,Female,R,Donders,2021-07-07_15h28.40.941,ImageRatingTask_S2,2021.1.4,Win32,60.04202942,,,,,,,,,
,,,,,,,,,,,,0,3,3,3,1,fourth,5,21,Female,R,Donders,2021-07-07_15h28.40.941,ImageRatingTask_S2,2021.1.4,Win32,60.04202942,,,,,,,,,
,,,,,,,,,,,,0,4,4,4,1,fifth,5,21,Female,R,Donders,2021-07-07_15h28.40.941,ImageRatingTask_S2,2021.1.4,Win32,60.04202942,,,,,,,,,
,,,,,,,,,,,,0,5,5,5,1,sixth,5,21,Female,R,Donders,2021-07-07_15h28.40.941,ImageRatingTask_S2,2021.1.4,Win32,60.04202942,,,,,,,,,
,,,,,,,,,,,,0,6,6,6,1,seventh,5,21,Female,R,Donders,2021-07-07_15h28.40.941,ImageRatingTask_S2,2021.1.4,Win32,60.04202942,,,,,,,,,
,,,,,,,,,,,,0,7,7,7,1,last,5,21,Female,R,Donders,2021-07-07_15h28.40.941,ImageRatingTask_S2,2021.1.4,Win32,60.04202942,,,,,,,,,
,,,,,,,,,,,,,,,,,,5,21,Female,R,Donders,2021-07-07_15h28.40.941,ImageRatingTask_S2,2021.1.4,Win32,60.04202942,0,7,7,5,1,DreamStudyImages_rs1000x750g/Vehicles/Objects_282_h.jpg,,,
,,6,13.1113,3,3.5533,8,2.944,1,1.6424,6,1.6443,0,0,0,0,1,main,5,21,Female,R,Donders,2021-07-07_15h28.40.941,ImageRatingTask_S2,2021.1.4,Win32,60.04202942,,,,,,,,,
,,,,,,,,,,,,0,1,1,1,1,second,5,21,Female,R,Donders,2021-07-07_15h28.40.941,ImageRatingTask_S2,2021.1.4,Win32,60.04202942,,,,,,,,,
,,,,,,,,,,,,0,2,2,2,1,third,5,21,Female,R,Donders,2021-07-07_15h28.40.941,ImageRatingTask_S2,2021.1.4,Win32,60.04202942,,,,,,,,,
,,,,,,,,,,,,0,3,3,3,1,fourth,5,21,Female,R,Donders,2021-07-07_15h28.40.941,ImageRatingTask_S2,2021.1.4,Win32,60.04202942,,,,,,,,,
,,,,,,,,,,,,0,4,4,4,1,fifth,5,21,Female,R,Donders,2021-07-07_15h28.40.941,ImageRatingTask_S2,2021.1.4,Win32,60.04202942,,,,,,,,,
,,,,,,,,,,,,0,5,5,5,1,sixth,5,21,Female,R,Donders,2021-07-07_15h28.40.941,ImageRatingTask_S2,2021.1.4,Win32,60.04202942,,,,,,,,,
,,,,,,,,,,,,0,6,6,6,1,seventh,5,21,Female,R,Donders,2021-07-07_15h28.40.941,ImageRatingTask_S2,2021.1.4,Win32,60.04202942,,,,,,,,,
,,,,,,,,,,,,0,7,7,7,1,last,5,21,Female,R,Donders,2021-07-07_15h28.40.941,ImageRatingTask_S2,2021.1.4,Win32,60.04202942,,,,,,,,,
,,,,,,,,,,,,,,,,,,5,21,Female,R,Donders,2021-07-07_15h28.40.941,ImageRatingTask_S2,2021.1.4,Win32,60.04202942,0,8,8,34,1,DreamStudyImages_rs1000x750g/Houses/abandonedhouse2.jpg,,,
,,5,5.833,5,0.2294,7,2.2055,1,1.1134,7,0.8354,0,0,0,0,1,main,5,21,Female,R,Donders,2021-07-07_15h28.40.941,ImageRatingTask_S2,2021.1.4,Win32,60.04202942,,,,,,,,,
,,,,,,,,,,,,0,1,1,1,1,second,5,21,Female,R,Donders,2021-07-07_15h28.40.941,ImageRatingTask_S2,2021.1.4,Win32,60.04202942,,,,,,,,,
,,,,,,,,,,,,0,2,2,2,1,third,5,21,Female,R,Donders,2021-07-07_15h28.40.941,ImageRatingTask_S2,2021.1.4,Win32,60.04202942,,,,,,,,,
,,,,,,,,,,,,0,3,3,3,1,fourth,5,21,Female,R,Donders,2021-07-07_15h28.40.941,ImageRatingTask_S2,2021.1.4,Win32,60.04202942,,,,,,,,,
,,,,,,,,,,,,0,4,4,4,1,fifth,5,21,Female,R,Donders,2021-07-07_15h28.40.941,ImageRatingTask_S2,2021.1.4,Win32,60.04202942,,,,,,,,,
,,,,,,,,,,,,0,5,5,5,1,sixth,5,21,Female,R,Donders,2021-07-07_15h28.40.941,ImageRatingTask_S2,2021.1.4,Win32,60.04202942,,,,,,,,,
,,,,,,,,,,,,0,6,6,6,1,seventh,5,21,Female,R,Donders,2021-07-07_15h28.40.941,ImageRatingTask_S2,2021.1.4,Win32,60.04202942,,,,,,,,,
,,,,,,,,,,,,0,7,7,7,1,last,5,21,Female,R,Donders,2021-07-07_15h28.40.941,ImageRatingTask_S2,2021.1.4,Win32,60.04202942,,,,,,,,,
,,,,,,,,,,,,,,,,,,5,21,Female,R,Donders,2021-07-07_15h28.40.941,ImageRatingTask_S2,2021.1.4,Win32,60.04202942,0,9,9,72,1,DreamStudyImages_rs1000x750g/Vehicles/Objects_300_h.jpg,,,
,,5,5.2177,5,0.279,7,1.668,1,1.655,2,0.2251,0,0,0,0,1,main,5,21,Female,R,Donders,2021-07-07_15h28.40.941,ImageRatingTask_S2,2021.1.4,Win32,60.04202942,,,,,,,,,
,,,,,,,,,,,,0,1,1,1,1,second,5,21,Female,R,Donders,2021-07-07_15h28.40.941,ImageRatingTask_S2,2021.1.4,Win32,60.04202942,,,,,,,,,
,,,,,,,,,,,,0,2,2,2,1,third,5,21,Female,R,Donders,2021-07-07_15h28.40.941,ImageRatingTask_S2,2021.1.4,Win32,60.04202942,,,,,,,,,
,,,,,,,,,,,,0,3,3,3,1,fourth,5,21,Female,R,Donders,2021-07-07_15h28.40.941,ImageRatingTask_S2,2021.1.4,Win32,60.04202942,,,,,,,,,
,,,,,,,,,,,,0,4,4,4,1,fifth,5,21,Female,R,Donders,2021-07-07_15h28.40.941,ImageRatingTask_S2,2021.1.4,Win32,60.04202942,,,,,,,,,
,,,,,,,,,,,,0,5,5,5,1,sixth,5,21,Female,R,Donders,2021-07-07_15h28.40.941,ImageRatingTask_S2,2021.1.4,Win32,60.04202942,,,,,,,,,
,,,,,,,,,,,,0,6,6,6,1,seventh,5,21,Female,R,Donders,2021-07-07_15h28.40.941,ImageRatingTask_S2,2021.1.4,Win32,60.04202942,,,,,,,,,
,,,,,,,,,,,,0,7,7,7,1,last,5,21,Female,R,Donders,2021-07-07_15h28.40.941,ImageRatingTask_S2,2021.1.4,Win32,60.04202942,,,,,,,,,
,,,,,,,,,,,,,,,,,,5,21,Female,R,Donders,2021-07-07_15h28.40.941,ImageRatingTask_S2,2021.1.4,Win32,60.04202942,0,10,10,50,1,DreamStudyImages_rs1000x750g/Children/Baby 9.jpg,,,
,,9,4.4738,8,8.5166,8,1.7563,1,1.1797,5,0.7928,0,0,0,0,1,main,5,21,Female,R,Donders,2021-07-07_15h28.40.941,ImageRatingTask_S2,2021.1.4,Win32,60.04202942,,,,,,,,,
,,,,,,,,,,,,0,1,1,1,1,second,5,21,Female,R,Donders,2021-07-07_15h28.40.941,ImageRatingTask_S2,2021.1.4,Win32,60.04202942,,,,,,,,,
,,,,,,,,,,,,0,2,2,2,1,third,5,21,Female,R,Donders,2021-07-07_15h28.40.941,ImageRatingTask_S2,2021.1.4,Win32,60.04202942,,,,,,,,,
,,,,,,,,,,,,0,3,3,3,1,fourth,5,21,Female,R,Donders,2021-07-07_15h28.40.941,ImageRatingTask_S2,2021.1.4,Win32,60.04202942,,,,,,,,,
,,,,,,,,,,,,0,4,4,4,1,fifth,5,21,Female,R,Donders,2021-07-07_15h28.40.941,ImageRatingTask_S2,2021.1.4,Win32,60.04202942,,,,,,,,,
,,,,,,,,,,,,0,5,5,5,1,sixth,5,21,Female,R,Donders,2021-07-07_15h28.40.941,ImageRatingTask_S2,2021.1.4,Win32,60.04202942,,,,,,,,,
,,,,,,,,,,,,0,6,6,6,1,seventh,5,21,Female,R,Donders,2021-07-07_15h28.40.941,ImageRatingTask_S2,2021.1.4,Win32,60.04202942,,,,,,,,,
,,,,,,,,,,,,0,7,7,7,1,last,5,21,Female,R,Donders,2021-07-07_15h28.40.941,ImageRatingTask_S2,2021.1.4,Win32,60.04202942,,,,,,,,,
,,,,,,,,,,,,,,,,,,5,21,Female,R,Donders,2021-07-07_15h28.40.941,ImageRatingTask_S2,2021.1.4,Win32,60.04202942,0,11,11,30,1,DreamStudyImages_rs1000x750g/Food/Objects_080_h.jpg,,,
,,6,3.1324,5,1.9761,7,3.611,1,1.0932,3,1.3185,0,0,0,0,1,main,5,21,Female,R,Donders,2021-07-07_15h28.40.941,ImageRatingTask_S2,2021.1.4,Win32,60.04202942,,,,,,,,,
,,,,,,,,,,,,0,1,1,1,1,second,5,21,Female,R,Donders,2021-07-07_15h28.40.941,ImageRatingTask_S2,2021.1.4,Win32,60.04202942,,,,,,,,,
,,,,,,,,,,,,0,2,2,2,1,third,5,21,Female,R,Donders,2021-07-07_15h28.40.941,ImageRatingTask_S2,2021.1.4,Win32,60.04202942,,,,,,,,,
,,,,,,,,,,,,0,3,3,3,1,fourth,5,21,Female,R,Donders,2021-07-07_15h28.40.941,ImageRatingTask_S2,2021.1.4,Win32,60.04202942,,,,,,,,,
,,,,,,,,,,,,0,4,4,4,1,fifth,5,21,Female,R,Donders,2021-07-07_15h28.40.941,ImageRatingTask_S2,2021.1.4,Win32,60.04202942,,,,,,,,,
,,,,,,,,,,,,0,5,5,5,1,sixth,5,21,Female,R,Donders,2021-07-07_15h28.40.941,ImageRatingTask_S2,2021.1.4,Win32,60.04202942,,,,,,,,,
,,,,,,,,,,,,0,6,6,6,1,seventh,5,21,Female,R,Donders,2021-07-07_15h28.40.941,ImageRatingTask_S2,2021.1.4,Win32,60.04202942,,,,,,,,,
,,,,,,,,,,,,0,7,7,7,1,last,5,21,Female,R,Donders,2021-07-07_15h28.40.941,ImageRatingTask_S2,2021.1.4,Win32,60.04202942,,,,,,,,,
,,,,,,,,,,,,,,,,,,5,21,Female,R,Donders,2021-07-07_15h28.40.941,ImageRatingTask_S2,2021.1.4,Win32,60.04202942,0,12,12,106,1,DreamStudyImages_rs1000x750g/Mammals/IAPS1302_dog3.jpg,,,
,,4,2.8115,5,1.7062,7,1.7828,1,0.9149,7,0.7712,0,0,0,0,1,main,5,21,Female,R,Donders,2021-07-07_15h28.40.941,ImageRatingTask_S2,2021.1.4,Win32,60.04202942,,,,,,,,,
,,,,,,,,,,,,0,1,1,1,1,second,5,21,Female,R,Donders,2021-07-07_15h28.40.941,ImageRatingTask_S2,2021.1.4,Win32,60.04202942,,,,,,,,,
,,,,,,,,,,,,0,2,2,2,1,third,5,21,Female,R,Donders,2021-07-07_15h28.40.941,ImageRatingTask_S2,2021.1.4,Win32,60.04202942,,,,,,,,,
,,,,,,,,,,,,0,3,3,3,1,fourth,5,21,Female,R,Donders,2021-07-07_15h28.40.941,ImageRatingTask_S2,2021.1.4,Win32,60.04202942,,,,,,,,,
,,,,,,,,,,,,0,4,4,4,1,fifth,5,21,Female,R,Donders,2021-07-07_15h28.40.941,ImageRatingTask_S2,2021.1.4,Win32,60.04202942,,,,,,,,,
,,,,,,,,,,,,0,5,5,5,1,sixth,5,21,Female,R,Donders,2021-07-07_15h28.40.941,ImageRatingTask_S2,2021.1.4,Win32,60.04202942,,,,,,,,,
,,,,,,,,,,,,0,6,6,6,1,seventh,5,21,Female,R,Donders,2021-07-07_15h28.40.941,ImageRatingTask_S2,2021.1.4,Win32,60.04202942,,,,,,,,,
,,,,,,,,,,,,0,7,7,7,1,last,5,21,Female,R,Donders,2021-07-07_15h28.40.941,ImageRatingTask_S2,2021.1.4,Win32,60.04202942,,,,,,,,,
,,,,,,,,,,,,,,,,,,5,21,Female,R,Donders,2021-07-07_15h28.40.941,ImageRatingTask_S2,2021.1.4,Win32,60.04202942,0,13,13,95,1,DreamStudyImages_rs1000x750g/Vehicles/Objects_318_h.jpg,,,
,,5,3.3783,5,0.3202,8,1.5307,1,2.0591,2,4.2286,0,0,0,0,1,main,5,21,Female,R,Donders,2021-07-07_15h28.40.941,ImageRatingTask_S2,2021.1.4,Win32,60.04202942,,,,,,,,,
,,,,,,,,,,,,0,1,1,1,1,second,5,21,Female,R,Donders,2021-07-07_15h28.40.941,ImageRatingTask_S2,2021.1.4,Win32,60.04202942,,,,,,,,,
,,,,,,,,,,,,0,2,2,2,1,third,5,21,Female,R,Donders,2021-07-07_15h28.40.941,ImageRatingTask_S2,2021.1.4,Win32,60.04202942,,,,,,,,,
,,,,,,,,,,,,0,3,3,3,1,fourth,5,21,Female,R,Donders,2021-07-07_15h28.40.941,ImageRatingTask_S2,2021.1.4,Win32,60.04202942,,,,,,,,,
,,,,,,,,,,,,0,4,4,4,1,fifth,5,21,Female,R,Donders,2021-07-07_15h28.40.941,ImageRatingTask_S2,2021.1.4,Win32,60.04202942,,,,,,,,,
,,,,,,,,,,,,0,5,5,5,1,sixth,5,21,Female,R,Donders,2021-07-07_15h28.40.941,ImageRatingTask_S2,2021.1.4,Win32,60.04202942,,,,,,,,,
,,,,,,,,,,,,0,6,6,6,1,seventh,5,21,Female,R,Donders,2021-07-07_15h28.40.941,ImageRatingTask_S2,2021.1.4,Win32,60.04202942,,,,,,,,,
,,,,,,,,,,,,0,7,7,7,1,last,5,21,Female,R,Donders,2021-07-07_15h28.40.941,ImageRatingTask_S2,2021.1.4,Win32,60.04202942,,,,,,,,,
,,,,,,,,,,,,,,,,,,5,21,Female,R,Donders,2021-07-07_15h28.40.941,ImageRatingTask_S2,2021.1.4,Win32,60.04202942,0,14,14,155,1,DreamStudyImages_rs1000x750g/Children/Faces_118_h.jpg,,,
,,7,4.7837,1,1.7695,8,1.8377,1,1.3337,8,0.7941,0,0,0,0,1,main,5,21,Female,R,Donders,2021-07-07_15h28.40.941,ImageRatingTask_S2,2021.1.4,Win32,60.04202942,,,,,,,,,
,,,,,,,,,,,,0,1,1,1,1,second,5,21,Female,R,Donders,2021-07-07_15h28.40.941,ImageRatingTask_S2,2021.1.4,Win32,60.04202942,,,,,,,,,
,,,,,,,,,,,,0,2,2,2,1,third,5,21,Female,R,Donders,2021-07-07_15h28.40.941,ImageRatingTask_S2,2021.1.4,Win32,60.04202942,,,,,,,,,
,,,,,,,,,,,,0,3,3,3,1,fourth,5,21,Female,R,Donders,2021-07-07_15h28.40.941,ImageRatingTask_S2,2021.1.4,Win32,60.04202942,,,,,,,,,
,,,,,,,,,,,,0,4,4,4,1,fifth,5,21,Female,R,Donders,2021-07-07_15h28.40.941,ImageRatingTask_S2,2021.1.4,Win32,60.04202942,,,,,,,,,
,,,,,,,,,,,,0,5,5,5,1,sixth,5,21,Female,R,Donders,2021-07-07_15h28.40.941,ImageRatingTask_S2,2021.1.4,Win32,60.04202942,,,,,,,,,
,,,,,,,,,,,,0,6,6,6,1,seventh,5,21,Female,R,Donders,2021-07-07_15h28.40.941,ImageRatingTask_S2,2021.1.4,Win32,60.04202942,,,,,,,,,
,,,,,,,,,,,,0,7,7,7,1,last,5,21,Female,R,Donders,2021-07-07_15h28.40.941,ImageRatingTask_S2,2021.1.4,Win32,60.04202942,,,,,,,,,
,,,,,,,,,,,,,,,,,,5,21,Female,R,Donders,2021-07-07_15h28.40.941,ImageRatingTask_S2,2021.1.4,Win32,60.04202942,0,15,15,56,1,DreamStudyImages_rs1000x750g/Water/cityfountain.jpg,,,
,,5,2.843,5,0.8699,8,1.5984,1,0.9492,3,0.9561,0,0,0,0,1,main,5,21,Female,R,Donders,2021-07-07_15h28.40.941,ImageRatingTask_S2,2021.1.4,Win32,60.04202942,,,,,,,,,
,,,,,,,,,,,,0,1,1,1,1,second,5,21,Female,R,Donders,2021-07-07_15h28.40.941,ImageRatingTask_S2,2021.1.4,Win32,60.04202942,,,,,,,,,
,,,,,,,,,,,,0,2,2,2,1,third,5,21,Female,R,Donders,2021-07-07_15h28.40.941,ImageRatingTask_S2,2021.1.4,Win32,60.04202942,,,,,,,,,
,,,,,,,,,,,,0,3,3,3,1,fourth,5,21,Female,R,Donders,2021-07-07_15h28.40.941,ImageRatingTask_S2,2021.1.4,Win32,60.04202942,,,,,,,,,
,,,,,,,,,,,,0,4,4,4,1,fifth,5,21,Female,R,Donders,2021-07-07_15h28.40.941,ImageRatingTask_S2,2021.1.4,Win32,60.04202942,,,,,,,,,
,,,,,,,,,,,,0,5,5,5,1,sixth,5,21,Female,R,Donders,2021-07-07_15h28.40.941,ImageRatingTask_S2,2021.1.4,Win32,60.04202942,,,,,,,,,
,,,,,,,,,,,,0,6,6,6,1,seventh,5,21,Female,R,Donders,2021-07-07_15h28.40.941,ImageRatingTask_S2,2021.1.4,Win32,60.04202942,,,,,,,,,
,,,,,,,,,,,,0,7,7,7,1,last,5,21,Female,R,Donders,2021-07-07_15h28.40.941,ImageRatingTask_S2,2021.1.4,Win32,60.04202942,,,,,,,,,
,,,,,,,,,,,,,,,,,,5,21,Female,R,Donders,2021-07-07_15h28.40.941,ImageRatingTask_S2,2021.1.4,Win32,60.04202942,0,16,16,61,1,DreamStudyImages_rs1000x750g/Mammals/Animals_214_h.jpg,,,
,,6,3.679,5,1.3812,8,1.4279,1,2.5077,3,0.493,0,0,0,0,1,main,5,21,Female,R,Donders,2021-07-07_15h28.40.941,ImageRatingTask_S2,2021.1.4,Win32,60.04202942,,,,,,,,,
,,,,,,,,,,,,0,1,1,1,1,second,5,21,Female,R,Donders,2021-07-07_15h28.40.941,ImageRatingTask_S2,2021.1.4,Win32,60.04202942,,,,,,,,,
,,,,,,,,,,,,0,2,2,2,1,third,5,21,Female,R,Donders,2021-07-07_15h28.40.941,ImageRatingTask_S2,2021.1.4,Win32,60.04202942,,,,,,,,,
,,,,,,,,,,,,0,3,3,3,1,fourth,5,21,Female,R,Donders,2021-07-07_15h28.40.941,ImageRatingTask_S2,2021.1.4,Win32,60.04202942,,,,,,,,,
,,,,,,,,,,,,0,4,4,4,1,fifth,5,21,Female,R,Donders,2021-07-07_15h28.40.941,ImageRatingTask_S2,2021.1.4,Win32,60.04202942,,,,,,,,,
,,,,,,,,,,,,0,5,5,5,1,sixth,5,21,Female,R,Donders,2021-07-07_15h28.40.941,ImageRatingTask_S2,2021.1.4,Win32,60.04202942,,,,,,,,,
,,,,,,,,,,,,0,6,6,6,1,seventh,5,21,Female,R,Donders,2021-07-07_15h28.40.941,ImageRatingTask_S2,2021.1.4,Win32,60.04202942,,,,,,,,,
,,,,,,,,,,,,0,7,7,7,1,last,5,21,Female,R,Donders,2021-07-07_15h28.40.941,ImageRatingTask_S2,2021.1.4,Win32,60.04202942,,,,,,,,,
,,,,,,,,,,,,,,,,,,5,21,Female,R,Donders,2021-07-07_15h28.40.941,ImageRatingTask_S2,2021.1.4,Win32,60.04202942,0,17,17,40,1,DreamStudyImages_rs1000x750g/Mammals/Animals_158_h.jpg,,,
,,3,2.4185,5,3.409,6,1.8249,1,2.1111,6,1.1733,0,0,0,0,1,main,5,21,Female,R,Donders,2021-07-07_15h28.40.941,ImageRatingTask_S2,2021.1.4,Win32,60.04202942,,,,,,,,,
,,,,,,,,,,,,0,1,1,1,1,second,5,21,Female,R,Donders,2021-07-07_15h28.40.941,ImageRatingTask_S2,2021.1.4,Win32,60.04202942,,,,,,,,,
,,,,,,,,,,,,0,2,2,2,1,third,5,21,Female,R,Donders,2021-07-07_15h28.40.941,ImageRatingTask_S2,2021.1.4,Win32,60.04202942,,,,,,,,,
,,,,,,,,,,,,0,3,3,3,1,fourth,5,21,Female,R,Donders,2021-07-07_15h28.40.941,ImageRatingTask_S2,2021.1.4,Win32,60.04202942,,,,,,,,,
,,,,,,,,,,,,0,4,4,4,1,fifth,5,21,Female,R,Donders,2021-07-07_15h28.40.941,ImageRatingTask_S2,2021.1.4,Win32,60.04202942,,,,,,,,,
,,,,,,,,,,,,0,5,5,5,1,sixth,5,21,Female,R,Donders,2021-07-07_15h28.40.941,ImageRatingTask_S2,2021.1.4,Win32,60.04202942,,,,,,,,,
,,,,,,,,,,,,0,6,6,6,1,seventh,5,21,Female,R,Donders,2021-07-07_15h28.40.941,ImageRatingTask_S2,2021.1.4,Win32,60.04202942,,,,,,,,,
,,,,,,,,,,,,0,7,7,7,1,last,5,21,Female,R,Donders,2021-07-07_15h28.40.941,ImageRatingTask_S2,2021.1.4,Win32,60.04202942,,,,,,,,,
,,,,,,,,,,,,,,,,,,5,21,Female,R,Donders,2021-07-07_15h28.40.941,ImageRatingTask_S2,2021.1.4,Win32,60.04202942,0,18,18,7,1,DreamStudyImages_rs1000x750g/Houses/NDPS4_buildings2_water_CROPPED.jpg,,,
,,1,2.7481,5,2.027,7,7.1869,1,3.8936,7,0.8532,0,0,0,0,1,main,5,21,Female,R,Donders,2021-07-07_15h28.40.941,ImageRatingTask_S2,2021.1.4,Win32,60.04202942,,,,,,,,,
,,,,,,,,,,,,0,1,1,1,1,second,5,21,Female,R,Donders,2021-07-07_15h28.40.941,ImageRatingTask_S2,2021.1.4,Win32,60.04202942,,,,,,,,,
,,,,,,,,,,,,0,2,2,2,1,third,5,21,Female,R,Donders,2021-07-07_15h28.40.941,ImageRatingTask_S2,2021.1.4,Win32,60.04202942,,,,,,,,,
,,,,,,,,,,,,0,3,3,3,1,fourth,5,21,Female,R,Donders,2021-07-07_15h28.40.941,ImageRatingTask_S2,2021.1.4,Win32,60.04202942,,,,,,,,,
,,,,,,,,,,,,0,4,4,4,1,fifth,5,21,Female,R,Donders,2021-07-07_15h28.40.941,ImageRatingTask_S2,2021.1.4,Win32,60.04202942,,,,,,,,,
,,,,,,,,,,,,0,5,5,5,1,sixth,5,21,Female,R,Donders,2021-07-07_15h28.40.941,ImageRatingTask_S2,2021.1.4,Win32,60.04202942,,,,,,,,,
,,,,,,,,,,,,0,6,6,6,1,seventh,5,21,Female,R,Donders,2021-07-07_15h28.40.941,ImageRatingTask_S2,2021.1.4,Win32,60.04202942,,,,,,,,,
,,,,,,,,,,,,0,7,7,7,1,last,5,21,Female,R,Donders,2021-07-07_15h28.40.941,ImageRatingTask_S2,2021.1.4,Win32,60.04202942,,,,,,,,,
,,,,,,,,,,,,,,,,,,5,21,Female,R,Donders,2021-07-07_15h28.40.941,ImageRatingTask_S2,2021.1.4,Win32,60.04202942,0,19,19,147,1,DreamStudyImages_rs1000x750g/Vehicles/NDPS87_backtruck.jpg,,,
,,2,3.6307,4,5.9321,8,1.8199,1,1.5182,6,1.4096,0,0,0,0,1,main,5,21,Female,R,Donders,2021-07-07_15h28.40.941,ImageRatingTask_S2,2021.1.4,Win32,60.04202942,,,,,,,,,
,,,,,,,,,,,,0,1,1,1,1,second,5,21,Female,R,Donders,2021-07-07_15h28.40.941,ImageRatingTask_S2,2021.1.4,Win32,60.04202942,,,,,,,,,
,,,,,,,,,,,,0,2,2,2,1,third,5,21,Female,R,Donders,2021-07-07_15h28.40.941,ImageRatingTask_S2,2021.1.4,Win32,60.04202942,,,,,,,,,
,,,,,,,,,,,,0,3,3,3,1,fourth,5,21,Female,R,Donders,2021-07-07_15h28.40.941,ImageRatingTask_S2,2021.1.4,Win32,60.04202942,,,,,,,,,
,,,,,,,,,,,,0,4,4,4,1,fifth,5,21,Female,R,Donders,2021-07-07_15h28.40.941,ImageRatingTask_S2,2021.1.4,Win32,60.04202942,,,,,,,,,
,,,,,,,,,,,,0,5,5,5,1,sixth,5,21,Female,R,Donders,2021-07-07_15h28.40.941,ImageRatingTask_S2,2021.1.4,Win32,60.04202942,,,,,,,,,
,,,,,,,,,,,,0,6,6,6,1,seventh,5,21,Female,R,Donders,2021-07-07_15h28.40.941,ImageRatingTask_S2,2021.1.4,Win32,60.04202942,,,,,,,,,
,,,,,,,,,,,,0,7,7,7,1,last,5,21,Female,R,Donders,2021-07-07_15h28.40.941,ImageRatingTask_S2,2021.1.4,Win32,60.04202942,,,,,,,,,
,,,,,,,,,,,,,,,,,,5,21,Female,R,Donders,2021-07-07_15h28.40.941,ImageRatingTask_S2,2021.1.4,Win32,60.04202942,0,20,20,24,1,DreamStudyImages_rs1000x750g/Houses/Landscapes_022_h.jpg,,,
,,5,2.2148,5,1.514,7,1.6817,1,1.2708,2,0.6819,0,0,0,0,1,main,5,21,Female,R,Donders,2021-07-07_15h28.40.941,ImageRatingTask_S2,2021.1.4,Win32,60.04202942,,,,,,,,,
,,,,,,,,,,,,0,1,1,1,1,second,5,21,Female,R,Donders,2021-07-07_15h28.40.941,ImageRatingTask_S2,2021.1.4,Win32,60.04202942,,,,,,,,,
,,,,,,,,,,,,0,2,2,2,1,third,5,21,Female,R,Donders,2021-07-07_15h28.40.941,ImageRatingTask_S2,2021.1.4,Win32,60.04202942,,,,,,,,,
,,,,,,,,,,,,0,3,3,3,1,fourth,5,21,Female,R,Donders,2021-07-07_15h28.40.941,ImageRatingTask_S2,2021.1.4,Win32,60.04202942,,,,,,,,,
,,,,,,,,,,,,0,4,4,4,1,fifth,5,21,Female,R,Donders,2021-07-07_15h28.40.941,ImageRatingTask_S2,2021.1.4,Win32,60.04202942,,,,,,,,,
,,,,,,,,,,,,0,5,5,5,1,sixth,5,21,Female,R,Donders,2021-07-07_15h28.40.941,ImageRatingTask_S2,2021.1.4,Win32,60.04202942,,,,,,,,,
,,,,,,,,,,,,0,6,6,6,1,seventh,5,21,Female,R,Donders,2021-07-07_15h28.40.941,ImageRatingTask_S2,2021.1.4,Win32,60.04202942,,,,,,,,,
,,,,,,,,,,,,0,7,7,7,1,last,5,21,Female,R,Donders,2021-07-07_15h28.40.941,ImageRatingTask_S2,2021.1.4,Win32,60.04202942,,,,,,,,,
,,,,,,,,,,,,,,,,,,5,21,Female,R,Donders,2021-07-07_15h28.40.941,ImageRatingTask_S2,2021.1.4,Win32,60.04202942,0,21,21,76,1,DreamStudyImages_rs1000x750g/Children/2071.jpg,,,
,,4,6.5902,6,1.5025,6,1.926,1,1.493,7,1.2182,0,0,0,0,1,main,5,21,Female,R,Donders,2021-07-07_15h28.40.941,ImageRatingTask_S2,2021.1.4,Win32,60.04202942,,,,,,,,,
,,,,,,,,,,,,0,1,1,1,1,second,5,21,Female,R,Donders,2021-07-07_15h28.40.941,ImageRatingTask_S2,2021.1.4,Win32,60.04202942,,,,,,,,,
,,,,,,,,,,,,0,2,2,2,1,third,5,21,Female,R,Donders,2021-07-07_15h28.40.941,ImageRatingTask_S2,2021.1.4,Win32,60.04202942,,,,,,,,,
,,,,,,,,,,,,0,3,3,3,1,fourth,5,21,Female,R,Donders,2021-07-07_15h28.40.941,ImageRatingTask_S2,2021.1.4,Win32,60.04202942,,,,,,,,,
,,,,,,,,,,,,0,4,4,4,1,fifth,5,21,Female,R,Donders,2021-07-07_15h28.40.941,ImageRatingTask_S2,2021.1.4,Win32,60.04202942,,,,,,,,,
,,,,,,,,,,,,0,5,5,5,1,sixth,5,21,Female,R,Donders,2021-07-07_15h28.40.941,ImageRatingTask_S2,2021.1.4,Win32,60.04202942,,,,,,,,,
,,,,,,,,,,,,0,6,6,6,1,seventh,5,21,Female,R,Donders,2021-07-07_15h28.40.941,ImageRatingTask_S2,2021.1.4,Win32,60.04202942,,,,,,,,,
,,,,,,,,,,,,0,7,7,7,1,last,5,21,Female,R,Donders,2021-07-07_15h28.40.941,ImageRatingTask_S2,2021.1.4,Win32,60.04202942,,,,,,,,,
,,,,,,,,,,,,,,,,,,5,21,Female,R,Donders,2021-07-07_15h28.40.941,ImageRatingTask_S2,2021.1.4,Win32,60.04202942,0,22,22,38,1,DreamStudyImages_rs1000x750g/Vehicles/7590.jpg,,,
,,5,7.8282,5,0.9955,8,2.1919,1,3.8174,3,2.71,0,0,0,0,1,main,5,21,Female,R,Donders,2021-07-07_15h28.40.941,ImageRatingTask_S2,2021.1.4,Win32,60.04202942,,,,,,,,,
,,,,,,,,,,,,0,1,1,1,1,second,5,21,Female,R,Donders,2021-07-07_15h28.40.941,ImageRatingTask_S2,2021.1.4,Win32,60.04202942,,,,,,,,,
,,,,,,,,,,,,0,2,2,2,1,third,5,21,Female,R,Donders,2021-07-07_15h28.40.941,ImageRatingTask_S2,2021.1.4,Win32,60.04202942,,,,,,,,,
,,,,,,,,,,,,0,3,3,3,1,fourth,5,21,Female,R,Donders,2021-07-07_15h28.40.941,ImageRatingTask_S2,2021.1.4,Win32,60.04202942,,,,,,,,,
,,,,,,,,,,,,0,4,4,4,1,fifth,5,21,Female,R,Donders,2021-07-07_15h28.40.941,ImageRatingTask_S2,2021.1.4,Win32,60.04202942,,,,,,,,,
,,,,,,,,,,,,0,5,5,5,1,sixth,5,21,Female,R,Donders,2021-07-07_15h28.40.941,ImageRatingTask_S2,2021.1.4,Win32,60.04202942,,,,,,,,,
,,,,,,,,,,,,0,6,6,6,1,seventh,5,21,Female,R,Donders,2021-07-07_15h28.40.941,ImageRatingTask_S2,2021.1.4,Win32,60.04202942,,,,,,,,,
,,,,,,,,,,,,0,7,7,7,1,last,5,21,Female,R,Donders,2021-07-07_15h28.40.941,ImageRatingTask_S2,2021.1.4,Win32,60.04202942,,,,,,,,,
,,,,,,,,,,,,,,,,,,5,21,Female,R,Donders,2021-07-07_15h28.40.941,ImageRatingTask_S2,2021.1.4,Win32,60.04202942,0,23,23,26,1,DreamStudyImages_rs1000x750g/Mammals/Animal carcass 3.jpg,,,
,,5,3.3943,4,1.615,9,2.2568,1,1.2408,2,0.9875,0,0,0,0,1,main,5,21,Female,R,Donders,2021-07-07_15h28.40.941,ImageRatingTask_S2,2021.1.4,Win32,60.04202942,,,,,,,,,
,,,,,,,,,,,,0,1,1,1,1,second,5,21,Female,R,Donders,2021-07-07_15h28.40.941,ImageRatingTask_S2,2021.1.4,Win32,60.04202942,,,,,,,,,
,,,,,,,,,,,,0,2,2,2,1,third,5,21,Female,R,Donders,2021-07-07_15h28.40.941,ImageRatingTask_S2,2021.1.4,Win32,60.04202942,,,,,,,,,
,,,,,,,,,,,,0,3,3,3,1,fourth,5,21,Female,R,Donders,2021-07-07_15h28.40.941,ImageRatingTask_S2,2021.1.4,Win32,60.04202942,,,,,,,,,
,,,,,,,,,,,,0,4,4,4,1,fifth,5,21,Female,R,Donders,2021-07-07_15h28.40.941,ImageRatingTask_S2,2021.1.4,Win32,60.04202942,,,,,,,,,
,,,,,,,,,,,,0,5,5,5,1,sixth,5,21,Female,R,Donders,2021-07-07_15h28.40.941,ImageRatingTask_S2,2021.1.4,Win32,60.04202942,,,,,,,,,
,,,,,,,,,,,,0,6,6,6,1,seventh,5,21,Female,R,Donders,2021-07-07_15h28.40.941,ImageRatingTask_S2,2021.1.4,Win32,60.04202942,,,,,,,,,
,,,,,,,,,,,,0,7,7,7,1,last,5,21,Female,R,Donders,2021-07-07_15h28.40.941,ImageRatingTask_S2,2021.1.4,Win32,60.04202942,,,,,,,,,
,,,,,,,,,,,,,,,,,,5,21,Female,R,Donders,2021-07-07_15h28.40.941,ImageRatingTask_S2,2021.1.4,Win32,60.04202942,0,24,24,145,1,DreamStudyImages_rs1000x750g/Children/Baby 2.jpg,,,
,,7,7.9944,3,2.0834,9,3.1314,1,1.2281,7,0.9004,0,0,0,0,1,main,5,21,Female,R,Donders,2021-07-07_15h28.40.941,ImageRatingTask_S2,2021.1.4,Win32,60.04202942,,,,,,,,,
,,,,,,,,,,,,0,1,1,1,1,second,5,21,Female,R,Donders,2021-07-07_15h28.40.941,ImageRatingTask_S2,2021.1.4,Win32,60.04202942,,,,,,,,,
,,,,,,,,,,,,0,2,2,2,1,third,5,21,Female,R,Donders,2021-07-07_15h28.40.941,ImageRatingTask_S2,2021.1.4,Win32,60.04202942,,,,,,,,,
,,,,,,,,,,,,0,3,3,3,1,fourth,5,21,Female,R,Donders,2021-07-07_15h28.40.941,ImageRatingTask_S2,2021.1.4,Win32,60.04202942,,,,,,,,,
,,,,,,,,,,,,0,4,4,4,1,fifth,5,21,Female,R,Donders,2021-07-07_15h28.40.941,ImageRatingTask_S2,2021.1.4,Win32,60.04202942,,,,,,,,,
,,,,,,,,,,,,0,5,5,5,1,sixth,5,21,Female,R,Donders,2021-07-07_15h28.40.941,ImageRatingTask_S2,2021.1.4,Win32,60.04202942,,,,,,,,,
,,,,,,,,,,,,0,6,6,6,1,seventh,5,21,Female,R,Donders,2021-07-07_15h28.40.941,ImageRatingTask_S2,2021.1.4,Win32,60.04202942,,,,,,,,,
,,,,,,,,,,,,0,7,7,7,1,last,5,21,Female,R,Donders,2021-07-07_15h28.40.941,ImageRatingTask_S2,2021.1.4,Win32,60.04202942,,,,,,,,,
,,,,,,,,,,,,,,,,,,5,21,Female,R,Donders,2021-07-07_15h28.40.941,ImageRatingTask_S2,2021.1.4,Win32,60.04202942,0,25,25,29,1,DreamStudyImages_rs1000x750g/Vehicles/Objects_325_h.jpg,,,
,,5,2.9897,5,0.2075,8,1.3156,2,2.8272,2,1.1007,0,0,0,0,1,main,5,21,Female,R,Donders,2021-07-07_15h28.40.941,ImageRatingTask_S2,2021.1.4,Win32,60.04202942,,,,,,,,,
,,,,,,,,,,5,1.1365,0,1,1,1,1,second,5,21,Female,R,Donders,2021-07-07_15h28.40.941,ImageRatingTask_S2,2021.1.4,Win32,60.04202942,,,,,,,,,
,,,,,,,,,,,,0,2,2,2,1,third,5,21,Female,R,Donders,2021-07-07_15h28.40.941,ImageRatingTask_S2,2021.1.4,Win32,60.04202942,,,,,,,,,
,,,,,,,,,,,,0,3,3,3,1,fourth,5,21,Female,R,Donders,2021-07-07_15h28.40.941,ImageRatingTask_S2,2021.1.4,Win32,60.04202942,,,,,,,,,
,,,,,,,,,,,,0,4,4,4,1,fifth,5,21,Female,R,Donders,2021-07-07_15h28.40.941,ImageRatingTask_S2,2021.1.4,Win32,60.04202942,,,,,,,,,
,,,,,,,,,,,,0,5,5,5,1,sixth,5,21,Female,R,Donders,2021-07-07_15h28.40.941,ImageRatingTask_S2,2021.1.4,Win32,60.04202942,,,,,,,,,
,,,,,,,,,,,,0,6,6,6,1,seventh,5,21,Female,R,Donders,2021-07-07_15h28.40.941,ImageRatingTask_S2,2021.1.4,Win32,60.04202942,,,,,,,,,
,,,,,,,,,,,,0,7,7,7,1,last,5,21,Female,R,Donders,2021-07-07_15h28.40.941,ImageRatingTask_S2,2021.1.4,Win32,60.04202942,,,,,,,,,
,,,,,,,,,,,,,,,,,,5,21,Female,R,Donders,2021-07-07_15h28.40.941,ImageRatingTask_S2,2021.1.4,Win32,60.04202942,0,26,26,80,1,DreamStudyImages_rs1000x750g/Children/Faces_077_v.jpg,,,
,,5,3.3949,5,0.1968,8,1.5276,1,1.3368,5,1.006,0,0,0,0,1,main,5,21,Female,R,Donders,2021-07-07_15h28.40.941,ImageRatingTask_S2,2021.1.4,Win32,60.04202942,,,,,,,,,
,,,,,,,,,,,,0,1,1,1,1,second,5,21,Female,R,Donders,2021-07-07_15h28.40.941,ImageRatingTask_S2,2021.1.4,Win32,60.04202942,,,,,,,,,
,,,,,,,,,,,,0,2,2,2,1,third,5,21,Female,R,Donders,2021-07-07_15h28.40.941,ImageRatingTask_S2,2021.1.4,Win32,60.04202942,,,,,,,,,
,,,,,,,,,,,,0,3,3,3,1,fourth,5,21,Female,R,Donders,2021-07-07_15h28.40.941,ImageRatingTask_S2,2021.1.4,Win32,60.04202942,,,,,,,,,
,,,,,,,,,,,,0,4,4,4,1,fifth,5,21,Female,R,Donders,2021-07-07_15h28.40.941,ImageRatingTask_S2,2021.1.4,Win32,60.04202942,,,,,,,,,
,,,,,,,,,,,,0,5,5,5,1,sixth,5,21,Female,R,Donders,2021-07-07_15h28.40.941,ImageRatingTask_S2,2021.1.4,Win32,60.04202942,,,,,,,,,
,,,,,,,,,,,,0,6,6,6,1,seventh,5,21,Female,R,Donders,2021-07-07_15h28.40.941,ImageRatingTask_S2,2021.1.4,Win32,60.04202942,,,,,,,,,
,,,,,,,,,,,,0,7,7,7,1,last,5,21,Female,R,Donders,2021-07-07_15h28.40.941,ImageRatingTask_S2,2021.1.4,Win32,60.04202942,,,,,,,,,
,,,,,,,,,,,,,,,,,,5,21,Female,R,Donders,2021-07-07_15h28.40.941,ImageRatingTask_S2,2021.1.4,Win32,60.04202942,0,27,27,89,1,DreamStudyImages_rs1000x750g/Food/Objects_038_v.jpg,,,
,,3,5.3821,5,2.047,6,2.0925,1,2.8239,6,1.2717,0,0,0,0,1,main,5,21,Female,R,Donders,2021-07-07_15h28.40.941,ImageRatingTask_S2,2021.1.4,Win32,60.04202942,,,,,,,,,
,,,,,,,,,,,,0,1,1,1,1,second,5,21,Female,R,Donders,2021-07-07_15h28.40.941,ImageRatingTask_S2,2021.1.4,Win32,60.04202942,,,,,,,,,
,,,,,,,,,,,,0,2,2,2,1,third,5,21,Female,R,Donders,2021-07-07_15h28.40.941,ImageRatingTask_S2,2021.1.4,Win32,60.04202942,,,,,,,,,
,,,,,,,,,,,,0,3,3,3,1,fourth,5,21,Female,R,Donders,2021-07-07_15h28.40.941,ImageRatingTask_S2,2021.1.4,Win32,60.04202942,,,,,,,,,
,,,,,,,,,,,,0,4,4,4,1,fifth,5,21,Female,R,Donders,2021-07-07_15h28.40.941,ImageRatingTask_S2,2021.1.4,Win32,60.04202942,,,,,,,,,
,,,,,,,,,,,,0,5,5,5,1,sixth,5,21,Female,R,Donders,2021-07-07_15h28.40.941,ImageRatingTask_S2,2021.1.4,Win32,60.04202942,,,,,,,,,
,,,,,,,,,,,,0,6,6,6,1,seventh,5,21,Female,R,Donders,2021-07-07_15h28.40.941,ImageRatingTask_S2,2021.1.4,Win32,60.04202942,,,,,,,,,
,,,,,,,,,,,,0,7,7,7,1,last,5,21,Female,R,Donders,2021-07-07_15h28.40.941,ImageRatingTask_S2,2021.1.4,Win32,60.04202942,,,,,,,,,
,,,,,,,,,,,,,,,,,,5,21,Female,R,Donders,2021-07-07_15h28.40.941,ImageRatingTask_S2,2021.1.4,Win32,60.04202942,0,28,28,37,1,DreamStudyImages_rs1000x750g/Houses/Jail 3.jpg,,,
,,2,8.2814,5,1.5328,7,2.6232,1,1.1864,2,0.4572,0,0,0,0,1,main,5,21,Female,R,Donders,2021-07-07_15h28.40.941,ImageRatingTask_S2,2021.1.4,Win32,60.04202942,,,,,,,,,
,,,,,,,,,,,,0,1,1,1,1,second,5,21,Female,R,Donders,2021-07-07_15h28.40.941,ImageRatingTask_S2,2021.1.4,Win32,60.04202942,,,,,,,,,
,,,,,,,,,,,,0,2,2,2,1,third,5,21,Female,R,Donders,2021-07-07_15h28.40.941,ImageRatingTask_S2,2021.1.4,Win32,60.04202942,,,,,,,,,
,,,,,,,,,,,,0,3,3,3,1,fourth,5,21,Female,R,Donders,2021-07-07_15h28.40.941,ImageRatingTask_S2,2021.1.4,Win32,60.04202942,,,,,,,,,
,,,,,,,,,,,,0,4,4,4,1,fifth,5,21,Female,R,Donders,2021-07-07_15h28.40.941,ImageRatingTask_S2,2021.1.4,Win32,60.04202942,,,,,,,,,
,,,,,,,,,,,,0,5,5,5,1,sixth,5,21,Female,R,Donders,2021-07-07_15h28.40.941,ImageRatingTask_S2,2021.1.4,Win32,60.04202942,,,,,,,,,
,,,,,,,,,,,,0,6,6,6,1,seventh,5,21,Female,R,Donders,2021-07-07_15h28.40.941,ImageRatingTask_S2,2021.1.4,Win32,60.04202942,,,,,,,,,
,,,,,,,,,,,,0,7,7,7,1,last,5,21,Female,R,Donders,2021-07-07_15h28.40.941,ImageRatingTask_S2,2021.1.4,Win32,60.04202942,,,,,,,,,
,,,,,,,,,,,,,,,,,,5,21,Female,R,Donders,2021-07-07_15h28.40.941,ImageRatingTask_S2,2021.1.4,Win32,60.04202942,0,29,29,99,1,DreamStudyImages_rs1000x750g/Children/IAPS3310_baby27.jpg,,,
,,1,2.1147,5,1.4728,8,4.3775,1,1.3913,6,0.8547,0,0,0,0,1,main,5,21,Female,R,Donders,2021-07-07_15h28.40.941,ImageRatingTask_S2,2021.1.4,Win32,60.04202942,,,,,,,,,
,,,,,,,,,,,,0,1,1,1,1,second,5,21,Female,R,Donders,2021-07-07_15h28.40.941,ImageRatingTask_S2,2021.1.4,Win32,60.04202942,,,,,,,,,
,,,,,,,,,,,,0,2,2,2,1,third,5,21,Female,R,Donders,2021-07-07_15h28.40.941,ImageRatingTask_S2,2021.1.4,Win32,60.04202942,,,,,,,,,
,,,,,,,,,,,,0,3,3,3,1,fourth,5,21,Female,R,Donders,2021-07-07_15h28.40.941,ImageRatingTask_S2,2021.1.4,Win32,60.04202942,,,,,,,,,
,,,,,,,,,,,,0,4,4,4,1,fifth,5,21,Female,R,Donders,2021-07-07_15h28.40.941,ImageRatingTask_S2,2021.1.4,Win32,60.04202942,,,,,,,,,
,,,,,,,,,,,,0,5,5,5,1,sixth,5,21,Female,R,Donders,2021-07-07_15h28.40.941,ImageRatingTask_S2,2021.1.4,Win32,60.04202942,,,,,,,,,
,,,,,,,,,,,,0,6,6,6,1,seventh,5,21,Female,R,Donders,2021-07-07_15h28.40.941,ImageRatingTask_S2,2021.1.4,Win32,60.04202942,,,,,,,,,
,,,,,,,,,,,,0,7,7,7,1,last,5,21,Female,R,Donders,2021-07-07_15h28.40.941,ImageRatingTask_S2,2021.1.4,Win32,60.04202942,,,,,,,,,
,,,,,,,,,,,,,,,,,,5,21,Female,R,Donders,2021-07-07_15h28.40.941,ImageRatingTask_S2,2021.1.4,Win32,60.04202942,0,30,30,103,1,DreamStudyImages_rs1000x750g/Houses/Landscapes_002_h.jpg,,,
,,5,2.3616,5,0.1678,9,1.5447,1,1.1613,7,0.5861,0,0,0,0,1,main,5,21,Female,R,Donders,2021-07-07_15h28.40.941,ImageRatingTask_S2,2021.1.4,Win32,60.04202942,,,,,,,,,
,,,,,,,,,,,,0,1,1,1,1,second,5,21,Female,R,Donders,2021-07-07_15h28.40.941,ImageRatingTask_S2,2021.1.4,Win32,60.04202942,,,,,,,,,
,,,,,,,,,,,,0,2,2,2,1,third,5,21,Female,R,Donders,2021-07-07_15h28.40.941,ImageRatingTask_S2,2021.1.4,Win32,60.04202942,,,,,,,,,
,,,,,,,,,,,,0,3,3,3,1,fourth,5,21,Female,R,Donders,2021-07-07_15h28.40.941,ImageRatingTask_S2,2021.1.4,Win32,60.04202942,,,,,,,,,
,,,,,,,,,,,,0,4,4,4,1,fifth,5,21,Female,R,Donders,2021-07-07_15h28.40.941,ImageRatingTask_S2,2021.1.4,Win32,60.04202942,,,,,,,,,
,,,,,,,,,,,,0,5,5,5,1,sixth,5,21,Female,R,Donders,2021-07-07_15h28.40.941,ImageRatingTask_S2,2021.1.4,Win32,60.04202942,,,,,,,,,
,,,,,,,,,,,,0,6,6,6,1,seventh,5,21,Female,R,Donders,2021-07-07_15h28.40.941,ImageRatingTask_S2,2021.1.4,Win32,60.04202942,,,,,,,,,
,,,,,,,,,,,,0,7,7,7,1,last,5,21,Female,R,Donders,2021-07-07_15h28.40.941,ImageRatingTask_S2,2021.1.4,Win32,60.04202942,,,,,,,,,
,,,,,,,,,,,,,,,,,,5,21,Female,R,Donders,2021-07-07_15h28.40.941,ImageRatingTask_S2,2021.1.4,Win32,60.04202942,0,31,31,112,1,DreamStudyImages_rs1000x750g/Vehicles/fireengine.jpg,,,
,,9,1.7153,7,1.8149,7,1.7774,1,1.0348,5,0.9625,0,0,0,0,1,main,5,21,Female,R,Donders,2021-07-07_15h28.40.941,ImageRatingTask_S2,2021.1.4,Win32,60.04202942,,,,,,,,,
,,,,,,,,,,,,0,1,1,1,1,second,5,21,Female,R,Donders,2021-07-07_15h28.40.941,ImageRatingTask_S2,2021.1.4,Win32,60.04202942,,,,,,,,,
,,,,,,,,,,,,0,2,2,2,1,third,5,21,Female,R,Donders,2021-07-07_15h28.40.941,ImageRatingTask_S2,2021.1.4,Win32,60.04202942,,,,,,,,,
,,,,,,,,,,,,0,3,3,3,1,fourth,5,21,Female,R,Donders,2021-07-07_15h28.40.941,ImageRatingTask_S2,2021.1.4,Win32,60.04202942,,,,,,,,,
,,,,,,,,,,,,0,4,4,4,1,fifth,5,21,Female,R,Donders,2021-07-07_15h28.40.941,ImageRatingTask_S2,2021.1.4,Win32,60.04202942,,,,,,,,,
,,,,,,,,,,,,0,5,5,5,1,sixth,5,21,Female,R,Donders,2021-07-07_15h28.40.941,ImageRatingTask_S2,2021.1.4,Win32,60.04202942,,,,,,,,,
,,,,,,,,,,,,0,6,6,6,1,seventh,5,21,Female,R,Donders,2021-07-07_15h28.40.941,ImageRatingTask_S2,2021.1.4,Win32,60.04202942,,,,,,,,,
,,,,,,,,,,,,0,7,7,7,1,last,5,21,Female,R,Donders,2021-07-07_15h28.40.941,ImageRatingTask_S2,2021.1.4,Win32,60.04202942,,,,,,,,,
,,,,,,,,,,,,,,,,,,5,21,Female,R,Donders,2021-07-07_15h28.40.941,ImageRatingTask_S2,2021.1.4,Win32,60.04202942,0,32,32,12,1,DreamStudyImages_rs1000x750g/Food/IAPS7460_fries.jpg,,,
,,4,2.4685,5,0.9126,8,1.8765,1,1.9917,6,0.6518,0,0,0,0,1,main,5,21,Female,R,Donders,2021-07-07_15h28.40.941,ImageRatingTask_S2,2021.1.4,Win32,60.04202942,,,,,,,,,
,,,,,,,,,,,,0,1,1,1,1,second,5,21,Female,R,Donders,2021-07-07_15h28.40.941,ImageRatingTask_S2,2021.1.4,Win32,60.04202942,,,,,,,,,
,,,,,,,,,,,,0,2,2,2,1,third,5,21,Female,R,Donders,2021-07-07_15h28.40.941,ImageRatingTask_S2,2021.1.4,Win32,60.04202942,,,,,,,,,
,,,,,,,,,,,,0,3,3,3,1,fourth,5,21,Female,R,Donders,2021-07-07_15h28.40.941,ImageRatingTask_S2,2021.1.4,Win32,60.04202942,,,,,,,,,
,,,,,,,,,,,,0,4,4,4,1,fifth,5,21,Female,R,Donders,2021-07-07_15h28.40.941,ImageRatingTask_S2,2021.1.4,Win32,60.04202942,,,,,,,,,
,,,,,,,,,,,,0,5,5,5,1,sixth,5,21,Female,R,Donders,2021-07-07_15h28.40.941,ImageRatingTask_S2,2021.1.4,Win32,60.04202942,,,,,,,,,
,,,,,,,,,,,,0,6,6,6,1,seventh,5,21,Female,R,Donders,2021-07-07_15h28.40.941,ImageRatingTask_S2,2021.1.4,Win32,60.04202942,,,,,,,,,
,,,,,,,,,,,,0,7,7,7,1,last,5,21,Female,R,Donders,2021-07-07_15h28.40.941,ImageRatingTask_S2,2021.1.4,Win32,60.04202942,,,,,,,,,
,,,,,,,,,,,,,,,,,,5,21,Female,R,Donders,2021-07-07_15h28.40.941,ImageRatingTask_S2,2021.1.4,Win32,60.04202942,0,33,33,85,1,DreamStudyImages_rs1000x750g/Houses/Landscapes_010_h.jpg,,,
,,3,3.7443,5,1.4279,7,2.0657,1,1.0924,7,1.2227,0,0,0,0,1,main,5,21,Female,R,Donders,2021-07-07_15h28.40.941,ImageRatingTask_S2,2021.1.4,Win32,60.04202942,,,,,,,,,
,,,,,,,,,,,,0,1,1,1,1,second,5,21,Female,R,Donders,2021-07-07_15h28.40.941,ImageRatingTask_S2,2021.1.4,Win32,60.04202942,,,,,,,,,
,,,,,,,,,,,,0,2,2,2,1,third,5,21,Female,R,Donders,2021-07-07_15h28.40.941,ImageRatingTask_S2,2021.1.4,Win32,60.04202942,,,,,,,,,
,,,,,,,,,,,,0,3,3,3,1,fourth,5,21,Female,R,Donders,2021-07-07_15h28.40.941,ImageRatingTask_S2,2021.1.4,Win32,60.04202942,,,,,,,,,
,,,,,,,,,,,,0,4,4,4,1,fifth,5,21,Female,R,Donders,2021-07-07_15h28.40.941,ImageRatingTask_S2,2021.1.4,Win32,60.04202942,,,,,,,,,
,,,,,,,,,,,,0,5,5,5,1,sixth,5,21,Female,R,Donders,2021-07-07_15h28.40.941,ImageRatingTask_S2,2021.1.4,Win32,60.04202942,,,,,,,,,
,,,,,,,,,,,,0,6,6,6,1,seventh,5,21,Female,R,Donders,2021-07-07_15h28.40.941,ImageRatingTask_S2,2021.1.4,Win32,60.04202942,,,,,,,,,
,,,,,,,,,,,,0,7,7,7,1,last,5,21,Female,R,Donders,2021-07-07_15h28.40.941,ImageRatingTask_S2,2021.1.4,Win32,60.04202942,,,,,,,,,
,,,,,,,,,,,,,,,,,,5,21,Female,R,Donders,2021-07-07_15h28.40.941,ImageRatingTask_S2,2021.1.4,Win32,60.04202942,0,34,34,130,1,DreamStudyImages_rs1000x750g/Vehicles/Car accident 3.jpg,,,
,,1,2.4204,5,1.7693,8,1.6202,0,5.6564,,,0,0,0,0,1,main,5,21,Female,R,Donders,2021-07-07_15h28.40.941,ImageRatingTask_S2,2021.1.4,Win32,60.04202942,,,,,,,,,
,,,,,,,,,,,,0,1,1,1,1,second,5,21,Female,R,Donders,2021-07-07_15h28.40.941,ImageRatingTask_S2,2021.1.4,Win32,60.04202942,,,,,,,,,
,,,,,,,,,,,,0,2,2,2,1,third,5,21,Female,R,Donders,2021-07-07_15h28.40.941,ImageRatingTask_S2,2021.1.4,Win32,60.04202942,,,,,,,,,
,,,,,,,,,,,,0,3,3,3,1,fourth,5,21,Female,R,Donders,2021-07-07_15h28.40.941,ImageRatingTask_S2,2021.1.4,Win32,60.04202942,,,,,,,,,
,,,,,,,,,,,,0,4,4,4,1,fifth,5,21,Female,R,Donders,2021-07-07_15h28.40.941,ImageRatingTask_S2,2021.1.4,Win32,60.04202942,,,,,,,,,
,,,,,,,,,,,,0,5,5,5,1,sixth,5,21,Female,R,Donders,2021-07-07_15h28.40.941,ImageRatingTask_S2,2021.1.4,Win32,60.04202942,,,,,,,,,
,,,,,,,,,,,,0,6,6,6,1,seventh,5,21,Female,R,Donders,2021-07-07_15h28.40.941,ImageRatingTask_S2,2021.1.4,Win32,60.04202942,,,,,,,,,
,,,,,,,,,,,,0,7,7,7,1,last,5,21,Female,R,Donders,2021-07-07_15h28.40.941,ImageRatingTask_S2,2021.1.4,Win32,60.04202942,,,,,,,,,
,,,,,,,,,,,,,,,,,,5,21,Female,R,Donders,2021-07-07_15h28.40.941,ImageRatingTask_S2,2021.1.4,Win32,60.04202942,0,35,35,65,1,DreamStudyImages_rs1000x750g/Mammals/Animals_038_h.jpg,,,
,,5,48.0292,5,0.3711,7,1.6538,1,1.4262,2,0.08,0,0,0,0,1,main,5,21,Female,R,Donders,2021-07-07_15h28.40.941,ImageRatingTask_S2,2021.1.4,Win32,60.04202942,,,,,,,,,
,,,,,,,,,,,,0,1,1,1,1,second,5,21,Female,R,Donders,2021-07-07_15h28.40.941,ImageRatingTask_S2,2021.1.4,Win32,60.04202942,,,,,,,,,
,,,,,,,,,,,,0,2,2,2,1,third,5,21,Female,R,Donders,2021-07-07_15h28.40.941,ImageRatingTask_S2,2021.1.4,Win32,60.04202942,,,,,,,,,
,,,,,,,,,,,,0,3,3,3,1,fourth,5,21,Female,R,Donders,2021-07-07_15h28.40.941,ImageRatingTask_S2,2021.1.4,Win32,60.04202942,,,,,,,,,
,,,,,,,,,,,,0,4,4,4,1,fifth,5,21,Female,R,Donders,2021-07-07_15h28.40.941,ImageRatingTask_S2,2021.1.4,Win32,60.04202942,,,,,,,,,
,,,,,,,,,,,,0,5,5,5,1,sixth,5,21,Female,R,Donders,2021-07-07_15h28.40.941,ImageRatingTask_S2,2021.1.4,Win32,60.04202942,,,,,,,,,
,,,,,,,,,,,,0,6,6,6,1,seventh,5,21,Female,R,Donders,2021-07-07_15h28.40.941,ImageRatingTask_S2,2021.1.4,Win32,60.04202942,,,,,,,,,
,,,,,,,,,,,,0,7,7,7,1,last,5,21,Female,R,Donders,2021-07-07_15h28.40.941,ImageRatingTask_S2,2021.1.4,Win32,60.04202942,,,,,,,,,
,,,,,,,,,,,,,,,,,,5,21,Female,R,Donders,2021-07-07_15h28.40.941,ImageRatingTask_S2,2021.1.4,Win32,60.04202942,0,36,36,81,1,DreamStudyImages_rs1000x750g/Children/Faces_025_h.jpg,,,
,,9,21.8187,9,1.2066,9,2.6728,1,1.6541,5,0.303,0,0,0,0,1,main,5,21,Female,R,Donders,2021-07-07_15h28.40.941,ImageRatingTask_S2,2021.1.4,Win32,60.04202942,,,,,,,,,
,,,,,,,,,,,,0,1,1,1,1,second,5,21,Female,R,Donders,2021-07-07_15h28.40.941,ImageRatingTask_S2,2021.1.4,Win32,60.04202942,,,,,,,,,
,,,,,,,,,,,,0,2,2,2,1,third,5,21,Female,R,Donders,2021-07-07_15h28.40.941,ImageRatingTask_S2,2021.1.4,Win32,60.04202942,,,,,,,,,
,,,,,,,,,,,,0,3,3,3,1,fourth,5,21,Female,R,Donders,2021-07-07_15h28.40.941,ImageRatingTask_S2,2021.1.4,Win32,60.04202942,,,,,,,,,
,,,,,,,,,,,,0,4,4,4,1,fifth,5,21,Female,R,Donders,2021-07-07_15h28.40.941,ImageRatingTask_S2,2021.1.4,Win32,60.04202942,,,,,,,,,
,,,,,,,,,,,,0,5,5,5,1,sixth,5,21,Female,R,Donders,2021-07-07_15h28.40.941,ImageRatingTask_S2,2021.1.4,Win32,60.04202942,,,,,,,,,
,,,,,,,,,,,,0,6,6,6,1,seventh,5,21,Female,R,Donders,2021-07-07_15h28.40.941,ImageRatingTask_S2,2021.1.4,Win32,60.04202942,,,,,,,,,
,,,,,,,,,,,,0,7,7,7,1,last,5,21,Female,R,Donders,2021-07-07_15h28.40.941,ImageRatingTask_S2,2021.1.4,Win32,60.04202942,,,,,,,,,
,,,,,,,,,,,,,,,,,,5,21,Female,R,Donders,2021-07-07_15h28.40.941,ImageRatingTask_S2,2021.1.4,Win32,60.04202942,0,37,37,0,1,DreamStudyImages_rs1000x750g/Food/Objects_085_h.jpg,,,
,,8,3.0779,7,1.1266,7,1.8859,1,0.8941,5,0.7296,0,0,0,0,1,main,5,21,Female,R,Donders,2021-07-07_15h28.40.941,ImageRatingTask_S2,2021.1.4,Win32,60.04202942,,,,,,,,,
,,,,,,,,,,,,0,1,1,1,1,second,5,21,Female,R,Donders,2021-07-07_15h28.40.941,ImageRatingTask_S2,2021.1.4,Win32,60.04202942,,,,,,,,,
,,,,,,,,,,,,0,2,2,2,1,third,5,21,Female,R,Donders,2021-07-07_15h28.40.941,ImageRatingTask_S2,2021.1.4,Win32,60.04202942,,,,,,,,,
,,,,,,,,,,,,0,3,3,3,1,fourth,5,21,Female,R,Donders,2021-07-07_15h28.40.941,ImageRatingTask_S2,2021.1.4,Win32,60.04202942,,,,,,,,,
,,,,,,,,,,,,0,4,4,4,1,fifth,5,21,Female,R,Donders,2021-07-07_15h28.40.941,ImageRatingTask_S2,2021.1.4,Win32,60.04202942,,,,,,,,,
,,,,,,,,,,,,0,5,5,5,1,sixth,5,21,Female,R,Donders,2021-07-07_15h28.40.941,ImageRatingTask_S2,2021.1.4,Win32,60.04202942,,,,,,,,,
,,,,,,,,,,,,0,6,6,6,1,seventh,5,21,Female,R,Donders,2021-07-07_15h28.40.941,ImageRatingTask_S2,2021.1.4,Win32,60.04202942,,,,,,,,,
,,,,,,,,,,,,0,7,7,7,1,last,5,21,Female,R,Donders,2021-07-07_15h28.40.941,ImageRatingTask_S2,2021.1.4,Win32,60.04202942,,,,,,,,,
,,,,,,,,,,,,,,,,,,5,21,Female,R,Donders,2021-07-07_15h28.40.941,ImageRatingTask_S2,2021.1.4,Win32,60.04202942,0,38,38,75,1,DreamStudyImages_rs1000x750g/Food/Dessert 4.jpg,,,
,,5,3.7093,5,0.207,7,1.644,1,1.3117,7,0.4272,0,0,0,0,1,main,5,21,Female,R,Donders,2021-07-07_15h28.40.941,ImageRatingTask_S2,2021.1.4,Win32,60.04202942,,,,,,,,,
,,,,,,,,,,,,0,1,1,1,1,second,5,21,Female,R,Donders,2021-07-07_15h28.40.941,ImageRatingTask_S2,2021.1.4,Win32,60.04202942,,,,,,,,,
,,,,,,,,,,,,0,2,2,2,1,third,5,21,Female,R,Donders,2021-07-07_15h28.40.941,ImageRatingTask_S2,2021.1.4,Win32,60.04202942,,,,,,,,,
,,,,,,,,,,,,0,3,3,3,1,fourth,5,21,Female,R,Donders,2021-07-07_15h28.40.941,ImageRatingTask_S2,2021.1.4,Win32,60.04202942,,,,,,,,,
,,,,,,,,,,,,0,4,4,4,1,fifth,5,21,Female,R,Donders,2021-07-07_15h28.40.941,ImageRatingTask_S2,2021.1.4,Win32,60.04202942,,,,,,,,,
,,,,,,,,,,,,0,5,5,5,1,sixth,5,21,Female,R,Donders,2021-07-07_15h28.40.941,ImageRatingTask_S2,2021.1.4,Win32,60.04202942,,,,,,,,,
,,,,,,,,,,,,0,6,6,6,1,seventh,5,21,Female,R,Donders,2021-07-07_15h28.40.941,ImageRatingTask_S2,2021.1.4,Win32,60.04202942,,,,,,,,,
,,,,,,,,,,,,0,7,7,7,1,last,5,21,Female,R,Donders,2021-07-07_15h28.40.941,ImageRatingTask_S2,2021.1.4,Win32,60.04202942,,,,,,,,,
,,,,,,,,,,,,,,,,,,5,21,Female,R,Donders,2021-07-07_15h28.40.941,ImageRatingTask_S2,2021.1.4,Win32,60.04202942,0,39,39,46,1,DreamStudyImages_rs1000x750g/Vehicles/IAPS7039_train3.jpg,,,
,,5,6.1181,5,1.0896,8,2.0265,1,0.762,6,0.7386,0,0,0,0,1,main,5,21,Female,R,Donders,2021-07-07_15h28.40.941,ImageRatingTask_S2,2021.1.4,Win32,60.04202942,,,,,,,,,
,,,,,,,,,,,,0,1,1,1,1,second,5,21,Female,R,Donders,2021-07-07_15h28.40.941,ImageRatingTask_S2,2021.1.4,Win32,60.04202942,,,,,,,,,
,,,,,,,,,,,,0,2,2,2,1,third,5,21,Female,R,Donders,2021-07-07_15h28.40.941,ImageRatingTask_S2,2021.1.4,Win32,60.04202942,,,,,,,,,
,,,,,,,,,,,,0,3,3,3,1,fourth,5,21,Female,R,Donders,2021-07-07_15h28.40.941,ImageRatingTask_S2,2021.1.4,Win32,60.04202942,,,,,,,,,
,,,,,,,,,,,,0,4,4,4,1,fifth,5,21,Female,R,Donders,2021-07-07_15h28.40.941,ImageRatingTask_S2,2021.1.4,Win32,60.04202942,,,,,,,,,
,,,,,,,,,,,,0,5,5,5,1,sixth,5,21,Female,R,Donders,2021-07-07_15h28.40.941,ImageRatingTask_S2,2021.1.4,Win32,60.04202942,,,,,,,,,
,,,,,,,,,,,,0,6,6,6,1,seventh,5,21,Female,R,Donders,2021-07-07_15h28.40.941,ImageRatingTask_S2,2021.1.4,Win32,60.04202942,,,,,,,,,
,,,,,,,,,,,,0,7,7,7,1,last,5,21,Female,R,Donders,2021-07-07_15h28.40.941,ImageRatingTask_S2,2021.1.4,Win32,60.04202942,,,,,,,,,
,,,,,,,,,,,,,,,,,,5,21,Female,R,Donders,2021-07-07_15h28.40.941,ImageRatingTask_S2,2021.1.4,Win32,60.04202942,0,40,40,71,1,DreamStudyImages_rs1000x750g/Houses/Landscapes_051_h.jpg,,,
,,3,2.5795,7,2.5658,8,2.2666,1,1.4403,2,0.2416,0,0,0,0,1,main,5,21,Female,R,Donders,2021-07-07_15h28.40.941,ImageRatingTask_S2,2021.1.4,Win32,60.04202942,,,,,,,,,
,,,,,,,,,,,,0,1,1,1,1,second,5,21,Female,R,Donders,2021-07-07_15h28.40.941,ImageRatingTask_S2,2021.1.4,Win32,60.04202942,,,,,,,,,
,,,,,,,,,,,,0,2,2,2,1,third,5,21,Female,R,Donders,2021-07-07_15h28.40.941,ImageRatingTask_S2,2021.1.4,Win32,60.04202942,,,,,,,,,
,,,,,,,,,,,,0,3,3,3,1,fourth,5,21,Female,R,Donders,2021-07-07_15h28.40.941,ImageRatingTask_S2,2021.1.4,Win32,60.04202942,,,,,,,,,
,,,,,,,,,,,,0,4,4,4,1,fifth,5,21,Female,R,Donders,2021-07-07_15h28.40.941,ImageRatingTask_S2,2021.1.4,Win32,60.04202942,,,,,,,,,
,,,,,,,,,,,,0,5,5,5,1,sixth,5,21,Female,R,Donders,2021-07-07_15h28.40.941,ImageRatingTask_S2,2021.1.4,Win32,60.04202942,,,,,,,,,
,,,,,,,,,,,,0,6,6,6,1,seventh,5,21,Female,R,Donders,2021-07-07_15h28.40.941,ImageRatingTask_S2,2021.1.4,Win32,60.04202942,,,,,,,,,
,,,,,,,,,,,,0,7,7,7,1,last,5,21,Female,R,Donders,2021-07-07_15h28.40.941,ImageRatingTask_S2,2021.1.4,Win32,60.04202942,,,,,,,,,
,,,,,,,,,,,,,,,,,,5,21,Female,R,Donders,2021-07-07_15h28.40.941,ImageRatingTask_S2,2021.1.4,Win32,60.04202942,0,41,41,59,1,DreamStudyImages_rs1000x750g/Children/Faces_032_h.jpg,,,
,,5,55.3404,5,0.2408,8,1.577,1,1.4292,2,0.162,0,0,0,0,1,main,5,21,Female,R,Donders,2021-07-07_15h28.40.941,ImageRatingTask_S2,2021.1.4,Win32,60.04202942,,,,,,,,,
,,,,,,,,,,,,0,1,1,1,1,second,5,21,Female,R,Donders,2021-07-07_15h28.40.941,ImageRatingTask_S2,2021.1.4,Win32,60.04202942,,,,,,,,,
,,,,,,,,,,,,0,2,2,2,1,third,5,21,Female,R,Donders,2021-07-07_15h28.40.941,ImageRatingTask_S2,2021.1.4,Win32,60.04202942,,,,,,,,,
,,,,,,,,,,,,0,3,3,3,1,fourth,5,21,Female,R,Donders,2021-07-07_15h28.40.941,ImageRatingTask_S2,2021.1.4,Win32,60.04202942,,,,,,,,,
,,,,,,,,,,,,0,4,4,4,1,fifth,5,21,Female,R,Donders,2021-07-07_15h28.40.941,ImageRatingTask_S2,2021.1.4,Win32,60.04202942,,,,,,,,,
,,,,,,,,,,,,0,5,5,5,1,sixth,5,21,Female,R,Donders,2021-07-07_15h28.40.941,ImageRatingTask_S2,2021.1.4,Win32,60.04202942,,,,,,,,,
,,,,,,,,,,,,0,6,6,6,1,seventh,5,21,Female,R,Donders,2021-07-07_15h28.40.941,ImageRatingTask_S2,2021.1.4,Win32,60.04202942,,,,,,,,,
,,,,,,,,,,,,0,7,7,7,1,last,5,21,Female,R,Donders,2021-07-07_15h28.40.941,ImageRatingTask_S2,2021.1.4,Win32,60.04202942,,,,,,,,,
,,,,,,,,,,,,,,,,,,5,21,Female,R,Donders,2021-07-07_15h28.40.941,ImageRatingTask_S2,2021.1.4,Win32,60.04202942,0,42,42,158,1,DreamStudyImages_rs1000x750g/Children/Baby 8.jpg,,,
,,5,9.746,5,0.2747,5,3.3112,1,2.683,2,0.0684,0,0,0,0,1,main,5,21,Female,R,Donders,2021-07-07_15h28.40.941,ImageRatingTask_S2,2021.1.4,Win32,60.04202942,,,,,,,,,
,,,,,,,,,,,,0,1,1,1,1,second,5,21,Female,R,Donders,2021-07-07_15h28.40.941,ImageRatingTask_S2,2021.1.4,Win32,60.04202942,,,,,,,,,
,,,,,,,,,,,,0,2,2,2,1,third,5,21,Female,R,Donders,2021-07-07_15h28.40.941,ImageRatingTask_S2,2021.1.4,Win32,60.04202942,,,,,,,,,
,,,,,,,,,,,,0,3,3,3,1,fourth,5,21,Female,R,Donders,2021-07-07_15h28.40.941,ImageRatingTask_S2,2021.1.4,Win32,60.04202942,,,,,,,,,
,,,,,,,,,,,,0,4,4,4,1,fifth,5,21,Female,R,Donders,2021-07-07_15h28.40.941,ImageRatingTask_S2,2021.1.4,Win32,60.04202942,,,,,,,,,
,,,,,,,,,,,,0,5,5,5,1,sixth,5,21,Female,R,Donders,2021-07-07_15h28.40.941,ImageRatingTask_S2,2021.1.4,Win32,60.04202942,,,,,,,,,
,,,,,,,,,,,,0,6,6,6,1,seventh,5,21,Female,R,Donders,2021-07-07_15h28.40.941,ImageRatingTask_S2,2021.1.4,Win32,60.04202942,,,,,,,,,
,,,,,,,,,,,,0,7,7,7,1,last,5,21,Female,R,Donders,2021-07-07_15h28.40.941,ImageRatingTask_S2,2021.1.4,Win32,60.04202942,,,,,,,,,
,,,,,,,,,,,,,,,,,,5,21,Female,R,Donders,2021-07-07_15h28.40.941,ImageRatingTask_S2,2021.1.4,Win32,60.04202942,0,43,43,143,1,DreamStudyImages_rs1000x750g/Children/Child labor 3.jpg,,,
,,5,42.7312,5,0.4459,5,1.5776,1,1.5573,7,0.9657,0,0,0,0,1,main,5,21,Female,R,Donders,2021-07-07_15h28.40.941,ImageRatingTask_S2,2021.1.4,Win32,60.04202942,,,,,,,,,
,,,,,,,,,,,,0,1,1,1,1,second,5,21,Female,R,Donders,2021-07-07_15h28.40.941,ImageRatingTask_S2,2021.1.4,Win32,60.04202942,,,,,,,,,
,,,,,,,,,,,,0,2,2,2,1,third,5,21,Female,R,Donders,2021-07-07_15h28.40.941,ImageRatingTask_S2,2021.1.4,Win32,60.04202942,,,,,,,,,
,,,,,,,,,,,,0,3,3,3,1,fourth,5,21,Female,R,Donders,2021-07-07_15h28.40.941,ImageRatingTask_S2,2021.1.4,Win32,60.04202942,,,,,,,,,
,,,,,,,,,,,,0,4,4,4,1,fifth,5,21,Female,R,Donders,2021-07-07_15h28.40.941,ImageRatingTask_S2,2021.1.4,Win32,60.04202942,,,,,,,,,
,,,,,,,,,,,,0,5,5,5,1,sixth,5,21,Female,R,Donders,2021-07-07_15h28.40.941,ImageRatingTask_S2,2021.1.4,Win32,60.04202942,,,,,,,,,
,,,,,,,,,,,,0,6,6,6,1,seventh,5,21,Female,R,Donders,2021-07-07_15h28.40.941,ImageRatingTask_S2,2021.1.4,Win32,60.04202942,,,,,,,,,
,,,,,,,,,,,,0,7,7,7,1,last,5,21,Female,R,Donders,2021-07-07_15h28.40.941,ImageRatingTask_S2,2021.1.4,Win32,60.04202942,,,,,,,,,
,,,,,,,,,,,,,,,,,,5,21,Female,R,Donders,2021-07-07_15h28.40.941,ImageRatingTask_S2,2021.1.4,Win32,60.04202942,0,44,44,22,1,DreamStudyImages_rs1000x750g/Vehicles/IAPS7560_traffic.jpg,,,
,,6,3.2112,4,1.6631,7,1.7346,1,1.1962,2,0.0689,0,0,0,0,1,main,5,21,Female,R,Donders,2021-07-07_15h28.40.941,ImageRatingTask_S2,2021.1.4,Win32,60.04202942,,,,,,,,,
,,,,,,,,,,,,0,1,1,1,1,second,5,21,Female,R,Donders,2021-07-07_15h28.40.941,ImageRatingTask_S2,2021.1.4,Win32,60.04202942,,,,,,,,,
,,,,,,,,,,,,0,2,2,2,1,third,5,21,Female,R,Donders,2021-07-07_15h28.40.941,ImageRatingTask_S2,2021.1.4,Win32,60.04202942,,,,,,,,,
,,,,,,,,,,,,0,3,3,3,1,fourth,5,21,Female,R,Donders,2021-07-07_15h28.40.941,ImageRatingTask_S2,2021.1.4,Win32,60.04202942,,,,,,,,,
,,,,,,,,,,,,0,4,4,4,1,fifth,5,21,Female,R,Donders,2021-07-07_15h28.40.941,ImageRatingTask_S2,2021.1.4,Win32,60.04202942,,,,,,,,,
,,,,,,,,,,,,0,5,5,5,1,sixth,5,21,Female,R,Donders,2021-07-07_15h28.40.941,ImageRatingTask_S2,2021.1.4,Win32,60.04202942,,,,,,,,,
,,,,,,,,,,,,0,6,6,6,1,seventh,5,21,Female,R,Donders,2021-07-07_15h28.40.941,ImageRatingTask_S2,2021.1.4,Win32,60.04202942,,,,,,,,,
,,,,,,,,,,,,0,7,7,7,1,last,5,21,Female,R,Donders,2021-07-07_15h28.40.941,ImageRatingTask_S2,2021.1.4,Win32,60.04202942,,,,,,,,,
,,,,,,,,,,,,,,,,,,5,21,Female,R,Donders,2021-07-07_15h28.40.941,ImageRatingTask_S2,2021.1.4,Win32,60.04202942,0,45,45,149,1,DreamStudyImages_rs1000x750g/Children/IAPS2442_child3.jpg,,,
,,3,4.3419,7,1.9091,7,2.5131,1,1.2399,2,0.1785,0,0,0,0,1,main,5,21,Female,R,Donders,2021-07-07_15h28.40.941,ImageRatingTask_S2,2021.1.4,Win32,60.04202942,,,,,,,,,
,,,,,,,,,,,,0,1,1,1,1,second,5,21,Female,R,Donders,2021-07-07_15h28.40.941,ImageRatingTask_S2,2021.1.4,Win32,60.04202942,,,,,,,,,
,,,,,,,,,,,,0,2,2,2,1,third,5,21,Female,R,Donders,2021-07-07_15h28.40.941,ImageRatingTask_S2,2021.1.4,Win32,60.04202942,,,,,,,,,
,,,,,,,,,,,,0,3,3,3,1,fourth,5,21,Female,R,Donders,2021-07-07_15h28.40.941,ImageRatingTask_S2,2021.1.4,Win32,60.04202942,,,,,,,,,
,,,,,,,,,,,,0,4,4,4,1,fifth,5,21,Female,R,Donders,2021-07-07_15h28.40.941,ImageRatingTask_S2,2021.1.4,Win32,60.04202942,,,,,,,,,
,,,,,,,,,,,,0,5,5,5,1,sixth,5,21,Female,R,Donders,2021-07-07_15h28.40.941,ImageRatingTask_S2,2021.1.4,Win32,60.04202942,,,,,,,,,
,,,,,,,,,,,,0,6,6,6,1,seventh,5,21,Female,R,Donders,2021-07-07_15h28.40.941,ImageRatingTask_S2,2021.1.4,Win32,60.04202942,,,,,,,,,
,,,,,,,,,,,,0,7,7,7,1,last,5,21,Female,R,Donders,2021-07-07_15h28.40.941,ImageRatingTask_S2,2021.1.4,Win32,60.04202942,,,,,,,,,
,,,,,,,,,,,,,,,,,,5,21,Female,R,Donders,2021-07-07_15h28.40.941,ImageRatingTask_S2,2021.1.4,Win32,60.04202942,0,46,46,84,1,DreamStudyImages_rs1000x750g/Children/War 1.jpg,,,
,,5,10.2909,5,0.4047,9,1.3128,1,1.7917,7,0.2701,0,0,0,0,1,main,5,21,Female,R,Donders,2021-07-07_15h28.40.941,ImageRatingTask_S2,2021.1.4,Win32,60.04202942,,,,,,,,,
,,,,,,,,,,,,0,1,1,1,1,second,5,21,Female,R,Donders,2021-07-07_15h28.40.941,ImageRatingTask_S2,2021.1.4,Win32,60.04202942,,,,,,,,,
,,,,,,,,,,,,0,2,2,2,1,third,5,21,Female,R,Donders,2021-07-07_15h28.40.941,ImageRatingTask_S2,2021.1.4,Win32,60.04202942,,,,,,,,,
,,,,,,,,,,,,0,3,3,3,1,fourth,5,21,Female,R,Donders,2021-07-07_15h28.40.941,ImageRatingTask_S2,2021.1.4,Win32,60.04202942,,,,,,,,,
,,,,,,,,,,,,0,4,4,4,1,fifth,5,21,Female,R,Donders,2021-07-07_15h28.40.941,ImageRatingTask_S2,2021.1.4,Win32,60.04202942,,,,,,,,,
,,,,,,,,,,,,0,5,5,5,1,sixth,5,21,Female,R,Donders,2021-07-07_15h28.40.941,ImageRatingTask_S2,2021.1.4,Win32,60.04202942,,,,,,,,,
,,,,,,,,,,,,0,6,6,6,1,seventh,5,21,Female,R,Donders,2021-07-07_15h28.40.941,ImageRatingTask_S2,2021.1.4,Win32,60.04202942,,,,,,,,,
,,,,,,,,,,,,0,7,7,7,1,last,5,21,Female,R,Donders,2021-07-07_15h28.40.941,ImageRatingTask_S2,2021.1.4,Win32,60.04202942,,,,,,,,,
,,,,,,,,,,,,,,,,,,5,21,Female,R,Donders,2021-07-07_15h28.40.941,ImageRatingTask_S2,2021.1.4,Win32,60.04202942,0,47,47,88,1,DreamStudyImages_rs1000x750g/Vehicles/parkedhelicopter.jpg,,,
,,2,1.9515,5,1.4229,7,1.9106,1,1.2591,6,0.8088,0,0,0,0,1,main,5,21,Female,R,Donders,2021-07-07_15h28.40.941,ImageRatingTask_S2,2021.1.4,Win32,60.04202942,,,,,,,,,
,,,,,,,,,,,,0,1,1,1,1,second,5,21,Female,R,Donders,2021-07-07_15h28.40.941,ImageRatingTask_S2,2021.1.4,Win32,60.04202942,,,,,,,,,
,,,,,,,,,,,,0,2,2,2,1,third,5,21,Female,R,Donders,2021-07-07_15h28.40.941,ImageRatingTask_S2,2021.1.4,Win32,60.04202942,,,,,,,,,
,,,,,,,,,,,,0,3,3,3,1,fourth,5,21,Female,R,Donders,2021-07-07_15h28.40.941,ImageRatingTask_S2,2021.1.4,Win32,60.04202942,,,,,,,,,
,,,,,,,,,,,,0,4,4,4,1,fifth,5,21,Female,R,Donders,2021-07-07_15h28.40.941,ImageRatingTask_S2,2021.1.4,Win32,60.04202942,,,,,,,,,
,,,,,,,,,,,,0,5,5,5,1,sixth,5,21,Female,R,Donders,2021-07-07_15h28.40.941,ImageRatingTask_S2,2021.1.4,Win32,60.04202942,,,,,,,,,
,,,,,,,,,,,,0,6,6,6,1,seventh,5,21,Female,R,Donders,2021-07-07_15h28.40.941,ImageRatingTask_S2,2021.1.4,Win32,60.04202942,,,,,,,,,
,,,,,,,,,,,,0,7,7,7,1,last,5,21,Female,R,Donders,2021-07-07_15h28.40.941,ImageRatingTask_S2,2021.1.4,Win32,60.04202942,,,,,,,,,
,,,,,,,,,,,,,,,,,,5,21,Female,R,Donders,2021-07-07_15h28.40.941,ImageRatingTask_S2,2021.1.4,Win32,60.04202942,0,48,48,35,1,DreamStudyImages_rs1000x750g/Houses/NDPS92_destroyedhouse.jpg,,,
,,3,2.7496,7,1.5953,8,1.9797,1,1.361,3,0.712,0,0,0,0,1,main,5,21,Female,R,Donders,2021-07-07_15h28.40.941,ImageRatingTask_S2,2021.1.4,Win32,60.04202942,,,,,,,,,
,,,,,,,,,,,,0,1,1,1,1,second,5,21,Female,R,Donders,2021-07-07_15h28.40.941,ImageRatingTask_S2,2021.1.4,Win32,60.04202942,,,,,,,,,
,,,,,,,,,,,,0,2,2,2,1,third,5,21,Female,R,Donders,2021-07-07_15h28.40.941,ImageRatingTask_S2,2021.1.4,Win32,60.04202942,,,,,,,,,
,,,,,,,,,,,,0,3,3,3,1,fourth,5,21,Female,R,Donders,2021-07-07_15h28.40.941,ImageRatingTask_S2,2021.1.4,Win32,60.04202942,,,,,,,,,
,,,,,,,,,,,,0,4,4,4,1,fifth,5,21,Female,R,Donders,2021-07-07_15h28.40.941,ImageRatingTask_S2,2021.1.4,Win32,60.04202942,,,,,,,,,
,,,,,,,,,,,,0,5,5,5,1,sixth,5,21,Female,R,Donders,2021-07-07_15h28.40.941,ImageRatingTask_S2,2021.1.4,Win32,60.04202942,,,,,,,,,
,,,,,,,,,,,,0,6,6,6,1,seventh,5,21,Female,R,Donders,2021-07-07_15h28.40.941,ImageRatingTask_S2,2021.1.4,Win32,60.04202942,,,,,,,,,
,,,,,,,,,,,,0,7,7,7,1,last,5,21,Female,R,Donders,2021-07-07_15h28.40.941,ImageRatingTask_S2,2021.1.4,Win32,60.04202942,,,,,,,,,
,,,,,,,,,,,,,,,,,,5,21,Female,R,Donders,2021-07-07_15h28.40.941,ImageRatingTask_S2,2021.1.4,Win32,60.04202942,0,49,49,39,1,DreamStudyImages_rs1000x750g/Mammals/Tiger 1.jpg,,,
,,8,2.5403,3,2.1604,8,2.9142,1,1.8269,6,0.9804,0,0,0,0,1,main,5,21,Female,R,Donders,2021-07-07_15h28.40.941,ImageRatingTask_S2,2021.1.4,Win32,60.04202942,,,,,,,,,
,,,,,,,,,,,,0,1,1,1,1,second,5,21,Female,R,Donders,2021-07-07_15h28.40.941,ImageRatingTask_S2,2021.1.4,Win32,60.04202942,,,,,,,,,
,,,,,,,,,,,,0,2,2,2,1,third,5,21,Female,R,Donders,2021-07-07_15h28.40.941,ImageRatingTask_S2,2021.1.4,Win32,60.04202942,,,,,,,,,
,,,,,,,,,,,,0,3,3,3,1,fourth,5,21,Female,R,Donders,2021-07-07_15h28.40.941,ImageRatingTask_S2,2021.1.4,Win32,60.04202942,,,,,,,,,
,,,,,,,,,,,,0,4,4,4,1,fifth,5,21,Female,R,Donders,2021-07-07_15h28.40.941,ImageRatingTask_S2,2021.1.4,Win32,60.04202942,,,,,,,,,
,,,,,,,,,,,,0,5,5,5,1,sixth,5,21,Female,R,Donders,2021-07-07_15h28.40.941,ImageRatingTask_S2,2021.1.4,Win32,60.04202942,,,,,,,,,
,,,,,,,,,,,,0,6,6,6,1,seventh,5,21,Female,R,Donders,2021-07-07_15h28.40.941,ImageRatingTask_S2,2021.1.4,Win32,60.04202942,,,,,,,,,
,,,,,,,,,,,,0,7,7,7,1,last,5,21,Female,R,Donders,2021-07-07_15h28.40.941,ImageRatingTask_S2,2021.1.4,Win32,60.04202942,,,,,,,,,
,,,,,,,,,,,,,,,,,,5,21,Female,R,Donders,2021-07-07_15h28.40.941,ImageRatingTask_S2,2021.1.4,Win32,60.04202942,0,50,50,67,1,DreamStudyImages_rs1000x750g/Houses/7530.jpg,,,
,,5,17.9895,5,0.3941,8,1.7486,1,1.4774,7,0.2541,0,0,0,0,1,main,5,21,Female,R,Donders,2021-07-07_15h28.40.941,ImageRatingTask_S2,2021.1.4,Win32,60.04202942,,,,,,,,,
,,,,,,,,,,,,0,1,1,1,1,second,5,21,Female,R,Donders,2021-07-07_15h28.40.941,ImageRatingTask_S2,2021.1.4,Win32,60.04202942,,,,,,,,,
,,,,,,,,,,,,0,2,2,2,1,third,5,21,Female,R,Donders,2021-07-07_15h28.40.941,ImageRatingTask_S2,2021.1.4,Win32,60.04202942,,,,,,,,,
,,,,,,,,,,,,0,3,3,3,1,fourth,5,21,Female,R,Donders,2021-07-07_15h28.40.941,ImageRatingTask_S2,2021.1.4,Win32,60.04202942,,,,,,,,,
,,,,,,,,,,,,0,4,4,4,1,fifth,5,21,Female,R,Donders,2021-07-07_15h28.40.941,ImageRatingTask_S2,2021.1.4,Win32,60.04202942,,,,,,,,,
,,,,,,,,,,,,0,5,5,5,1,sixth,5,21,Female,R,Donders,2021-07-07_15h28.40.941,ImageRatingTask_S2,2021.1.4,Win32,60.04202942,,,,,,,,,
,,,,,,,,,,,,0,6,6,6,1,seventh,5,21,Female,R,Donders,2021-07-07_15h28.40.941,ImageRatingTask_S2,2021.1.4,Win32,60.04202942,,,,,,,,,
,,,,,,,,,,,,0,7,7,7,1,last,5,21,Female,R,Donders,2021-07-07_15h28.40.941,ImageRatingTask_S2,2021.1.4,Win32,60.04202942,,,,,,,,,
,,,,,,,,,,,,,,,,,,5,21,Female,R,Donders,2021-07-07_15h28.40.941,ImageRatingTask_S2,2021.1.4,Win32,60.04202942,0,51,51,31,1,DreamStudyImages_rs1000x750g/Vehicles/Objects_277_h.jpg,,,
,,5,3.3964,5,0.3396,8,1.4573,1,1.2677,6,0.3046,0,0,0,0,1,main,5,21,Female,R,Donders,2021-07-07_15h28.40.941,ImageRatingTask_S2,2021.1.4,Win32,60.04202942,,,,,,,,,
,,,,,,,,,,,,0,1,1,1,1,second,5,21,Female,R,Donders,2021-07-07_15h28.40.941,ImageRatingTask_S2,2021.1.4,Win32,60.04202942,,,,,,,,,
,,,,,,,,,,,,0,2,2,2,1,third,5,21,Female,R,Donders,2021-07-07_15h28.40.941,ImageRatingTask_S2,2021.1.4,Win32,60.04202942,,,,,,,,,
,,,,,,,,,,,,0,3,3,3,1,fourth,5,21,Female,R,Donders,2021-07-07_15h28.40.941,ImageRatingTask_S2,2021.1.4,Win32,60.04202942,,,,,,,,,
,,,,,,,,,,,,0,4,4,4,1,fifth,5,21,Female,R,Donders,2021-07-07_15h28.40.941,ImageRatingTask_S2,2021.1.4,Win32,60.04202942,,,,,,,,,
,,,,,,,,,,,,0,5,5,5,1,sixth,5,21,Female,R,Donders,2021-07-07_15h28.40.941,ImageRatingTask_S2,2021.1.4,Win32,60.04202942,,,,,,,,,
,,,,,,,,,,,,0,6,6,6,1,seventh,5,21,Female,R,Donders,2021-07-07_15h28.40.941,ImageRatingTask_S2,2021.1.4,Win32,60.04202942,,,,,,,,,
,,,,,,,,,,,,0,7,7,7,1,last,5,21,Female,R,Donders,2021-07-07_15h28.40.941,ImageRatingTask_S2,2021.1.4,Win32,60.04202942,,,,,,,,,
,,,,,,,,,,,,,,,,,,5,21,Female,R,Donders,2021-07-07_15h28.40.941,ImageRatingTask_S2,2021.1.4,Win32,60.04202942,0,52,52,104,1,DreamStudyImages_rs1000x750g/Houses/Landscapes_033_h_CROPPED.jpg,,,
,,3,6.3879,5,1.6745,8,1.3984,1,1.1763,3,0.6693,0,0,0,0,1,main,5,21,Female,R,Donders,2021-07-07_15h28.40.941,ImageRatingTask_S2,2021.1.4,Win32,60.04202942,,,,,,,,,
,,,,,,,,,,,,0,1,1,1,1,second,5,21,Female,R,Donders,2021-07-07_15h28.40.941,ImageRatingTask_S2,2021.1.4,Win32,60.04202942,,,,,,,,,
,,,,,,,,,,,,0,2,2,2,1,third,5,21,Female,R,Donders,2021-07-07_15h28.40.941,ImageRatingTask_S2,2021.1.4,Win32,60.04202942,,,,,,,,,
,,,,,,,,,,,,0,3,3,3,1,fourth,5,21,Female,R,Donders,2021-07-07_15h28.40.941,ImageRatingTask_S2,2021.1.4,Win32,60.04202942,,,,,,,,,
,,,,,,,,,,,,0,4,4,4,1,fifth,5,21,Female,R,Donders,2021-07-07_15h28.40.941,ImageRatingTask_S2,2021.1.4,Win32,60.04202942,,,,,,,,,
,,,,,,,,,,,,0,5,5,5,1,sixth,5,21,Female,R,Donders,2021-07-07_15h28.40.941,ImageRatingTask_S2,2021.1.4,Win32,60.04202942,,,,,,,,,
,,,,,,,,,,,,0,6,6,6,1,seventh,5,21,Female,R,Donders,2021-07-07_15h28.40.941,ImageRatingTask_S2,2021.1.4,Win32,60.04202942,,,,,,,,,
,,,,,,,,,,,,0,7,7,7,1,last,5,21,Female,R,Donders,2021-07-07_15h28.40.941,ImageRatingTask_S2,2021.1.4,Win32,60.04202942,,,,,,,,,
,,,,,,,,,,,,,,,,,,5,21,Female,R,Donders,2021-07-07_15h28.40.941,ImageRatingTask_S2,2021.1.4,Win32,60.04202942,0,53,53,2,1,DreamStudyImages_rs1000x750g/Mammals/Animals_067_h.jpg,,,
,,8,4.1241,2,1.7773,7,2.1395,1,0.8511,6,0.8184,0,0,0,0,1,main,5,21,Female,R,Donders,2021-07-07_15h28.40.941,ImageRatingTask_S2,2021.1.4,Win32,60.04202942,,,,,,,,,
,,,,,,,,,,,,0,1,1,1,1,second,5,21,Female,R,Donders,2021-07-07_15h28.40.941,ImageRatingTask_S2,2021.1.4,Win32,60.04202942,,,,,,,,,
,,,,,,,,,,,,0,2,2,2,1,third,5,21,Female,R,Donders,2021-07-07_15h28.40.941,ImageRatingTask_S2,2021.1.4,Win32,60.04202942,,,,,,,,,
,,,,,,,,,,,,0,3,3,3,1,fourth,5,21,Female,R,Donders,2021-07-07_15h28.40.941,ImageRatingTask_S2,2021.1.4,Win32,60.04202942,,,,,,,,,
,,,,,,,,,,,,0,4,4,4,1,fifth,5,21,Female,R,Donders,2021-07-07_15h28.40.941,ImageRatingTask_S2,2021.1.4,Win32,60.04202942,,,,,,,,,
,,,,,,,,,,,,0,5,5,5,1,sixth,5,21,Female,R,Donders,2021-07-07_15h28.40.941,ImageRatingTask_S2,2021.1.4,Win32,60.04202942,,,,,,,,,
,,,,,,,,,,,,0,6,6,6,1,seventh,5,21,Female,R,Donders,2021-07-07_15h28.40.941,ImageRatingTask_S2,2021.1.4,Win32,60.04202942,,,,,,,,,
,,,,,,,,,,,,0,7,7,7,1,last,5,21,Female,R,Donders,2021-07-07_15h28.40.941,ImageRatingTask_S2,2021.1.4,Win32,60.04202942,,,,,,,,,
,,,,,,,,,,,,,,,,,,5,21,Female,R,Donders,2021-07-07_15h28.40.941,ImageRatingTask_S2,2021.1.4,Win32,60.04202942,0,54,54,44,1,DreamStudyImages_rs1000x750g/Houses/Landscapes_086_v.jpg,,,
,,5,4.8462,5,0.1942,7,1.3794,1,0.5571,6,0.7834,0,0,0,0,1,main,5,21,Female,R,Donders,2021-07-07_15h28.40.941,ImageRatingTask_S2,2021.1.4,Win32,60.04202942,,,,,,,,,
,,,,,,,,,,,,0,1,1,1,1,second,5,21,Female,R,Donders,2021-07-07_15h28.40.941,ImageRatingTask_S2,2021.1.4,Win32,60.04202942,,,,,,,,,
,,,,,,,,,,,,0,2,2,2,1,third,5,21,Female,R,Donders,2021-07-07_15h28.40.941,ImageRatingTask_S2,2021.1.4,Win32,60.04202942,,,,,,,,,
,,,,,,,,,,,,0,3,3,3,1,fourth,5,21,Female,R,Donders,2021-07-07_15h28.40.941,ImageRatingTask_S2,2021.1.4,Win32,60.04202942,,,,,,,,,
,,,,,,,,,,,,0,4,4,4,1,fifth,5,21,Female,R,Donders,2021-07-07_15h28.40.941,ImageRatingTask_S2,2021.1.4,Win32,60.04202942,,,,,,,,,
,,,,,,,,,,,,0,5,5,5,1,sixth,5,21,Female,R,Donders,2021-07-07_15h28.40.941,ImageRatingTask_S2,2021.1.4,Win32,60.04202942,,,,,,,,,
,,,,,,,,,,,,0,6,6,6,1,seventh,5,21,Female,R,Donders,2021-07-07_15h28.40.941,ImageRatingTask_S2,2021.1.4,Win32,60.04202942,,,,,,,,,
,,,,,,,,,,,,0,7,7,7,1,last,5,21,Female,R,Donders,2021-07-07_15h28.40.941,ImageRatingTask_S2,2021.1.4,Win32,60.04202942,,,,,,,,,
,,,,,,,,,,,,,,,,,,5,21,Female,R,Donders,2021-07-07_15h28.40.941,ImageRatingTask_S2,2021.1.4,Win32,60.04202942,0,55,55,101,1,DreamStudyImages_rs1000x750g/Houses/IAPS7490_window.jpg,,,
,,8,3.5385,5,2.3997,8,2.9761,1,1.0244,3,1.0285,0,0,0,0,1,main,5,21,Female,R,Donders,2021-07-07_15h28.40.941,ImageRatingTask_S2,2021.1.4,Win32,60.04202942,,,,,,,,,
,,,,,,,,,,,,0,1,1,1,1,second,5,21,Female,R,Donders,2021-07-07_15h28.40.941,ImageRatingTask_S2,2021.1.4,Win32,60.04202942,,,,,,,,,
,,,,,,,,,,,,0,2,2,2,1,third,5,21,Female,R,Donders,2021-07-07_15h28.40.941,ImageRatingTask_S2,2021.1.4,Win32,60.04202942,,,,,,,,,
,,,,,,,,,,,,0,3,3,3,1,fourth,5,21,Female,R,Donders,2021-07-07_15h28.40.941,ImageRatingTask_S2,2021.1.4,Win32,60.04202942,,,,,,,,,
,,,,,,,,,,,,0,4,4,4,1,fifth,5,21,Female,R,Donders,2021-07-07_15h28.40.941,ImageRatingTask_S2,2021.1.4,Win32,60.04202942,,,,,,,,,
,,,,,,,,,,,,0,5,5,5,1,sixth,5,21,Female,R,Donders,2021-07-07_15h28.40.941,ImageRatingTask_S2,2021.1.4,Win32,60.04202942,,,,,,,,,
,,,,,,,,,,,,0,6,6,6,1,seventh,5,21,Female,R,Donders,2021-07-07_15h28.40.941,ImageRatingTask_S2,2021.1.4,Win32,60.04202942,,,,,,,,,
,,,,,,,,,,,,0,7,7,7,1,last,5,21,Female,R,Donders,2021-07-07_15h28.40.941,ImageRatingTask_S2,2021.1.4,Win32,60.04202942,,,,,,,,,
,,,,,,,,,,,,,,,,,,5,21,Female,R,Donders,2021-07-07_15h28.40.941,ImageRatingTask_S2,2021.1.4,Win32,60.04202942,0,56,56,4,1,DreamStudyImages_rs1000x750g/Mammals/Animals_117_h.jpg,,,
,,2,4.0408,5,1.7047,7,1.6887,1,1.4255,3,1.6955,0,0,0,0,1,main,5,21,Female,R,Donders,2021-07-07_15h28.40.941,ImageRatingTask_S2,2021.1.4,Win32,60.04202942,,,,,,,,,
,,,,,,,,,,,,0,1,1,1,1,second,5,21,Female,R,Donders,2021-07-07_15h28.40.941,ImageRatingTask_S2,2021.1.4,Win32,60.04202942,,,,,,,,,
,,,,,,,,,,,,0,2,2,2,1,third,5,21,Female,R,Donders,2021-07-07_15h28.40.941,ImageRatingTask_S2,2021.1.4,Win32,60.04202942,,,,,,,,,
,,,,,,,,,,,,0,3,3,3,1,fourth,5,21,Female,R,Donders,2021-07-07_15h28.40.941,ImageRatingTask_S2,2021.1.4,Win32,60.04202942,,,,,,,,,
,,,,,,,,,,,,0,4,4,4,1,fifth,5,21,Female,R,Donders,2021-07-07_15h28.40.941,ImageRatingTask_S2,2021.1.4,Win32,60.04202942,,,,,,,,,
,,,,,,,,,,,,0,5,5,5,1,sixth,5,21,Female,R,Donders,2021-07-07_15h28.40.941,ImageRatingTask_S2,2021.1.4,Win32,60.04202942,,,,,,,,,
,,,,,,,,,,,,0,6,6,6,1,seventh,5,21,Female,R,Donders,2021-07-07_15h28.40.941,ImageRatingTask_S2,2021.1.4,Win32,60.04202942,,,,,,,,,
,,,,,,,,,,,,0,7,7,7,1,last,5,21,Female,R,Donders,2021-07-07_15h28.40.941,ImageRatingTask_S2,2021.1.4,Win32,60.04202942,,,,,,,,,
,,,,,,,,,,,,,,,,,,5,21,Female,R,Donders,2021-07-07_15h28.40.941,ImageRatingTask_S2,2021.1.4,Win32,60.04202942,0,57,57,74,1,DreamStudyImages_rs1000x750g/Mammals/Monkey 4.jpg,,,
,,5,4.1362,5,0.1777,8,2.9871,1,1.4581,8,0.0855,0,0,0,0,1,main,5,21,Female,R,Donders,2021-07-07_15h28.40.941,ImageRatingTask_S2,2021.1.4,Win32,60.04202942,,,,,,,,,
,,,,,,,,,,,,0,1,1,1,1,second,5,21,Female,R,Donders,2021-07-07_15h28.40.941,ImageRatingTask_S2,2021.1.4,Win32,60.04202942,,,,,,,,,
,,,,,,,,,,,,0,2,2,2,1,third,5,21,Female,R,Donders,2021-07-07_15h28.40.941,ImageRatingTask_S2,2021.1.4,Win32,60.04202942,,,,,,,,,
,,,,,,,,,,,,0,3,3,3,1,fourth,5,21,Female,R,Donders,2021-07-07_15h28.40.941,ImageRatingTask_S2,2021.1.4,Win32,60.04202942,,,,,,,,,
,,,,,,,,,,,,0,4,4,4,1,fifth,5,21,Female,R,Donders,2021-07-07_15h28.40.941,ImageRatingTask_S2,2021.1.4,Win32,60.04202942,,,,,,,,,
,,,,,,,,,,,,0,5,5,5,1,sixth,5,21,Female,R,Donders,2021-07-07_15h28.40.941,ImageRatingTask_S2,2021.1.4,Win32,60.04202942,,,,,,,,,
,,,,,,,,,,,,0,6,6,6,1,seventh,5,21,Female,R,Donders,2021-07-07_15h28.40.941,ImageRatingTask_S2,2021.1.4,Win32,60.04202942,,,,,,,,,
,,,,,,,,,,,,0,7,7,7,1,last,5,21,Female,R,Donders,2021-07-07_15h28.40.941,ImageRatingTask_S2,2021.1.4,Win32,60.04202942,,,,,,,,,
,,,,,,,,,,,,,,,,,,5,21,Female,R,Donders,2021-07-07_15h28.40.941,ImageRatingTask_S2,2021.1.4,Win32,60.04202942,0,58,58,68,1,DreamStudyImages_rs1000x750g/Water/98.jpg,,,
,,5,3.1664,5,0.0828,8,1.2929,1,0.8488,2,0.1497,0,0,0,0,1,main,5,21,Female,R,Donders,2021-07-07_15h28.40.941,ImageRatingTask_S2,2021.1.4,Win32,60.04202942,,,,,,,,,
,,,,,,,,,,,,0,1,1,1,1,second,5,21,Female,R,Donders,2021-07-07_15h28.40.941,ImageRatingTask_S2,2021.1.4,Win32,60.04202942,,,,,,,,,
,,,,,,,,,,,,0,2,2,2,1,third,5,21,Female,R,Donders,2021-07-07_15h28.40.941,ImageRatingTask_S2,2021.1.4,Win32,60.04202942,,,,,,,,,
,,,,,,,,,,,,0,3,3,3,1,fourth,5,21,Female,R,Donders,2021-07-07_15h28.40.941,ImageRatingTask_S2,2021.1.4,Win32,60.04202942,,,,,,,,,
,,,,,,,,,,,,0,4,4,4,1,fifth,5,21,Female,R,Donders,2021-07-07_15h28.40.941,ImageRatingTask_S2,2021.1.4,Win32,60.04202942,,,,,,,,,
,,,,,,,,,,,,0,5,5,5,1,sixth,5,21,Female,R,Donders,2021-07-07_15h28.40.941,ImageRatingTask_S2,2021.1.4,Win32,60.04202942,,,,,,,,,
,,,,,,,,,,,,0,6,6,6,1,seventh,5,21,Female,R,Donders,2021-07-07_15h28.40.941,ImageRatingTask_S2,2021.1.4,Win32,60.04202942,,,,,,,,,
,,,,,,,,,,,,0,7,7,7,1,last,5,21,Female,R,Donders,2021-07-07_15h28.40.941,ImageRatingTask_S2,2021.1.4,Win32,60.04202942,,,,,,,,,
,,,,,,,,,,,,,,,,,,5,21,Female,R,Donders,2021-07-07_15h28.40.941,ImageRatingTask_S2,2021.1.4,Win32,60.04202942,0,59,59,57,1,DreamStudyImages_rs1000x750g/Children/Faces_049_h.jpg,,,
,,8,2.928,6,1.4444,8,2.8924,1,1.5424,5,0.3657,0,0,0,0,1,main,5,21,Female,R,Donders,2021-07-07_15h28.40.941,ImageRatingTask_S2,2021.1.4,Win32,60.04202942,,,,,,,,,
,,,,,,,,,,,,0,1,1,1,1,second,5,21,Female,R,Donders,2021-07-07_15h28.40.941,ImageRatingTask_S2,2021.1.4,Win32,60.04202942,,,,,,,,,
,,,,,,,,,,,,0,2,2,2,1,third,5,21,Female,R,Donders,2021-07-07_15h28.40.941,ImageRatingTask_S2,2021.1.4,Win32,60.04202942,,,,,,,,,
,,,,,,,,,,,,0,3,3,3,1,fourth,5,21,Female,R,Donders,2021-07-07_15h28.40.941,ImageRatingTask_S2,2021.1.4,Win32,60.04202942,,,,,,,,,
,,,,,,,,,,,,0,4,4,4,1,fifth,5,21,Female,R,Donders,2021-07-07_15h28.40.941,ImageRatingTask_S2,2021.1.4,Win32,60.04202942,,,,,,,,,
,,,,,,,,,,,,0,5,5,5,1,sixth,5,21,Female,R,Donders,2021-07-07_15h28.40.941,ImageRatingTask_S2,2021.1.4,Win32,60.04202942,,,,,,,,,
,,,,,,,,,,,,0,6,6,6,1,seventh,5,21,Female,R,Donders,2021-07-07_15h28.40.941,ImageRatingTask_S2,2021.1.4,Win32,60.04202942,,,,,,,,,
,,,,,,,,,,,,0,7,7,7,1,last,5,21,Female,R,Donders,2021-07-07_15h28.40.941,ImageRatingTask_S2,2021.1.4,Win32,60.04202942,,,,,,,,,
,,,,,,,,,,,,,,,,,,5,21,Female,R,Donders,2021-07-07_15h28.40.941,ImageRatingTask_S2,2021.1.4,Win32,60.04202942,0,60,60,120,1,DreamStudyImages_rs1000x750g/Food/Objects_073_h.jpg,,,
,,9,3.4342,1,2.8317,7,2.2694,1,1.4439,8,0.6781,0,0,0,0,1,main,5,21,Female,R,Donders,2021-07-07_15h28.40.941,ImageRatingTask_S2,2021.1.4,Win32,60.04202942,,,,,,,,,
,,,,,,,,,,,,0,1,1,1,1,second,5,21,Female,R,Donders,2021-07-07_15h28.40.941,ImageRatingTask_S2,2021.1.4,Win32,60.04202942,,,,,,,,,
,,,,,,,,,,,,0,2,2,2,1,third,5,21,Female,R,Donders,2021-07-07_15h28.40.941,ImageRatingTask_S2,2021.1.4,Win32,60.04202942,,,,,,,,,
,,,,,,,,,,,,0,3,3,3,1,fourth,5,21,Female,R,Donders,2021-07-07_15h28.40.941,ImageRatingTask_S2,2021.1.4,Win32,60.04202942,,,,,,,,,
,,,,,,,,,,,,0,4,4,4,1,fifth,5,21,Female,R,Donders,2021-07-07_15h28.40.941,ImageRatingTask_S2,2021.1.4,Win32,60.04202942,,,,,,,,,
,,,,,,,,,,,,0,5,5,5,1,sixth,5,21,Female,R,Donders,2021-07-07_15h28.40.941,ImageRatingTask_S2,2021.1.4,Win32,60.04202942,,,,,,,,,
,,,,,,,,,,,,0,6,6,6,1,seventh,5,21,Female,R,Donders,2021-07-07_15h28.40.941,ImageRatingTask_S2,2021.1.4,Win32,60.04202942,,,,,,,,,
,,,,,,,,,,,,0,7,7,7,1,last,5,21,Female,R,Donders,2021-07-07_15h28.40.941,ImageRatingTask_S2,2021.1.4,Win32,60.04202942,,,,,,,,,
,,,,,,,,,,,,,,,,,,5,21,Female,R,Donders,2021-07-07_15h28.40.941,ImageRatingTask_S2,2021.1.4,Win32,60.04202942,0,61,61,113,1,DreamStudyImages_rs1000x750g/Water/NDPS126_volcanicwater2.jpg,,,
,,1,7.0197,8,12.5446,8,1.7387,2,5.7496,4,2.9726,0,0,0,0,1,main,5,21,Female,R,Donders,2021-07-07_15h28.40.941,ImageRatingTask_S2,2021.1.4,Win32,60.04202942,,,,,,,,,
,,,,,,,,,,5,0.3646,0,1,1,1,1,second,5,21,Female,R,Donders,2021-07-07_15h28.40.941,ImageRatingTask_S2,2021.1.4,Win32,60.04202942,,,,,,,,,
,,,,,,,,,,,,0,2,2,2,1,third,5,21,Female,R,Donders,2021-07-07_15h28.40.941,ImageRatingTask_S2,2021.1.4,Win32,60.04202942,,,,,,,,,
,,,,,,,,,,,,0,3,3,3,1,fourth,5,21,Female,R,Donders,2021-07-07_15h28.40.941,ImageRatingTask_S2,2021.1.4,Win32,60.04202942,,,,,,,,,
,,,,,,,,,,,,0,4,4,4,1,fifth,5,21,Female,R,Donders,2021-07-07_15h28.40.941,ImageRatingTask_S2,2021.1.4,Win32,60.04202942,,,,,,,,,
,,,,,,,,,,,,0,5,5,5,1,sixth,5,21,Female,R,Donders,2021-07-07_15h28.40.941,ImageRatingTask_S2,2021.1.4,Win32,60.04202942,,,,,,,,,
,,,,,,,,,,,,0,6,6,6,1,seventh,5,21,Female,R,Donders,2021-07-07_15h28.40.941,ImageRatingTask_S2,2021.1.4,Win32,60.04202942,,,,,,,,,
,,,,,,,,,,,,0,7,7,7,1,last,5,21,Female,R,Donders,2021-07-07_15h28.40.941,ImageRatingTask_S2,2021.1.4,Win32,60.04202942,,,,,,,,,
,,,,,,,,,,,,,,,,,,5,21,Female,R,Donders,2021-07-07_15h28.40.941,ImageRatingTask_S2,2021.1.4,Win32,60.04202942,0,62,62,128,1,DreamStudyImages_rs1000x750g/Food/Objects_022_h.jpg,,,
,,5,5.8609,5,0.2327,8,4.8414,1,3.0243,4,1.4037,0,0,0,0,1,main,5,21,Female,R,Donders,2021-07-07_15h28.40.941,ImageRatingTask_S2,2021.1.4,Win32,60.04202942,,,,,,,,,
,,,,,,,,,,,,0,1,1,1,1,second,5,21,Female,R,Donders,2021-07-07_15h28.40.941,ImageRatingTask_S2,2021.1.4,Win32,60.04202942,,,,,,,,,
,,,,,,,,,,,,0,2,2,2,1,third,5,21,Female,R,Donders,2021-07-07_15h28.40.941,ImageRatingTask_S2,2021.1.4,Win32,60.04202942,,,,,,,,,
,,,,,,,,,,,,0,3,3,3,1,fourth,5,21,Female,R,Donders,2021-07-07_15h28.40.941,ImageRatingTask_S2,2021.1.4,Win32,60.04202942,,,,,,,,,
,,,,,,,,,,,,0,4,4,4,1,fifth,5,21,Female,R,Donders,2021-07-07_15h28.40.941,ImageRatingTask_S2,2021.1.4,Win32,60.04202942,,,,,,,,,
,,,,,,,,,,,,0,5,5,5,1,sixth,5,21,Female,R,Donders,2021-07-07_15h28.40.941,ImageRatingTask_S2,2021.1.4,Win32,60.04202942,,,,,,,,,
,,,,,,,,,,,,0,6,6,6,1,seventh,5,21,Female,R,Donders,2021-07-07_15h28.40.941,ImageRatingTask_S2,2021.1.4,Win32,60.04202942,,,,,,,,,
,,,,,,,,,,,,0,7,7,7,1,last,5,21,Female,R,Donders,2021-07-07_15h28.40.941,ImageRatingTask_S2,2021.1.4,Win32,60.04202942,,,,,,,,,
,,,,,,,,,,,,,,,,,,5,21,Female,R,Donders,2021-07-07_15h28.40.941,ImageRatingTask_S2,2021.1.4,Win32,60.04202942,0,63,63,63,1,DreamStudyImages_rs1000x750g/Food/Objects_089_h.jpg,,,
,,8,14.7001,2,2.8562,7,1.5643,1,0.8798,8,0.9944,0,0,0,0,1,main,5,21,Female,R,Donders,2021-07-07_15h28.40.941,ImageRatingTask_S2,2021.1.4,Win32,60.04202942,,,,,,,,,
,,,,,,,,,,,,0,1,1,1,1,second,5,21,Female,R,Donders,2021-07-07_15h28.40.941,ImageRatingTask_S2,2021.1.4,Win32,60.04202942,,,,,,,,,
,,,,,,,,,,,,0,2,2,2,1,third,5,21,Female,R,Donders,2021-07-07_15h28.40.941,ImageRatingTask_S2,2021.1.4,Win32,60.04202942,,,,,,,,,
,,,,,,,,,,,,0,3,3,3,1,fourth,5,21,Female,R,Donders,2021-07-07_15h28.40.941,ImageRatingTask_S2,2021.1.4,Win32,60.04202942,,,,,,,,,
,,,,,,,,,,,,0,4,4,4,1,fifth,5,21,Female,R,Donders,2021-07-07_15h28.40.941,ImageRatingTask_S2,2021.1.4,Win32,60.04202942,,,,,,,,,
,,,,,,,,,,,,0,5,5,5,1,sixth,5,21,Female,R,Donders,2021-07-07_15h28.40.941,ImageRatingTask_S2,2021.1.4,Win32,60.04202942,,,,,,,,,
,,,,,,,,,,,,0,6,6,6,1,seventh,5,21,Female,R,Donders,2021-07-07_15h28.40.941,ImageRatingTask_S2,2021.1.4,Win32,60.04202942,,,,,,,,,
,,,,,,,,,,,,0,7,7,7,1,last,5,21,Female,R,Donders,2021-07-07_15h28.40.941,ImageRatingTask_S2,2021.1.4,Win32,60.04202942,,,,,,,,,
,,,,,,,,,,,,,,,,,,5,21,Female,R,Donders,2021-07-07_15h28.40.941,ImageRatingTask_S2,2021.1.4,Win32,60.04202942,0,64,64,82,1,DreamStudyImages_rs1000x750g/Water/Thunderstorm 11.jpg,,,
,,8,5.6237,8,1.2236,5,1.9023,1,1.2102,8,0.7375,0,0,0,0,1,main,5,21,Female,R,Donders,2021-07-07_15h28.40.941,ImageRatingTask_S2,2021.1.4,Win32,60.04202942,,,,,,,,,
,,,,,,,,,,,,0,1,1,1,1,second,5,21,Female,R,Donders,2021-07-07_15h28.40.941,ImageRatingTask_S2,2021.1.4,Win32,60.04202942,,,,,,,,,
,,,,,,,,,,,,0,2,2,2,1,third,5,21,Female,R,Donders,2021-07-07_15h28.40.941,ImageRatingTask_S2,2021.1.4,Win32,60.04202942,,,,,,,,,
,,,,,,,,,,,,0,3,3,3,1,fourth,5,21,Female,R,Donders,2021-07-07_15h28.40.941,ImageRatingTask_S2,2021.1.4,Win32,60.04202942,,,,,,,,,
,,,,,,,,,,,,0,4,4,4,1,fifth,5,21,Female,R,Donders,2021-07-07_15h28.40.941,ImageRatingTask_S2,2021.1.4,Win32,60.04202942,,,,,,,,,
,,,,,,,,,,,,0,5,5,5,1,sixth,5,21,Female,R,Donders,2021-07-07_15h28.40.941,ImageRatingTask_S2,2021.1.4,Win32,60.04202942,,,,,,,,,
,,,,,,,,,,,,0,6,6,6,1,seventh,5,21,Female,R,Donders,2021-07-07_15h28.40.941,ImageRatingTask_S2,2021.1.4,Win32,60.04202942,,,,,,,,,
,,,,,,,,,,,,0,7,7,7,1,last,5,21,Female,R,Donders,2021-07-07_15h28.40.941,ImageRatingTask_S2,2021.1.4,Win32,60.04202942,,,,,,,,,
,,,,,,,,,,,,,,,,,,5,21,Female,R,Donders,2021-07-07_15h28.40.941,ImageRatingTask_S2,2021.1.4,Win32,60.04202942,0,65,65,153,1,DreamStudyImages_rs1000x750g/Water/Lake 11.jpg,,,
,,2,2.4681,8,1.6113,5,1.6487,1,4.4483,8,1.0966,0,0,0,0,1,main,5,21,Female,R,Donders,2021-07-07_15h28.40.941,ImageRatingTask_S2,2021.1.4,Win32,60.04202942,,,,,,,,,
,,,,,,,,,,,,0,1,1,1,1,second,5,21,Female,R,Donders,2021-07-07_15h28.40.941,ImageRatingTask_S2,2021.1.4,Win32,60.04202942,,,,,,,,,
,,,,,,,,,,,,0,2,2,2,1,third,5,21,Female,R,Donders,2021-07-07_15h28.40.941,ImageRatingTask_S2,2021.1.4,Win32,60.04202942,,,,,,,,,
,,,,,,,,,,,,0,3,3,3,1,fourth,5,21,Female,R,Donders,2021-07-07_15h28.40.941,ImageRatingTask_S2,2021.1.4,Win32,60.04202942,,,,,,,,,
,,,,,,,,,,,,0,4,4,4,1,fifth,5,21,Female,R,Donders,2021-07-07_15h28.40.941,ImageRatingTask_S2,2021.1.4,Win32,60.04202942,,,,,,,,,
,,,,,,,,,,,,0,5,5,5,1,sixth,5,21,Female,R,Donders,2021-07-07_15h28.40.941,ImageRatingTask_S2,2021.1.4,Win32,60.04202942,,,,,,,,,
,,,,,,,,,,,,0,6,6,6,1,seventh,5,21,Female,R,Donders,2021-07-07_15h28.40.941,ImageRatingTask_S2,2021.1.4,Win32,60.04202942,,,,,,,,,
,,,,,,,,,,,,0,7,7,7,1,last,5,21,Female,R,Donders,2021-07-07_15h28.40.941,ImageRatingTask_S2,2021.1.4,Win32,60.04202942,,,,,,,,,
,,,,,,,,,,,,,,,,,,5,21,Female,R,Donders,2021-07-07_15h28.40.941,ImageRatingTask_S2,2021.1.4,Win32,60.04202942,0,66,66,41,1,DreamStudyImages_rs1000x750g/Water/Garbage dump 2.jpg,,,
,,5,18.099,5,0.4029,9,1.8424,1,1.3692,2,0.4203,0,0,0,0,1,main,5,21,Female,R,Donders,2021-07-07_15h28.40.941,ImageRatingTask_S2,2021.1.4,Win32,60.04202942,,,,,,,,,
,,,,,,,,,,,,0,1,1,1,1,second,5,21,Female,R,Donders,2021-07-07_15h28.40.941,ImageRatingTask_S2,2021.1.4,Win32,60.04202942,,,,,,,,,
,,,,,,,,,,,,0,2,2,2,1,third,5,21,Female,R,Donders,2021-07-07_15h28.40.941,ImageRatingTask_S2,2021.1.4,Win32,60.04202942,,,,,,,,,
,,,,,,,,,,,,0,3,3,3,1,fourth,5,21,Female,R,Donders,2021-07-07_15h28.40.941,ImageRatingTask_S2,2021.1.4,Win32,60.04202942,,,,,,,,,
,,,,,,,,,,,,0,4,4,4,1,fifth,5,21,Female,R,Donders,2021-07-07_15h28.40.941,ImageRatingTask_S2,2021.1.4,Win32,60.04202942,,,,,,,,,
,,,,,,,,,,,,0,5,5,5,1,sixth,5,21,Female,R,Donders,2021-07-07_15h28.40.941,ImageRatingTask_S2,2021.1.4,Win32,60.04202942,,,,,,,,,
,,,,,,,,,,,,0,6,6,6,1,seventh,5,21,Female,R,Donders,2021-07-07_15h28.40.941,ImageRatingTask_S2,2021.1.4,Win32,60.04202942,,,,,,,,,
,,,,,,,,,,,,0,7,7,7,1,last,5,21,Female,R,Donders,2021-07-07_15h28.40.941,ImageRatingTask_S2,2021.1.4,Win32,60.04202942,,,,,,,,,
,,,,,,,,,,,,,,,,,,5,21,Female,R,Donders,2021-07-07_15h28.40.941,ImageRatingTask_S2,2021.1.4,Win32,60.04202942,0,67,67,87,1,DreamStudyImages_rs1000x750g/Children/People_036_h.jpg,,,
,,5,5.3213,5,0.3219,8,1.0784,1,0.8933,2,0.1765,0,0,0,0,1,main,5,21,Female,R,Donders,2021-07-07_15h28.40.941,ImageRatingTask_S2,2021.1.4,Win32,60.04202942,,,,,,,,,
,,,,,,,,,,,,0,1,1,1,1,second,5,21,Female,R,Donders,2021-07-07_15h28.40.941,ImageRatingTask_S2,2021.1.4,Win32,60.04202942,,,,,,,,,
,,,,,,,,,,,,0,2,2,2,1,third,5,21,Female,R,Donders,2021-07-07_15h28.40.941,ImageRatingTask_S2,2021.1.4,Win32,60.04202942,,,,,,,,,
,,,,,,,,,,,,0,3,3,3,1,fourth,5,21,Female,R,Donders,2021-07-07_15h28.40.941,ImageRatingTask_S2,2021.1.4,Win32,60.04202942,,,,,,,,,
,,,,,,,,,,,,0,4,4,4,1,fifth,5,21,Female,R,Donders,2021-07-07_15h28.40.941,ImageRatingTask_S2,2021.1.4,Win32,60.04202942,,,,,,,,,
,,,,,,,,,,,,0,5,5,5,1,sixth,5,21,Female,R,Donders,2021-07-07_15h28.40.941,ImageRatingTask_S2,2021.1.4,Win32,60.04202942,,,,,,,,,
,,,,,,,,,,,,0,6,6,6,1,seventh,5,21,Female,R,Donders,2021-07-07_15h28.40.941,ImageRatingTask_S2,2021.1.4,Win32,60.04202942,,,,,,,,,
,,,,,,,,,,,,0,7,7,7,1,last,5,21,Female,R,Donders,2021-07-07_15h28.40.941,ImageRatingTask_S2,2021.1.4,Win32,60.04202942,,,,,,,,,
,,,,,,,,,,,,,,,,,,5,21,Female,R,Donders,2021-07-07_15h28.40.941,ImageRatingTask_S2,2021.1.4,Win32,60.04202942,0,68,68,54,1,DreamStudyImages_rs1000x750g/Children/Faces_015_h.jpg,,,
,,9,2.7754,7,1.5178,8,2.4605,1,1.1763,3,0.4211,0,0,0,0,1,main,5,21,Female,R,Donders,2021-07-07_15h28.40.941,ImageRatingTask_S2,2021.1.4,Win32,60.04202942,,,,,,,,,
,,,,,,,,,,,,0,1,1,1,1,second,5,21,Female,R,Donders,2021-07-07_15h28.40.941,ImageRatingTask_S2,2021.1.4,Win32,60.04202942,,,,,,,,,
,,,,,,,,,,,,0,2,2,2,1,third,5,21,Female,R,Donders,2021-07-07_15h28.40.941,ImageRatingTask_S2,2021.1.4,Win32,60.04202942,,,,,,,,,
,,,,,,,,,,,,0,3,3,3,1,fourth,5,21,Female,R,Donders,2021-07-07_15h28.40.941,ImageRatingTask_S2,2021.1.4,Win32,60.04202942,,,,,,,,,
,,,,,,,,,,,,0,4,4,4,1,fifth,5,21,Female,R,Donders,2021-07-07_15h28.40.941,ImageRatingTask_S2,2021.1.4,Win32,60.04202942,,,,,,,,,
,,,,,,,,,,,,0,5,5,5,1,sixth,5,21,Female,R,Donders,2021-07-07_15h28.40.941,ImageRatingTask_S2,2021.1.4,Win32,60.04202942,,,,,,,,,
,,,,,,,,,,,,0,6,6,6,1,seventh,5,21,Female,R,Donders,2021-07-07_15h28.40.941,ImageRatingTask_S2,2021.1.4,Win32,60.04202942,,,,,,,,,
,,,,,,,,,,,,0,7,7,7,1,last,5,21,Female,R,Donders,2021-07-07_15h28.40.941,ImageRatingTask_S2,2021.1.4,Win32,60.04202942,,,,,,,,,
,,,,,,,,,,,,,,,,,,5,21,Female,R,Donders,2021-07-07_15h28.40.941,ImageRatingTask_S2,2021.1.4,Win32,60.04202942,0,69,69,96,1,DreamStudyImages_rs1000x750g/Mammals/Animals_178_v.jpg,,,
,,5,2.5876,5,0.3244,8,1.4454,1,1.0008,2,1.1581,0,0,0,0,1,main,5,21,Female,R,Donders,2021-07-07_15h28.40.941,ImageRatingTask_S2,2021.1.4,Win32,60.04202942,,,,,,,,,
,,,,,,,,,,,,0,1,1,1,1,second,5,21,Female,R,Donders,2021-07-07_15h28.40.941,ImageRatingTask_S2,2021.1.4,Win32,60.04202942,,,,,,,,,
,,,,,,,,,,,,0,2,2,2,1,third,5,21,Female,R,Donders,2021-07-07_15h28.40.941,ImageRatingTask_S2,2021.1.4,Win32,60.04202942,,,,,,,,,
,,,,,,,,,,,,0,3,3,3,1,fourth,5,21,Female,R,Donders,2021-07-07_15h28.40.941,ImageRatingTask_S2,2021.1.4,Win32,60.04202942,,,,,,,,,
,,,,,,,,,,,,0,4,4,4,1,fifth,5,21,Female,R,Donders,2021-07-07_15h28.40.941,ImageRatingTask_S2,2021.1.4,Win32,60.04202942,,,,,,,,,
,,,,,,,,,,,,0,5,5,5,1,sixth,5,21,Female,R,Donders,2021-07-07_15h28.40.941,ImageRatingTask_S2,2021.1.4,Win32,60.04202942,,,,,,,,,
,,,,,,,,,,,,0,6,6,6,1,seventh,5,21,Female,R,Donders,2021-07-07_15h28.40.941,ImageRatingTask_S2,2021.1.4,Win32,60.04202942,,,,,,,,,
,,,,,,,,,,,,0,7,7,7,1,last,5,21,Female,R,Donders,2021-07-07_15h28.40.941,ImageRatingTask_S2,2021.1.4,Win32,60.04202942,,,,,,,,,
,,,,,,,,,,,,,,,,,,5,21,Female,R,Donders,2021-07-07_15h28.40.941,ImageRatingTask_S2,2021.1.4,Win32,60.04202942,0,70,70,127,1,DreamStudyImages_rs1000x750g/Children/Faces_042_h.jpg,,,
,,4,3.4144,5,1.3155,7,2.0785,1,3.0263,8,0.2755,0,0,0,0,1,main,5,21,Female,R,Donders,2021-07-07_15h28.40.941,ImageRatingTask_S2,2021.1.4,Win32,60.04202942,,,,,,,,,
,,,,,,,,,,,,0,1,1,1,1,second,5,21,Female,R,Donders,2021-07-07_15h28.40.941,ImageRatingTask_S2,2021.1.4,Win32,60.04202942,,,,,,,,,
,,,,,,,,,,,,0,2,2,2,1,third,5,21,Female,R,Donders,2021-07-07_15h28.40.941,ImageRatingTask_S2,2021.1.4,Win32,60.04202942,,,,,,,,,
,,,,,,,,,,,,0,3,3,3,1,fourth,5,21,Female,R,Donders,2021-07-07_15h28.40.941,ImageRatingTask_S2,2021.1.4,Win32,60.04202942,,,,,,,,,
,,,,,,,,,,,,0,4,4,4,1,fifth,5,21,Female,R,Donders,2021-07-07_15h28.40.941,ImageRatingTask_S2,2021.1.4,Win32,60.04202942,,,,,,,,,
,,,,,,,,,,,,0,5,5,5,1,sixth,5,21,Female,R,Donders,2021-07-07_15h28.40.941,ImageRatingTask_S2,2021.1.4,Win32,60.04202942,,,,,,,,,
,,,,,,,,,,,,0,6,6,6,1,seventh,5,21,Female,R,Donders,2021-07-07_15h28.40.941,ImageRatingTask_S2,2021.1.4,Win32,60.04202942,,,,,,,,,
,,,,,,,,,,,,0,7,7,7,1,last,5,21,Female,R,Donders,2021-07-07_15h28.40.941,ImageRatingTask_S2,2021.1.4,Win32,60.04202942,,,,,,,,,
,,,,,,,,,,,,,,,,,,5,21,Female,R,Donders,2021-07-07_15h28.40.941,ImageRatingTask_S2,2021.1.4,Win32,60.04202942,0,71,71,18,1,DreamStudyImages_rs1000x750g/Water/IAPS2446_mudpuddle.jpg,,,
,,2,18.0647,9,8.5711,9,2.1222,1,9.3188,3,48.6765,0,0,0,0,1,main,5,21,Female,R,Donders,2021-07-07_15h28.40.941,ImageRatingTask_S2,2021.1.4,Win32,60.04202942,,,,,,,,,
,,,,,,,,,,,,0,1,1,1,1,second,5,21,Female,R,Donders,2021-07-07_15h28.40.941,ImageRatingTask_S2,2021.1.4,Win32,60.04202942,,,,,,,,,
,,,,,,,,,,,,0,2,2,2,1,third,5,21,Female,R,Donders,2021-07-07_15h28.40.941,ImageRatingTask_S2,2021.1.4,Win32,60.04202942,,,,,,,,,
,,,,,,,,,,,,0,3,3,3,1,fourth,5,21,Female,R,Donders,2021-07-07_15h28.40.941,ImageRatingTask_S2,2021.1.4,Win32,60.04202942,,,,,,,,,
,,,,,,,,,,,,0,4,4,4,1,fifth,5,21,Female,R,Donders,2021-07-07_15h28.40.941,ImageRatingTask_S2,2021.1.4,Win32,60.04202942,,,,,,,,,
,,,,,,,,,,,,0,5,5,5,1,sixth,5,21,Female,R,Donders,2021-07-07_15h28.40.941,ImageRatingTask_S2,2021.1.4,Win32,60.04202942,,,,,,,,,
,,,,,,,,,,,,0,6,6,6,1,seventh,5,21,Female,R,Donders,2021-07-07_15h28.40.941,ImageRatingTask_S2,2021.1.4,Win32,60.04202942,,,,,,,,,
,,,,,,,,,,,,0,7,7,7,1,last,5,21,Female,R,Donders,2021-07-07_15h28.40.941,ImageRatingTask_S2,2021.1.4,Win32,60.04202942,,,,,,,,,
,,,,,,,,,,,,,,,,,,5,21,Female,R,Donders,2021-07-07_15h28.40.941,ImageRatingTask_S2,2021.1.4,Win32,60.04202942,0,72,72,135,1,DreamStudyImages_rs1000x750g/Mammals/Animals_075_h.jpg,,,
,,6,4.7119,5,1.2095,7,2.3952,1,1.2467,3,1.0878,0,0,0,0,1,main,5,21,Female,R,Donders,2021-07-07_15h28.40.941,ImageRatingTask_S2,2021.1.4,Win32,60.04202942,,,,,,,,,
,,,,,,,,,,,,0,1,1,1,1,second,5,21,Female,R,Donders,2021-07-07_15h28.40.941,ImageRatingTask_S2,2021.1.4,Win32,60.04202942,,,,,,,,,
,,,,,,,,,,,,0,2,2,2,1,third,5,21,Female,R,Donders,2021-07-07_15h28.40.941,ImageRatingTask_S2,2021.1.4,Win32,60.04202942,,,,,,,,,
,,,,,,,,,,,,0,3,3,3,1,fourth,5,21,Female,R,Donders,2021-07-07_15h28.40.941,ImageRatingTask_S2,2021.1.4,Win32,60.04202942,,,,,,,,,
,,,,,,,,,,,,0,4,4,4,1,fifth,5,21,Female,R,Donders,2021-07-07_15h28.40.941,ImageRatingTask_S2,2021.1.4,Win32,60.04202942,,,,,,,,,
,,,,,,,,,,,,0,5,5,5,1,sixth,5,21,Female,R,Donders,2021-07-07_15h28.40.941,ImageRatingTask_S2,2021.1.4,Win32,60.04202942,,,,,,,,,
,,,,,,,,,,,,0,6,6,6,1,seventh,5,21,Female,R,Donders,2021-07-07_15h28.40.941,ImageRatingTask_S2,2021.1.4,Win32,60.04202942,,,,,,,,,
,,,,,,,,,,,,0,7,7,7,1,last,5,21,Female,R,Donders,2021-07-07_15h28.40.941,ImageRatingTask_S2,2021.1.4,Win32,60.04202942,,,,,,,,,
,,,,,,,,,,,,,,,,,,5,21,Female,R,Donders,2021-07-07_15h28.40.941,ImageRatingTask_S2,2021.1.4,Win32,60.04202942,0,73,73,94,1,DreamStudyImages_rs1000x750g/Mammals/Animals_164_h.jpg,,,
,,2,3.0032,8,1.8457,7,1.459,1,1.3261,2,0.1526,0,0,0,0,1,main,5,21,Female,R,Donders,2021-07-07_15h28.40.941,ImageRatingTask_S2,2021.1.4,Win32,60.04202942,,,,,,,,,
,,,,,,,,,,,,0,1,1,1,1,second,5,21,Female,R,Donders,2021-07-07_15h28.40.941,ImageRatingTask_S2,2021.1.4,Win32,60.04202942,,,,,,,,,
,,,,,,,,,,,,0,2,2,2,1,third,5,21,Female,R,Donders,2021-07-07_15h28.40.941,ImageRatingTask_S2,2021.1.4,Win32,60.04202942,,,,,,,,,
,,,,,,,,,,,,0,3,3,3,1,fourth,5,21,Female,R,Donders,2021-07-07_15h28.40.941,ImageRatingTask_S2,2021.1.4,Win32,60.04202942,,,,,,,,,
,,,,,,,,,,,,0,4,4,4,1,fifth,5,21,Female,R,Donders,2021-07-07_15h28.40.941,ImageRatingTask_S2,2021.1.4,Win32,60.04202942,,,,,,,,,
,,,,,,,,,,,,0,5,5,5,1,sixth,5,21,Female,R,Donders,2021-07-07_15h28.40.941,ImageRatingTask_S2,2021.1.4,Win32,60.04202942,,,,,,,,,
,,,,,,,,,,,,0,6,6,6,1,seventh,5,21,Female,R,Donders,2021-07-07_15h28.40.941,ImageRatingTask_S2,2021.1.4,Win32,60.04202942,,,,,,,,,
,,,,,,,,,,,,0,7,7,7,1,last,5,21,Female,R,Donders,2021-07-07_15h28.40.941,ImageRatingTask_S2,2021.1.4,Win32,60.04202942,,,,,,,,,
,,,,,,,,,,,,,,,,,,5,21,Female,R,Donders,2021-07-07_15h28.40.941,ImageRatingTask_S2,2021.1.4,Win32,60.04202942,0,74,74,20,1,DreamStudyImages_rs1000x750g/Children/IAPS2810_boy11.jpg,,,
,,5,2.0691,5,0.2763,7,1.3604,1,0.9671,7,0.8432,0,0,0,0,1,main,5,21,Female,R,Donders,2021-07-07_15h28.40.941,ImageRatingTask_S2,2021.1.4,Win32,60.04202942,,,,,,,,,
,,,,,,,,,,,,0,1,1,1,1,second,5,21,Female,R,Donders,2021-07-07_15h28.40.941,ImageRatingTask_S2,2021.1.4,Win32,60.04202942,,,,,,,,,
,,,,,,,,,,,,0,2,2,2,1,third,5,21,Female,R,Donders,2021-07-07_15h28.40.941,ImageRatingTask_S2,2021.1.4,Win32,60.04202942,,,,,,,,,
,,,,,,,,,,,,0,3,3,3,1,fourth,5,21,Female,R,Donders,2021-07-07_15h28.40.941,ImageRatingTask_S2,2021.1.4,Win32,60.04202942,,,,,,,,,
,,,,,,,,,,,,0,4,4,4,1,fifth,5,21,Female,R,Donders,2021-07-07_15h28.40.941,ImageRatingTask_S2,2021.1.4,Win32,60.04202942,,,,,,,,,
,,,,,,,,,,,,0,5,5,5,1,sixth,5,21,Female,R,Donders,2021-07-07_15h28.40.941,ImageRatingTask_S2,2021.1.4,Win32,60.04202942,,,,,,,,,
,,,,,,,,,,,,0,6,6,6,1,seventh,5,21,Female,R,Donders,2021-07-07_15h28.40.941,ImageRatingTask_S2,2021.1.4,Win32,60.04202942,,,,,,,,,
,,,,,,,,,,,,0,7,7,7,1,last,5,21,Female,R,Donders,2021-07-07_15h28.40.941,ImageRatingTask_S2,2021.1.4,Win32,60.04202942,,,,,,,,,
,,,,,,,,,,,,,,,,,,5,21,Female,R,Donders,2021-07-07_15h28.40.941,ImageRatingTask_S2,2021.1.4,Win32,60.04202942,0,75,75,55,1,DreamStudyImages_rs1000x750g/Vehicles/Car race 4.jpg,,,
,,5,4.8018,5,0.1027,7,2.1111,1,1.0711,2,0.0398,0,0,0,0,1,main,5,21,Female,R,Donders,2021-07-07_15h28.40.941,ImageRatingTask_S2,2021.1.4,Win32,60.04202942,,,,,,,,,
,,,,,,,,,,,,0,1,1,1,1,second,5,21,Female,R,Donders,2021-07-07_15h28.40.941,ImageRatingTask_S2,2021.1.4,Win32,60.04202942,,,,,,,,,
,,,,,,,,,,,,0,2,2,2,1,third,5,21,Female,R,Donders,2021-07-07_15h28.40.941,ImageRatingTask_S2,2021.1.4,Win32,60.04202942,,,,,,,,,
,,,,,,,,,,,,0,3,3,3,1,fourth,5,21,Female,R,Donders,2021-07-07_15h28.40.941,ImageRatingTask_S2,2021.1.4,Win32,60.04202942,,,,,,,,,
,,,,,,,,,,,,0,4,4,4,1,fifth,5,21,Female,R,Donders,2021-07-07_15h28.40.941,ImageRatingTask_S2,2021.1.4,Win32,60.04202942,,,,,,,,,
,,,,,,,,,,,,0,5,5,5,1,sixth,5,21,Female,R,Donders,2021-07-07_15h28.40.941,ImageRatingTask_S2,2021.1.4,Win32,60.04202942,,,,,,,,,
,,,,,,,,,,,,0,6,6,6,1,seventh,5,21,Female,R,Donders,2021-07-07_15h28.40.941,ImageRatingTask_S2,2021.1.4,Win32,60.04202942,,,,,,,,,
,,,,,,,,,,,,0,7,7,7,1,last,5,21,Female,R,Donders,2021-07-07_15h28.40.941,ImageRatingTask_S2,2021.1.4,Win32,60.04202942,,,,,,,,,
,,,,,,,,,,,,,,,,,,5,21,Female,R,Donders,2021-07-07_15h28.40.941,ImageRatingTask_S2,2021.1.4,Win32,60.04202942,0,76,76,45,1,DreamStudyImages_rs1000x750g/Children/Faces_005_h.jpg,,,
,,5,2.1214,5,0.0877,8,1.5639,1,1.4763,3,1.09,0,0,0,0,1,main,5,21,Female,R,Donders,2021-07-07_15h28.40.941,ImageRatingTask_S2,2021.1.4,Win32,60.04202942,,,,,,,,,
,,,,,,,,,,,,0,1,1,1,1,second,5,21,Female,R,Donders,2021-07-07_15h28.40.941,ImageRatingTask_S2,2021.1.4,Win32,60.04202942,,,,,,,,,
,,,,,,,,,,,,0,2,2,2,1,third,5,21,Female,R,Donders,2021-07-07_15h28.40.941,ImageRatingTask_S2,2021.1.4,Win32,60.04202942,,,,,,,,,
,,,,,,,,,,,,0,3,3,3,1,fourth,5,21,Female,R,Donders,2021-07-07_15h28.40.941,ImageRatingTask_S2,2021.1.4,Win32,60.04202942,,,,,,,,,
,,,,,,,,,,,,0,4,4,4,1,fifth,5,21,Female,R,Donders,2021-07-07_15h28.40.941,ImageRatingTask_S2,2021.1.4,Win32,60.04202942,,,,,,,,,
,,,,,,,,,,,,0,5,5,5,1,sixth,5,21,Female,R,Donders,2021-07-07_15h28.40.941,ImageRatingTask_S2,2021.1.4,Win32,60.04202942,,,,,,,,,
,,,,,,,,,,,,0,6,6,6,1,seventh,5,21,Female,R,Donders,2021-07-07_15h28.40.941,ImageRatingTask_S2,2021.1.4,Win32,60.04202942,,,,,,,,,
,,,,,,,,,,,,0,7,7,7,1,last,5,21,Female,R,Donders,2021-07-07_15h28.40.941,ImageRatingTask_S2,2021.1.4,Win32,60.04202942,,,,,,,,,
,,,,,,,,,,,,,,,,,,5,21,Female,R,Donders,2021-07-07_15h28.40.941,ImageRatingTask_S2,2021.1.4,Win32,60.04202942,0,77,77,51,1,DreamStudyImages_rs1000x750g/Mammals/1675.jpg,,,
,,5,4.0511,5,0.0683,8,2.6261,1,0.9791,2,0.0385,0,0,0,0,1,main,5,21,Female,R,Donders,2021-07-07_15h28.40.941,ImageRatingTask_S2,2021.1.4,Win32,60.04202942,,,,,,,,,
,,,,,,,,,,,,0,1,1,1,1,second,5,21,Female,R,Donders,2021-07-07_15h28.40.941,ImageRatingTask_S2,2021.1.4,Win32,60.04202942,,,,,,,,,
,,,,,,,,,,,,0,2,2,2,1,third,5,21,Female,R,Donders,2021-07-07_15h28.40.941,ImageRatingTask_S2,2021.1.4,Win32,60.04202942,,,,,,,,,
,,,,,,,,,,,,0,3,3,3,1,fourth,5,21,Female,R,Donders,2021-07-07_15h28.40.941,ImageRatingTask_S2,2021.1.4,Win32,60.04202942,,,,,,,,,
,,,,,,,,,,,,0,4,4,4,1,fifth,5,21,Female,R,Donders,2021-07-07_15h28.40.941,ImageRatingTask_S2,2021.1.4,Win32,60.04202942,,,,,,,,,
,,,,,,,,,,,,0,5,5,5,1,sixth,5,21,Female,R,Donders,2021-07-07_15h28.40.941,ImageRatingTask_S2,2021.1.4,Win32,60.04202942,,,,,,,,,
,,,,,,,,,,,,0,6,6,6,1,seventh,5,21,Female,R,Donders,2021-07-07_15h28.40.941,ImageRatingTask_S2,2021.1.4,Win32,60.04202942,,,,,,,,,
,,,,,,,,,,,,0,7,7,7,1,last,5,21,Female,R,Donders,2021-07-07_15h28.40.941,ImageRatingTask_S2,2021.1.4,Win32,60.04202942,,,,,,,,,
,,,,,,,,,,,,,,,,,,5,21,Female,R,Donders,2021-07-07_15h28.40.941,ImageRatingTask_S2,2021.1.4,Win32,60.04202942,0,78,78,10,1,DreamStudyImages_rs1000x750g/Children/Faces_075_v.jpg,,,
,,7,1.8993,5,2.2931,8,1.7151,1,1.5145,5,0.3576,0,0,0,0,1,main,5,21,Female,R,Donders,2021-07-07_15h28.40.941,ImageRatingTask_S2,2021.1.4,Win32,60.04202942,,,,,,,,,
,,,,,,,,,,,,0,1,1,1,1,second,5,21,Female,R,Donders,2021-07-07_15h28.40.941,ImageRatingTask_S2,2021.1.4,Win32,60.04202942,,,,,,,,,
,,,,,,,,,,,,0,2,2,2,1,third,5,21,Female,R,Donders,2021-07-07_15h28.40.941,ImageRatingTask_S2,2021.1.4,Win32,60.04202942,,,,,,,,,
,,,,,,,,,,,,0,3,3,3,1,fourth,5,21,Female,R,Donders,2021-07-07_15h28.40.941,ImageRatingTask_S2,2021.1.4,Win32,60.04202942,,,,,,,,,
,,,,,,,,,,,,0,4,4,4,1,fifth,5,21,Female,R,Donders,2021-07-07_15h28.40.941,ImageRatingTask_S2,2021.1.4,Win32,60.04202942,,,,,,,,,
,,,,,,,,,,,,0,5,5,5,1,sixth,5,21,Female,R,Donders,2021-07-07_15h28.40.941,ImageRatingTask_S2,2021.1.4,Win32,60.04202942,,,,,,,,,
