slider_pre.response,slider_pre.rt,key_val.keys,key_val.rt,key_aro.keys,key_aro.rt,key_qual.keys,key_qual.rt,key_ncat.keys,key_ncat.rt,key_cats.keys,key_cats.rt,ncat_order.thisRepN,ncat_order.thisTrialN,ncat_order.thisN,ncat_order.thisIndex,ncat_order.ran,cond_cat,participant,age,gender,handedness (L/R),site (IMT/Donders),date,expName,psychopyVersion,OS,frameRate,img_trials.thisRepN,img_trials.thisTrialN,img_trials.thisN,img_trials.thisIndex,img_trials.ran,filename,slider_post.response,slider_post.rt,key_fb.keys,key_fb.rt,fb.thisRepN,fb.thisTrialN,fb.thisN,fb.thisIndex,fb.ran,fb_qst,textbox_openfb.text
7,3.5951,8,48.7623,4,1.9026,7,1.945,1,1.3285,3,0.0076,0,0,0,0,1,main,5,21,Female,R,Donders,2021-07-11_13h56.54.761,ImageRatingTask_S5,2021.1.4,Win32,59.95922773,,,,,,,,,,,,,,,,,
,,,,,,,,,,,,0,1,1,1,1,second,5,21,Female,R,Donders,2021-07-11_13h56.54.761,ImageRatingTask_S5,2021.1.4,Win32,59.95922773,,,,,,,,,,,,,,,,,
,,,,,,,,,,,,0,2,2,2,1,third,5,21,Female,R,Donders,2021-07-11_13h56.54.761,ImageRatingTask_S5,2021.1.4,Win32,59.95922773,,,,,,,,,,,,,,,,,
,,,,,,,,,,,,0,3,3,3,1,fourth,5,21,Female,R,Donders,2021-07-11_13h56.54.761,ImageRatingTask_S5,2021.1.4,Win32,59.95922773,,,,,,,,,,,,,,,,,
,,,,,,,,,,,,0,4,4,4,1,fifth,5,21,Female,R,Donders,2021-07-11_13h56.54.761,ImageRatingTask_S5,2021.1.4,Win32,59.95922773,,,,,,,,,,,,,,,,,
,,,,,,,,,,,,0,5,5,5,1,sixth,5,21,Female,R,Donders,2021-07-11_13h56.54.761,ImageRatingTask_S5,2021.1.4,Win32,59.95922773,,,,,,,,,,,,,,,,,
,,,,,,,,,,,,0,6,6,6,1,seventh,5,21,Female,R,Donders,2021-07-11_13h56.54.761,ImageRatingTask_S5,2021.1.4,Win32,59.95922773,,,,,,,,,,,,,,,,,
,,,,,,,,,,,,0,7,7,7,1,last,5,21,Female,R,Donders,2021-07-11_13h56.54.761,ImageRatingTask_S5,2021.1.4,Win32,59.95922773,,,,,,,,,,,,,,,,,
,,,,,,,,,,,,,,,,,,5,21,Female,R,Donders,2021-07-11_13h56.54.761,ImageRatingTask_S5,2021.1.4,Win32,59.95922773,0,0,0,75,1,DreamStudyImages_rs1000x750g/Mammals/Dog 14.jpg,,,,,,,,,,,
,,5,4.5633,5,0.0486,5,0.401,1,2.306,6,0.8886,0,0,0,0,1,main,5,21,Female,R,Donders,2021-07-11_13h56.54.761,ImageRatingTask_S5,2021.1.4,Win32,59.95922773,,,,,,,,,,,,,,,,,
,,,,,,,,,,,,0,1,1,1,1,second,5,21,Female,R,Donders,2021-07-11_13h56.54.761,ImageRatingTask_S5,2021.1.4,Win32,59.95922773,,,,,,,,,,,,,,,,,
,,,,,,,,,,,,0,2,2,2,1,third,5,21,Female,R,Donders,2021-07-11_13h56.54.761,ImageRatingTask_S5,2021.1.4,Win32,59.95922773,,,,,,,,,,,,,,,,,
,,,,,,,,,,,,0,3,3,3,1,fourth,5,21,Female,R,Donders,2021-07-11_13h56.54.761,ImageRatingTask_S5,2021.1.4,Win32,59.95922773,,,,,,,,,,,,,,,,,
,,,,,,,,,,,,0,4,4,4,1,fifth,5,21,Female,R,Donders,2021-07-11_13h56.54.761,ImageRatingTask_S5,2021.1.4,Win32,59.95922773,,,,,,,,,,,,,,,,,
,,,,,,,,,,,,0,5,5,5,1,sixth,5,21,Female,R,Donders,2021-07-11_13h56.54.761,ImageRatingTask_S5,2021.1.4,Win32,59.95922773,,,,,,,,,,,,,,,,,
,,,,,,,,,,,,0,6,6,6,1,seventh,5,21,Female,R,Donders,2021-07-11_13h56.54.761,ImageRatingTask_S5,2021.1.4,Win32,59.95922773,,,,,,,,,,,,,,,,,
,,,,,,,,,,,,0,7,7,7,1,last,5,21,Female,R,Donders,2021-07-11_13h56.54.761,ImageRatingTask_S5,2021.1.4,Win32,59.95922773,,,,,,,,,,,,,,,,,
,,,,,,,,,,,,,,,,,,5,21,Female,R,Donders,2021-07-11_13h56.54.761,ImageRatingTask_S5,2021.1.4,Win32,59.95922773,0,1,1,129,1,DreamStudyImages_rs1000x750g/Houses/Landscapes_001_h.jpg,,,,,,,,,,,
,,7,1.9968,5,1.4902,8,1.7681,1,1.2492,3,0.0813,0,0,0,0,1,main,5,21,Female,R,Donders,2021-07-11_13h56.54.761,ImageRatingTask_S5,2021.1.4,Win32,59.95922773,,,,,,,,,,,,,,,,,
,,,,,,,,,,,,0,1,1,1,1,second,5,21,Female,R,Donders,2021-07-11_13h56.54.761,ImageRatingTask_S5,2021.1.4,Win32,59.95922773,,,,,,,,,,,,,,,,,
,,,,,,,,,,,,0,2,2,2,1,third,5,21,Female,R,Donders,2021-07-11_13h56.54.761,ImageRatingTask_S5,2021.1.4,Win32,59.95922773,,,,,,,,,,,,,,,,,
,,,,,,,,,,,,0,3,3,3,1,fourth,5,21,Female,R,Donders,2021-07-11_13h56.54.761,ImageRatingTask_S5,2021.1.4,Win32,59.95922773,,,,,,,,,,,,,,,,,
,,,,,,,,,,,,0,4,4,4,1,fifth,5,21,Female,R,Donders,2021-07-11_13h56.54.761,ImageRatingTask_S5,2021.1.4,Win32,59.95922773,,,,,,,,,,,,,,,,,
,,,,,,,,,,,,0,5,5,5,1,sixth,5,21,Female,R,Donders,2021-07-11_13h56.54.761,ImageRatingTask_S5,2021.1.4,Win32,59.95922773,,,,,,,,,,,,,,,,,
,,,,,,,,,,,,0,6,6,6,1,seventh,5,21,Female,R,Donders,2021-07-11_13h56.54.761,ImageRatingTask_S5,2021.1.4,Win32,59.95922773,,,,,,,,,,,,,,,,,
,,,,,,,,,,,,0,7,7,7,1,last,5,21,Female,R,Donders,2021-07-11_13h56.54.761,ImageRatingTask_S5,2021.1.4,Win32,59.95922773,,,,,,,,,,,,,,,,,
,,,,,,,,,,,,,,,,,,5,21,Female,R,Donders,2021-07-11_13h56.54.761,ImageRatingTask_S5,2021.1.4,Win32,59.95922773,0,2,2,77,1,DreamStudyImages_rs1000x750g/Mammals/Animals_197_h.jpg,,,,,,,,,,,
,,5,5.1114,5,0.3119,8,1.3707,1,1.21,6,0.5403,0,0,0,0,1,main,5,21,Female,R,Donders,2021-07-11_13h56.54.761,ImageRatingTask_S5,2021.1.4,Win32,59.95922773,,,,,,,,,,,,,,,,,
,,,,,,,,,,,,0,1,1,1,1,second,5,21,Female,R,Donders,2021-07-11_13h56.54.761,ImageRatingTask_S5,2021.1.4,Win32,59.95922773,,,,,,,,,,,,,,,,,
,,,,,,,,,,,,0,2,2,2,1,third,5,21,Female,R,Donders,2021-07-11_13h56.54.761,ImageRatingTask_S5,2021.1.4,Win32,59.95922773,,,,,,,,,,,,,,,,,
,,,,,,,,,,,,0,3,3,3,1,fourth,5,21,Female,R,Donders,2021-07-11_13h56.54.761,ImageRatingTask_S5,2021.1.4,Win32,59.95922773,,,,,,,,,,,,,,,,,
,,,,,,,,,,,,0,4,4,4,1,fifth,5,21,Female,R,Donders,2021-07-11_13h56.54.761,ImageRatingTask_S5,2021.1.4,Win32,59.95922773,,,,,,,,,,,,,,,,,
,,,,,,,,,,,,0,5,5,5,1,sixth,5,21,Female,R,Donders,2021-07-11_13h56.54.761,ImageRatingTask_S5,2021.1.4,Win32,59.95922773,,,,,,,,,,,,,,,,,
,,,,,,,,,,,,0,6,6,6,1,seventh,5,21,Female,R,Donders,2021-07-11_13h56.54.761,ImageRatingTask_S5,2021.1.4,Win32,59.95922773,,,,,,,,,,,,,,,,,
,,,,,,,,,,,,0,7,7,7,1,last,5,21,Female,R,Donders,2021-07-11_13h56.54.761,ImageRatingTask_S5,2021.1.4,Win32,59.95922773,,,,,,,,,,,,,,,,,
,,,,,,,,,,,,,,,,,,5,21,Female,R,Donders,2021-07-11_13h56.54.761,ImageRatingTask_S5,2021.1.4,Win32,59.95922773,0,3,3,101,1,DreamStudyImages_rs1000x750g/Water/lakepontoon2.jpg,,,,,,,,,,,
,,5,1.1122,5,0.0816,7,6.1016,1,0.7204,2,0.2034,0,0,0,0,1,main,5,21,Female,R,Donders,2021-07-11_13h56.54.761,ImageRatingTask_S5,2021.1.4,Win32,59.95922773,,,,,,,,,,,,,,,,,
,,,,,,,,,,,,0,1,1,1,1,second,5,21,Female,R,Donders,2021-07-11_13h56.54.761,ImageRatingTask_S5,2021.1.4,Win32,59.95922773,,,,,,,,,,,,,,,,,
,,,,,,,,,,,,0,2,2,2,1,third,5,21,Female,R,Donders,2021-07-11_13h56.54.761,ImageRatingTask_S5,2021.1.4,Win32,59.95922773,,,,,,,,,,,,,,,,,
,,,,,,,,,,,,0,3,3,3,1,fourth,5,21,Female,R,Donders,2021-07-11_13h56.54.761,ImageRatingTask_S5,2021.1.4,Win32,59.95922773,,,,,,,,,,,,,,,,,
,,,,,,,,,,,,0,4,4,4,1,fifth,5,21,Female,R,Donders,2021-07-11_13h56.54.761,ImageRatingTask_S5,2021.1.4,Win32,59.95922773,,,,,,,,,,,,,,,,,
,,,,,,,,,,,,0,5,5,5,1,sixth,5,21,Female,R,Donders,2021-07-11_13h56.54.761,ImageRatingTask_S5,2021.1.4,Win32,59.95922773,,,,,,,,,,,,,,,,,
,,,,,,,,,,,,0,6,6,6,1,seventh,5,21,Female,R,Donders,2021-07-11_13h56.54.761,ImageRatingTask_S5,2021.1.4,Win32,59.95922773,,,,,,,,,,,,,,,,,
,,,,,,,,,,,,0,7,7,7,1,last,5,21,Female,R,Donders,2021-07-11_13h56.54.761,ImageRatingTask_S5,2021.1.4,Win32,59.95922773,,,,,,,,,,,,,,,,,
,,,,,,,,,,,,,,,,,,5,21,Female,R,Donders,2021-07-11_13h56.54.761,ImageRatingTask_S5,2021.1.4,Win32,59.95922773,0,4,4,156,1,DreamStudyImages_rs1000x750g/Children/IAPS2050_baby3.jpg,,,,,,,,,,,
,,5,2.2382,5,0.083,7,2.1746,1,1.2333,5,0.2624,0,0,0,0,1,main,5,21,Female,R,Donders,2021-07-11_13h56.54.761,ImageRatingTask_S5,2021.1.4,Win32,59.95922773,,,,,,,,,,,,,,,,,
,,,,,,,,,,,,0,1,1,1,1,second,5,21,Female,R,Donders,2021-07-11_13h56.54.761,ImageRatingTask_S5,2021.1.4,Win32,59.95922773,,,,,,,,,,,,,,,,,
,,,,,,,,,,,,0,2,2,2,1,third,5,21,Female,R,Donders,2021-07-11_13h56.54.761,ImageRatingTask_S5,2021.1.4,Win32,59.95922773,,,,,,,,,,,,,,,,,
,,,,,,,,,,,,0,3,3,3,1,fourth,5,21,Female,R,Donders,2021-07-11_13h56.54.761,ImageRatingTask_S5,2021.1.4,Win32,59.95922773,,,,,,,,,,,,,,,,,
,,,,,,,,,,,,0,4,4,4,1,fifth,5,21,Female,R,Donders,2021-07-11_13h56.54.761,ImageRatingTask_S5,2021.1.4,Win32,59.95922773,,,,,,,,,,,,,,,,,
,,,,,,,,,,,,0,5,5,5,1,sixth,5,21,Female,R,Donders,2021-07-11_13h56.54.761,ImageRatingTask_S5,2021.1.4,Win32,59.95922773,,,,,,,,,,,,,,,,,
,,,,,,,,,,,,0,6,6,6,1,seventh,5,21,Female,R,Donders,2021-07-11_13h56.54.761,ImageRatingTask_S5,2021.1.4,Win32,59.95922773,,,,,,,,,,,,,,,,,
,,,,,,,,,,,,0,7,7,7,1,last,5,21,Female,R,Donders,2021-07-11_13h56.54.761,ImageRatingTask_S5,2021.1.4,Win32,59.95922773,,,,,,,,,,,,,,,,,
,,,,,,,,,,,,,,,,,,5,21,Female,R,Donders,2021-07-11_13h56.54.761,ImageRatingTask_S5,2021.1.4,Win32,59.95922773,0,5,5,12,1,DreamStudyImages_rs1000x750g/Food/IAPS7284_apricots.jpg,,,,,,,,,,,
,,7,2.1738,3,1.1373,7,1.8509,1,1.0025,3,0.2931,0,0,0,0,1,main,5,21,Female,R,Donders,2021-07-11_13h56.54.761,ImageRatingTask_S5,2021.1.4,Win32,59.95922773,,,,,,,,,,,,,,,,,
,,,,,,,,,,,,0,1,1,1,1,second,5,21,Female,R,Donders,2021-07-11_13h56.54.761,ImageRatingTask_S5,2021.1.4,Win32,59.95922773,,,,,,,,,,,,,,,,,
,,,,,,,,,,,,0,2,2,2,1,third,5,21,Female,R,Donders,2021-07-11_13h56.54.761,ImageRatingTask_S5,2021.1.4,Win32,59.95922773,,,,,,,,,,,,,,,,,
,,,,,,,,,,,,0,3,3,3,1,fourth,5,21,Female,R,Donders,2021-07-11_13h56.54.761,ImageRatingTask_S5,2021.1.4,Win32,59.95922773,,,,,,,,,,,,,,,,,
,,,,,,,,,,,,0,4,4,4,1,fifth,5,21,Female,R,Donders,2021-07-11_13h56.54.761,ImageRatingTask_S5,2021.1.4,Win32,59.95922773,,,,,,,,,,,,,,,,,
,,,,,,,,,,,,0,5,5,5,1,sixth,5,21,Female,R,Donders,2021-07-11_13h56.54.761,ImageRatingTask_S5,2021.1.4,Win32,59.95922773,,,,,,,,,,,,,,,,,
,,,,,,,,,,,,0,6,6,6,1,seventh,5,21,Female,R,Donders,2021-07-11_13h56.54.761,ImageRatingTask_S5,2021.1.4,Win32,59.95922773,,,,,,,,,,,,,,,,,
,,,,,,,,,,,,0,7,7,7,1,last,5,21,Female,R,Donders,2021-07-11_13h56.54.761,ImageRatingTask_S5,2021.1.4,Win32,59.95922773,,,,,,,,,,,,,,,,,
,,,,,,,,,,,,,,,,,,5,21,Female,R,Donders,2021-07-11_13h56.54.761,ImageRatingTask_S5,2021.1.4,Win32,59.95922773,0,6,6,56,1,DreamStudyImages_rs1000x750g/Mammals/IAPS1463_kittens.jpg,,,,,,,,,,,
,,5,2.5902,5,0.3623,7,2.3147,1,1.052,2,0.1135,0,0,0,0,1,main,5,21,Female,R,Donders,2021-07-11_13h56.54.761,ImageRatingTask_S5,2021.1.4,Win32,59.95922773,,,,,,,,,,,,,,,,,
,,,,,,,,,,,,0,1,1,1,1,second,5,21,Female,R,Donders,2021-07-11_13h56.54.761,ImageRatingTask_S5,2021.1.4,Win32,59.95922773,,,,,,,,,,,,,,,,,
,,,,,,,,,,,,0,2,2,2,1,third,5,21,Female,R,Donders,2021-07-11_13h56.54.761,ImageRatingTask_S5,2021.1.4,Win32,59.95922773,,,,,,,,,,,,,,,,,
,,,,,,,,,,,,0,3,3,3,1,fourth,5,21,Female,R,Donders,2021-07-11_13h56.54.761,ImageRatingTask_S5,2021.1.4,Win32,59.95922773,,,,,,,,,,,,,,,,,
,,,,,,,,,,,,0,4,4,4,1,fifth,5,21,Female,R,Donders,2021-07-11_13h56.54.761,ImageRatingTask_S5,2021.1.4,Win32,59.95922773,,,,,,,,,,,,,,,,,
,,,,,,,,,,,,0,5,5,5,1,sixth,5,21,Female,R,Donders,2021-07-11_13h56.54.761,ImageRatingTask_S5,2021.1.4,Win32,59.95922773,,,,,,,,,,,,,,,,,
,,,,,,,,,,,,0,6,6,6,1,seventh,5,21,Female,R,Donders,2021-07-11_13h56.54.761,ImageRatingTask_S5,2021.1.4,Win32,59.95922773,,,,,,,,,,,,,,,,,
,,,,,,,,,,,,0,7,7,7,1,last,5,21,Female,R,Donders,2021-07-11_13h56.54.761,ImageRatingTask_S5,2021.1.4,Win32,59.95922773,,,,,,,,,,,,,,,,,
,,,,,,,,,,,,,,,,,,5,21,Female,R,Donders,2021-07-11_13h56.54.761,ImageRatingTask_S5,2021.1.4,Win32,59.95922773,0,7,7,93,1,DreamStudyImages_rs1000x750g/Children/Sad face 8.jpg,,,,,,,,,,,
,,3,3.956,6,1.8347,7,2.0274,1,0.6595,6,1.9731,0,0,0,0,1,main,5,21,Female,R,Donders,2021-07-11_13h56.54.761,ImageRatingTask_S5,2021.1.4,Win32,59.95922773,,,,,,,,,,,,,,,,,
,,,,,,,,,,,,0,1,1,1,1,second,5,21,Female,R,Donders,2021-07-11_13h56.54.761,ImageRatingTask_S5,2021.1.4,Win32,59.95922773,,,,,,,,,,,,,,,,,
,,,,,,,,,,,,0,2,2,2,1,third,5,21,Female,R,Donders,2021-07-11_13h56.54.761,ImageRatingTask_S5,2021.1.4,Win32,59.95922773,,,,,,,,,,,,,,,,,
,,,,,,,,,,,,0,3,3,3,1,fourth,5,21,Female,R,Donders,2021-07-11_13h56.54.761,ImageRatingTask_S5,2021.1.4,Win32,59.95922773,,,,,,,,,,,,,,,,,
,,,,,,,,,,,,0,4,4,4,1,fifth,5,21,Female,R,Donders,2021-07-11_13h56.54.761,ImageRatingTask_S5,2021.1.4,Win32,59.95922773,,,,,,,,,,,,,,,,,
,,,,,,,,,,,,0,5,5,5,1,sixth,5,21,Female,R,Donders,2021-07-11_13h56.54.761,ImageRatingTask_S5,2021.1.4,Win32,59.95922773,,,,,,,,,,,,,,,,,
,,,,,,,,,,,,0,6,6,6,1,seventh,5,21,Female,R,Donders,2021-07-11_13h56.54.761,ImageRatingTask_S5,2021.1.4,Win32,59.95922773,,,,,,,,,,,,,,,,,
,,,,,,,,,,,,0,7,7,7,1,last,5,21,Female,R,Donders,2021-07-11_13h56.54.761,ImageRatingTask_S5,2021.1.4,Win32,59.95922773,,,,,,,,,,,,,,,,,
,,,,,,,,,,,,,,,,,,5,21,Female,R,Donders,2021-07-11_13h56.54.761,ImageRatingTask_S5,2021.1.4,Win32,59.95922773,0,8,8,113,1,DreamStudyImages_rs1000x750g/Houses/NDPS18_houses2_CROPPED.jpg,,,,,,,,,,,
,,5,1.476,5,0.0828,8,9.1488,1,1.0984,6,0.8382,0,0,0,0,1,main,5,21,Female,R,Donders,2021-07-11_13h56.54.761,ImageRatingTask_S5,2021.1.4,Win32,59.95922773,,,,,,,,,,,,,,,,,
,,,,,,,,,,,,0,1,1,1,1,second,5,21,Female,R,Donders,2021-07-11_13h56.54.761,ImageRatingTask_S5,2021.1.4,Win32,59.95922773,,,,,,,,,,,,,,,,,
,,,,,,,,,,,,0,2,2,2,1,third,5,21,Female,R,Donders,2021-07-11_13h56.54.761,ImageRatingTask_S5,2021.1.4,Win32,59.95922773,,,,,,,,,,,,,,,,,
,,,,,,,,,,,,0,3,3,3,1,fourth,5,21,Female,R,Donders,2021-07-11_13h56.54.761,ImageRatingTask_S5,2021.1.4,Win32,59.95922773,,,,,,,,,,,,,,,,,
,,,,,,,,,,,,0,4,4,4,1,fifth,5,21,Female,R,Donders,2021-07-11_13h56.54.761,ImageRatingTask_S5,2021.1.4,Win32,59.95922773,,,,,,,,,,,,,,,,,
,,,,,,,,,,,,0,5,5,5,1,sixth,5,21,Female,R,Donders,2021-07-11_13h56.54.761,ImageRatingTask_S5,2021.1.4,Win32,59.95922773,,,,,,,,,,,,,,,,,
,,,,,,,,,,,,0,6,6,6,1,seventh,5,21,Female,R,Donders,2021-07-11_13h56.54.761,ImageRatingTask_S5,2021.1.4,Win32,59.95922773,,,,,,,,,,,,,,,,,
,,,,,,,,,,,,0,7,7,7,1,last,5,21,Female,R,Donders,2021-07-11_13h56.54.761,ImageRatingTask_S5,2021.1.4,Win32,59.95922773,,,,,,,,,,,,,,,,,
,,,,,,,,,,,,,,,,,,5,21,Female,R,Donders,2021-07-11_13h56.54.761,ImageRatingTask_S5,2021.1.4,Win32,59.95922773,0,9,9,128,1,DreamStudyImages_rs1000x750g/Houses/Landscapes_068_h.jpg,,,,,,,,,,,
,,5,1.9797,5,0.054,6,5.6422,1,1.8023,6,0.1362,0,0,0,0,1,main,5,21,Female,R,Donders,2021-07-11_13h56.54.761,ImageRatingTask_S5,2021.1.4,Win32,59.95922773,,,,,,,,,,,,,,,,,
,,,,,,,,,,,,0,1,1,1,1,second,5,21,Female,R,Donders,2021-07-11_13h56.54.761,ImageRatingTask_S5,2021.1.4,Win32,59.95922773,,,,,,,,,,,,,,,,,
,,,,,,,,,,,,0,2,2,2,1,third,5,21,Female,R,Donders,2021-07-11_13h56.54.761,ImageRatingTask_S5,2021.1.4,Win32,59.95922773,,,,,,,,,,,,,,,,,
,,,,,,,,,,,,0,3,3,3,1,fourth,5,21,Female,R,Donders,2021-07-11_13h56.54.761,ImageRatingTask_S5,2021.1.4,Win32,59.95922773,,,,,,,,,,,,,,,,,
,,,,,,,,,,,,0,4,4,4,1,fifth,5,21,Female,R,Donders,2021-07-11_13h56.54.761,ImageRatingTask_S5,2021.1.4,Win32,59.95922773,,,,,,,,,,,,,,,,,
,,,,,,,,,,,,0,5,5,5,1,sixth,5,21,Female,R,Donders,2021-07-11_13h56.54.761,ImageRatingTask_S5,2021.1.4,Win32,59.95922773,,,,,,,,,,,,,,,,,
,,,,,,,,,,,,0,6,6,6,1,seventh,5,21,Female,R,Donders,2021-07-11_13h56.54.761,ImageRatingTask_S5,2021.1.4,Win32,59.95922773,,,,,,,,,,,,,,,,,
,,,,,,,,,,,,0,7,7,7,1,last,5,21,Female,R,Donders,2021-07-11_13h56.54.761,ImageRatingTask_S5,2021.1.4,Win32,59.95922773,,,,,,,,,,,,,,,,,
,,,,,,,,,,,,,,,,,,5,21,Female,R,Donders,2021-07-11_13h56.54.761,ImageRatingTask_S5,2021.1.4,Win32,59.95922773,0,10,10,148,1,DreamStudyImages_rs1000x750g/Houses/9941.jpg,,,,,,,,,,,
,,8,1.6116,3,2.1777,7,2.2864,1,1.0475,8,0.0372,0,0,0,0,1,main,5,21,Female,R,Donders,2021-07-11_13h56.54.761,ImageRatingTask_S5,2021.1.4,Win32,59.95922773,,,,,,,,,,,,,,,,,
,,,,,,,,,,,,0,1,1,1,1,second,5,21,Female,R,Donders,2021-07-11_13h56.54.761,ImageRatingTask_S5,2021.1.4,Win32,59.95922773,,,,,,,,,,,,,,,,,
,,,,,,,,,,,,0,2,2,2,1,third,5,21,Female,R,Donders,2021-07-11_13h56.54.761,ImageRatingTask_S5,2021.1.4,Win32,59.95922773,,,,,,,,,,,,,,,,,
,,,,,,,,,,,,0,3,3,3,1,fourth,5,21,Female,R,Donders,2021-07-11_13h56.54.761,ImageRatingTask_S5,2021.1.4,Win32,59.95922773,,,,,,,,,,,,,,,,,
,,,,,,,,,,,,0,4,4,4,1,fifth,5,21,Female,R,Donders,2021-07-11_13h56.54.761,ImageRatingTask_S5,2021.1.4,Win32,59.95922773,,,,,,,,,,,,,,,,,
,,,,,,,,,,,,0,5,5,5,1,sixth,5,21,Female,R,Donders,2021-07-11_13h56.54.761,ImageRatingTask_S5,2021.1.4,Win32,59.95922773,,,,,,,,,,,,,,,,,
,,,,,,,,,,,,0,6,6,6,1,seventh,5,21,Female,R,Donders,2021-07-11_13h56.54.761,ImageRatingTask_S5,2021.1.4,Win32,59.95922773,,,,,,,,,,,,,,,,,
,,,,,,,,,,,,0,7,7,7,1,last,5,21,Female,R,Donders,2021-07-11_13h56.54.761,ImageRatingTask_S5,2021.1.4,Win32,59.95922773,,,,,,,,,,,,,,,,,
,,,,,,,,,,,,,,,,,,5,21,Female,R,Donders,2021-07-11_13h56.54.761,ImageRatingTask_S5,2021.1.4,Win32,59.95922773,0,11,11,110,1,DreamStudyImages_rs1000x750g/Water/Landscapes_136_h.jpg,,,,,,,,,,,
,,5,1.2487,5,0.0419,7,1.4816,1,1.245,3,0.0716,0,0,0,0,1,main,5,21,Female,R,Donders,2021-07-11_13h56.54.761,ImageRatingTask_S5,2021.1.4,Win32,59.95922773,,,,,,,,,,,,,,,,,
,,,,,,,,,,,,0,1,1,1,1,second,5,21,Female,R,Donders,2021-07-11_13h56.54.761,ImageRatingTask_S5,2021.1.4,Win32,59.95922773,,,,,,,,,,,,,,,,,
,,,,,,,,,,,,0,2,2,2,1,third,5,21,Female,R,Donders,2021-07-11_13h56.54.761,ImageRatingTask_S5,2021.1.4,Win32,59.95922773,,,,,,,,,,,,,,,,,
,,,,,,,,,,,,0,3,3,3,1,fourth,5,21,Female,R,Donders,2021-07-11_13h56.54.761,ImageRatingTask_S5,2021.1.4,Win32,59.95922773,,,,,,,,,,,,,,,,,
,,,,,,,,,,,,0,4,4,4,1,fifth,5,21,Female,R,Donders,2021-07-11_13h56.54.761,ImageRatingTask_S5,2021.1.4,Win32,59.95922773,,,,,,,,,,,,,,,,,
,,,,,,,,,,,,0,5,5,5,1,sixth,5,21,Female,R,Donders,2021-07-11_13h56.54.761,ImageRatingTask_S5,2021.1.4,Win32,59.95922773,,,,,,,,,,,,,,,,,
,,,,,,,,,,,,0,6,6,6,1,seventh,5,21,Female,R,Donders,2021-07-11_13h56.54.761,ImageRatingTask_S5,2021.1.4,Win32,59.95922773,,,,,,,,,,,,,,,,,
,,,,,,,,,,,,0,7,7,7,1,last,5,21,Female,R,Donders,2021-07-11_13h56.54.761,ImageRatingTask_S5,2021.1.4,Win32,59.95922773,,,,,,,,,,,,,,,,,
,,,,,,,,,,,,,,,,,,5,21,Female,R,Donders,2021-07-11_13h56.54.761,ImageRatingTask_S5,2021.1.4,Win32,59.95922773,0,12,12,134,1,DreamStudyImages_rs1000x750g/Mammals/Animals_171_h.jpg,,,,,,,,,,,
,,5,1.2799,5,0.0903,8,2.2292,1,0.8958,2,0.063,0,0,0,0,1,main,5,21,Female,R,Donders,2021-07-11_13h56.54.761,ImageRatingTask_S5,2021.1.4,Win32,59.95922773,,,,,,,,,,,,,,,,,
,,,,,,,,,,,,0,1,1,1,1,second,5,21,Female,R,Donders,2021-07-11_13h56.54.761,ImageRatingTask_S5,2021.1.4,Win32,59.95922773,,,,,,,,,,,,,,,,,
,,,,,,,,,,,,0,2,2,2,1,third,5,21,Female,R,Donders,2021-07-11_13h56.54.761,ImageRatingTask_S5,2021.1.4,Win32,59.95922773,,,,,,,,,,,,,,,,,
,,,,,,,,,,,,0,3,3,3,1,fourth,5,21,Female,R,Donders,2021-07-11_13h56.54.761,ImageRatingTask_S5,2021.1.4,Win32,59.95922773,,,,,,,,,,,,,,,,,
,,,,,,,,,,,,0,4,4,4,1,fifth,5,21,Female,R,Donders,2021-07-11_13h56.54.761,ImageRatingTask_S5,2021.1.4,Win32,59.95922773,,,,,,,,,,,,,,,,,
,,,,,,,,,,,,0,5,5,5,1,sixth,5,21,Female,R,Donders,2021-07-11_13h56.54.761,ImageRatingTask_S5,2021.1.4,Win32,59.95922773,,,,,,,,,,,,,,,,,
,,,,,,,,,,,,0,6,6,6,1,seventh,5,21,Female,R,Donders,2021-07-11_13h56.54.761,ImageRatingTask_S5,2021.1.4,Win32,59.95922773,,,,,,,,,,,,,,,,,
,,,,,,,,,,,,0,7,7,7,1,last,5,21,Female,R,Donders,2021-07-11_13h56.54.761,ImageRatingTask_S5,2021.1.4,Win32,59.95922773,,,,,,,,,,,,,,,,,
,,,,,,,,,,,,,,,,,,5,21,Female,R,Donders,2021-07-11_13h56.54.761,ImageRatingTask_S5,2021.1.4,Win32,59.95922773,0,13,13,16,1,DreamStudyImages_rs1000x750g/Children/People_043_h.jpg,,,,,,,,,,,
,,5,4.0726,5,0.0759,7,1.9599,1,1.4477,5,0.2992,0,0,0,0,1,main,5,21,Female,R,Donders,2021-07-11_13h56.54.761,ImageRatingTask_S5,2021.1.4,Win32,59.95922773,,,,,,,,,,,,,,,,,
,,,,,,,,,,,,0,1,1,1,1,second,5,21,Female,R,Donders,2021-07-11_13h56.54.761,ImageRatingTask_S5,2021.1.4,Win32,59.95922773,,,,,,,,,,,,,,,,,
,,,,,,,,,,,,0,2,2,2,1,third,5,21,Female,R,Donders,2021-07-11_13h56.54.761,ImageRatingTask_S5,2021.1.4,Win32,59.95922773,,,,,,,,,,,,,,,,,
,,,,,,,,,,,,0,3,3,3,1,fourth,5,21,Female,R,Donders,2021-07-11_13h56.54.761,ImageRatingTask_S5,2021.1.4,Win32,59.95922773,,,,,,,,,,,,,,,,,
,,,,,,,,,,,,0,4,4,4,1,fifth,5,21,Female,R,Donders,2021-07-11_13h56.54.761,ImageRatingTask_S5,2021.1.4,Win32,59.95922773,,,,,,,,,,,,,,,,,
,,,,,,,,,,,,0,5,5,5,1,sixth,5,21,Female,R,Donders,2021-07-11_13h56.54.761,ImageRatingTask_S5,2021.1.4,Win32,59.95922773,,,,,,,,,,,,,,,,,
,,,,,,,,,,,,0,6,6,6,1,seventh,5,21,Female,R,Donders,2021-07-11_13h56.54.761,ImageRatingTask_S5,2021.1.4,Win32,59.95922773,,,,,,,,,,,,,,,,,
,,,,,,,,,,,,0,7,7,7,1,last,5,21,Female,R,Donders,2021-07-11_13h56.54.761,ImageRatingTask_S5,2021.1.4,Win32,59.95922773,,,,,,,,,,,,,,,,,
,,,,,,,,,,,,,,,,,,5,21,Female,R,Donders,2021-07-11_13h56.54.761,ImageRatingTask_S5,2021.1.4,Win32,59.95922773,0,14,14,59,1,DreamStudyImages_rs1000x750g/Food/Objects_020_h.jpg,,,,,,,,,,,
,,9,16.8281,2,1.229,6,1.6419,1,1.0111,8,0.1477,0,0,0,0,1,main,5,21,Female,R,Donders,2021-07-11_13h56.54.761,ImageRatingTask_S5,2021.1.4,Win32,59.95922773,,,,,,,,,,,,,,,,,
,,,,,,,,,,,,0,1,1,1,1,second,5,21,Female,R,Donders,2021-07-11_13h56.54.761,ImageRatingTask_S5,2021.1.4,Win32,59.95922773,,,,,,,,,,,,,,,,,
,,,,,,,,,,,,0,2,2,2,1,third,5,21,Female,R,Donders,2021-07-11_13h56.54.761,ImageRatingTask_S5,2021.1.4,Win32,59.95922773,,,,,,,,,,,,,,,,,
,,,,,,,,,,,,0,3,3,3,1,fourth,5,21,Female,R,Donders,2021-07-11_13h56.54.761,ImageRatingTask_S5,2021.1.4,Win32,59.95922773,,,,,,,,,,,,,,,,,
,,,,,,,,,,,,0,4,4,4,1,fifth,5,21,Female,R,Donders,2021-07-11_13h56.54.761,ImageRatingTask_S5,2021.1.4,Win32,59.95922773,,,,,,,,,,,,,,,,,
,,,,,,,,,,,,0,5,5,5,1,sixth,5,21,Female,R,Donders,2021-07-11_13h56.54.761,ImageRatingTask_S5,2021.1.4,Win32,59.95922773,,,,,,,,,,,,,,,,,
,,,,,,,,,,,,0,6,6,6,1,seventh,5,21,Female,R,Donders,2021-07-11_13h56.54.761,ImageRatingTask_S5,2021.1.4,Win32,59.95922773,,,,,,,,,,,,,,,,,
,,,,,,,,,,,,0,7,7,7,1,last,5,21,Female,R,Donders,2021-07-11_13h56.54.761,ImageRatingTask_S5,2021.1.4,Win32,59.95922773,,,,,,,,,,,,,,,,,
,,,,,,,,,,,,,,,,,,5,21,Female,R,Donders,2021-07-11_13h56.54.761,ImageRatingTask_S5,2021.1.4,Win32,59.95922773,0,15,15,26,1,DreamStudyImages_rs1000x750g/Water/Lake 10.jpg,,,,,,,,,,,
,,5,1.678,5,0.0808,7,1.0462,1,0.6575,3,0.7221,0,0,0,0,1,main,5,21,Female,R,Donders,2021-07-11_13h56.54.761,ImageRatingTask_S5,2021.1.4,Win32,59.95922773,,,,,,,,,,,,,,,,,
,,,,,,,,,,,,0,1,1,1,1,second,5,21,Female,R,Donders,2021-07-11_13h56.54.761,ImageRatingTask_S5,2021.1.4,Win32,59.95922773,,,,,,,,,,,,,,,,,
,,,,,,,,,,,,0,2,2,2,1,third,5,21,Female,R,Donders,2021-07-11_13h56.54.761,ImageRatingTask_S5,2021.1.4,Win32,59.95922773,,,,,,,,,,,,,,,,,
,,,,,,,,,,,,0,3,3,3,1,fourth,5,21,Female,R,Donders,2021-07-11_13h56.54.761,ImageRatingTask_S5,2021.1.4,Win32,59.95922773,,,,,,,,,,,,,,,,,
,,,,,,,,,,,,0,4,4,4,1,fifth,5,21,Female,R,Donders,2021-07-11_13h56.54.761,ImageRatingTask_S5,2021.1.4,Win32,59.95922773,,,,,,,,,,,,,,,,,
,,,,,,,,,,,,0,5,5,5,1,sixth,5,21,Female,R,Donders,2021-07-11_13h56.54.761,ImageRatingTask_S5,2021.1.4,Win32,59.95922773,,,,,,,,,,,,,,,,,
,,,,,,,,,,,,0,6,6,6,1,seventh,5,21,Female,R,Donders,2021-07-11_13h56.54.761,ImageRatingTask_S5,2021.1.4,Win32,59.95922773,,,,,,,,,,,,,,,,,
,,,,,,,,,,,,0,7,7,7,1,last,5,21,Female,R,Donders,2021-07-11_13h56.54.761,ImageRatingTask_S5,2021.1.4,Win32,59.95922773,,,,,,,,,,,,,,,,,
,,,,,,,,,,,,,,,,,,5,21,Female,R,Donders,2021-07-11_13h56.54.761,ImageRatingTask_S5,2021.1.4,Win32,59.95922773,0,16,16,2,1,DreamStudyImages_rs1000x750g/Mammals/Animals_133_h.jpg,,,,,,,,,,,
,,9,1.8472,1,0.6555,6,1.4567,1,1.294,8,0.1476,0,0,0,0,1,main,5,21,Female,R,Donders,2021-07-11_13h56.54.761,ImageRatingTask_S5,2021.1.4,Win32,59.95922773,,,,,,,,,,,,,,,,,
,,,,,,,,,,,,0,1,1,1,1,second,5,21,Female,R,Donders,2021-07-11_13h56.54.761,ImageRatingTask_S5,2021.1.4,Win32,59.95922773,,,,,,,,,,,,,,,,,
,,,,,,,,,,,,0,2,2,2,1,third,5,21,Female,R,Donders,2021-07-11_13h56.54.761,ImageRatingTask_S5,2021.1.4,Win32,59.95922773,,,,,,,,,,,,,,,,,
,,,,,,,,,,,,0,3,3,3,1,fourth,5,21,Female,R,Donders,2021-07-11_13h56.54.761,ImageRatingTask_S5,2021.1.4,Win32,59.95922773,,,,,,,,,,,,,,,,,
,,,,,,,,,,,,0,4,4,4,1,fifth,5,21,Female,R,Donders,2021-07-11_13h56.54.761,ImageRatingTask_S5,2021.1.4,Win32,59.95922773,,,,,,,,,,,,,,,,,
,,,,,,,,,,,,0,5,5,5,1,sixth,5,21,Female,R,Donders,2021-07-11_13h56.54.761,ImageRatingTask_S5,2021.1.4,Win32,59.95922773,,,,,,,,,,,,,,,,,
,,,,,,,,,,,,0,6,6,6,1,seventh,5,21,Female,R,Donders,2021-07-11_13h56.54.761,ImageRatingTask_S5,2021.1.4,Win32,59.95922773,,,,,,,,,,,,,,,,,
,,,,,,,,,,,,0,7,7,7,1,last,5,21,Female,R,Donders,2021-07-11_13h56.54.761,ImageRatingTask_S5,2021.1.4,Win32,59.95922773,,,,,,,,,,,,,,,,,
,,,,,,,,,,,,,,,,,,5,21,Female,R,Donders,2021-07-11_13h56.54.761,ImageRatingTask_S5,2021.1.4,Win32,59.95922773,0,17,17,81,1,DreamStudyImages_rs1000x750g/Water/IAPS7492_mountainlake_CROPPED.jpg,,,,,,,,,,,
,,3,2.0969,7,1.1717,7,2.1928,1,1.8089,6,0.1935,0,0,0,0,1,main,5,21,Female,R,Donders,2021-07-11_13h56.54.761,ImageRatingTask_S5,2021.1.4,Win32,59.95922773,,,,,,,,,,,,,,,,,
,,,,,,,,,,,,0,1,1,1,1,second,5,21,Female,R,Donders,2021-07-11_13h56.54.761,ImageRatingTask_S5,2021.1.4,Win32,59.95922773,,,,,,,,,,,,,,,,,
,,,,,,,,,,,,0,2,2,2,1,third,5,21,Female,R,Donders,2021-07-11_13h56.54.761,ImageRatingTask_S5,2021.1.4,Win32,59.95922773,,,,,,,,,,,,,,,,,
,,,,,,,,,,,,0,3,3,3,1,fourth,5,21,Female,R,Donders,2021-07-11_13h56.54.761,ImageRatingTask_S5,2021.1.4,Win32,59.95922773,,,,,,,,,,,,,,,,,
,,,,,,,,,,,,0,4,4,4,1,fifth,5,21,Female,R,Donders,2021-07-11_13h56.54.761,ImageRatingTask_S5,2021.1.4,Win32,59.95922773,,,,,,,,,,,,,,,,,
,,,,,,,,,,,,0,5,5,5,1,sixth,5,21,Female,R,Donders,2021-07-11_13h56.54.761,ImageRatingTask_S5,2021.1.4,Win32,59.95922773,,,,,,,,,,,,,,,,,
,,,,,,,,,,,,0,6,6,6,1,seventh,5,21,Female,R,Donders,2021-07-11_13h56.54.761,ImageRatingTask_S5,2021.1.4,Win32,59.95922773,,,,,,,,,,,,,,,,,
,,,,,,,,,,,,0,7,7,7,1,last,5,21,Female,R,Donders,2021-07-11_13h56.54.761,ImageRatingTask_S5,2021.1.4,Win32,59.95922773,,,,,,,,,,,,,,,,,
,,,,,,,,,,,,,,,,,,5,21,Female,R,Donders,2021-07-11_13h56.54.761,ImageRatingTask_S5,2021.1.4,Win32,59.95922773,0,18,18,4,1,DreamStudyImages_rs1000x750g/Houses/Graveyard 4.jpg,,,,,,,,,,,
,,5,2.9005,5,0.0716,7,1.2568,1,0.3357,7,0.5488,0,0,0,0,1,main,5,21,Female,R,Donders,2021-07-11_13h56.54.761,ImageRatingTask_S5,2021.1.4,Win32,59.95922773,,,,,,,,,,,,,,,,,
,,,,,,,,,,,,0,1,1,1,1,second,5,21,Female,R,Donders,2021-07-11_13h56.54.761,ImageRatingTask_S5,2021.1.4,Win32,59.95922773,,,,,,,,,,,,,,,,,
,,,,,,,,,,,,0,2,2,2,1,third,5,21,Female,R,Donders,2021-07-11_13h56.54.761,ImageRatingTask_S5,2021.1.4,Win32,59.95922773,,,,,,,,,,,,,,,,,
,,,,,,,,,,,,0,3,3,3,1,fourth,5,21,Female,R,Donders,2021-07-11_13h56.54.761,ImageRatingTask_S5,2021.1.4,Win32,59.95922773,,,,,,,,,,,,,,,,,
,,,,,,,,,,,,0,4,4,4,1,fifth,5,21,Female,R,Donders,2021-07-11_13h56.54.761,ImageRatingTask_S5,2021.1.4,Win32,59.95922773,,,,,,,,,,,,,,,,,
,,,,,,,,,,,,0,5,5,5,1,sixth,5,21,Female,R,Donders,2021-07-11_13h56.54.761,ImageRatingTask_S5,2021.1.4,Win32,59.95922773,,,,,,,,,,,,,,,,,
,,,,,,,,,,,,0,6,6,6,1,seventh,5,21,Female,R,Donders,2021-07-11_13h56.54.761,ImageRatingTask_S5,2021.1.4,Win32,59.95922773,,,,,,,,,,,,,,,,,
,,,,,,,,,,,,0,7,7,7,1,last,5,21,Female,R,Donders,2021-07-11_13h56.54.761,ImageRatingTask_S5,2021.1.4,Win32,59.95922773,,,,,,,,,,,,,,,,,
,,,,,,,,,,,,,,,,,,5,21,Female,R,Donders,2021-07-11_13h56.54.761,ImageRatingTask_S5,2021.1.4,Win32,59.95922773,0,19,19,36,1,DreamStudyImages_rs1000x750g/Vehicles/Objects_298_h.jpg,,,,,,,,,,,
,,5,1.849,5,0.0757,7,14.1837,1,0.7242,2,0.0719,0,0,0,0,1,main,5,21,Female,R,Donders,2021-07-11_13h56.54.761,ImageRatingTask_S5,2021.1.4,Win32,59.95922773,,,,,,,,,,,,,,,,,
,,,,,,,,,,,,0,1,1,1,1,second,5,21,Female,R,Donders,2021-07-11_13h56.54.761,ImageRatingTask_S5,2021.1.4,Win32,59.95922773,,,,,,,,,,,,,,,,,
,,,,,,,,,,,,0,2,2,2,1,third,5,21,Female,R,Donders,2021-07-11_13h56.54.761,ImageRatingTask_S5,2021.1.4,Win32,59.95922773,,,,,,,,,,,,,,,,,
,,,,,,,,,,,,0,3,3,3,1,fourth,5,21,Female,R,Donders,2021-07-11_13h56.54.761,ImageRatingTask_S5,2021.1.4,Win32,59.95922773,,,,,,,,,,,,,,,,,
,,,,,,,,,,,,0,4,4,4,1,fifth,5,21,Female,R,Donders,2021-07-11_13h56.54.761,ImageRatingTask_S5,2021.1.4,Win32,59.95922773,,,,,,,,,,,,,,,,,
,,,,,,,,,,,,0,5,5,5,1,sixth,5,21,Female,R,Donders,2021-07-11_13h56.54.761,ImageRatingTask_S5,2021.1.4,Win32,59.95922773,,,,,,,,,,,,,,,,,
,,,,,,,,,,,,0,6,6,6,1,seventh,5,21,Female,R,Donders,2021-07-11_13h56.54.761,ImageRatingTask_S5,2021.1.4,Win32,59.95922773,,,,,,,,,,,,,,,,,
,,,,,,,,,,,,0,7,7,7,1,last,5,21,Female,R,Donders,2021-07-11_13h56.54.761,ImageRatingTask_S5,2021.1.4,Win32,59.95922773,,,,,,,,,,,,,,,,,
,,,,,,,,,,,,,,,,,,5,21,Female,R,Donders,2021-07-11_13h56.54.761,ImageRatingTask_S5,2021.1.4,Win32,59.95922773,0,20,20,22,1,DreamStudyImages_rs1000x750g/Children/Gazing 6.jpg,,,,,,,,,,,
,,1,9.1583,8,2.1599,8,1.5424,1,1.4402,3,0.0371,0,0,0,0,1,main,5,21,Female,R,Donders,2021-07-11_13h56.54.761,ImageRatingTask_S5,2021.1.4,Win32,59.95922773,,,,,,,,,,,,,,,,,
,,,,,,,,,,,,0,1,1,1,1,second,5,21,Female,R,Donders,2021-07-11_13h56.54.761,ImageRatingTask_S5,2021.1.4,Win32,59.95922773,,,,,,,,,,,,,,,,,
,,,,,,,,,,,,0,2,2,2,1,third,5,21,Female,R,Donders,2021-07-11_13h56.54.761,ImageRatingTask_S5,2021.1.4,Win32,59.95922773,,,,,,,,,,,,,,,,,
,,,,,,,,,,,,0,3,3,3,1,fourth,5,21,Female,R,Donders,2021-07-11_13h56.54.761,ImageRatingTask_S5,2021.1.4,Win32,59.95922773,,,,,,,,,,,,,,,,,
,,,,,,,,,,,,0,4,4,4,1,fifth,5,21,Female,R,Donders,2021-07-11_13h56.54.761,ImageRatingTask_S5,2021.1.4,Win32,59.95922773,,,,,,,,,,,,,,,,,
,,,,,,,,,,,,0,5,5,5,1,sixth,5,21,Female,R,Donders,2021-07-11_13h56.54.761,ImageRatingTask_S5,2021.1.4,Win32,59.95922773,,,,,,,,,,,,,,,,,
,,,,,,,,,,,,0,6,6,6,1,seventh,5,21,Female,R,Donders,2021-07-11_13h56.54.761,ImageRatingTask_S5,2021.1.4,Win32,59.95922773,,,,,,,,,,,,,,,,,
,,,,,,,,,,,,0,7,7,7,1,last,5,21,Female,R,Donders,2021-07-11_13h56.54.761,ImageRatingTask_S5,2021.1.4,Win32,59.95922773,,,,,,,,,,,,,,,,,
,,,,,,,,,,,,,,,,,,5,21,Female,R,Donders,2021-07-11_13h56.54.761,ImageRatingTask_S5,2021.1.4,Win32,59.95922773,0,21,21,84,1,DreamStudyImages_rs1000x750g/Mammals/Animals_054_h_CHECK.jpg,,,,,,,,,,,
,,5,1.8777,5,0.1559,7,1.8473,0,3.6466,,,0,0,0,0,1,main,5,21,Female,R,Donders,2021-07-11_13h56.54.761,ImageRatingTask_S5,2021.1.4,Win32,59.95922773,,,,,,,,,,,,,,,,,
,,,,,,,,,,,,0,1,1,1,1,second,5,21,Female,R,Donders,2021-07-11_13h56.54.761,ImageRatingTask_S5,2021.1.4,Win32,59.95922773,,,,,,,,,,,,,,,,,
,,,,,,,,,,,,0,2,2,2,1,third,5,21,Female,R,Donders,2021-07-11_13h56.54.761,ImageRatingTask_S5,2021.1.4,Win32,59.95922773,,,,,,,,,,,,,,,,,
,,,,,,,,,,,,0,3,3,3,1,fourth,5,21,Female,R,Donders,2021-07-11_13h56.54.761,ImageRatingTask_S5,2021.1.4,Win32,59.95922773,,,,,,,,,,,,,,,,,
,,,,,,,,,,,,0,4,4,4,1,fifth,5,21,Female,R,Donders,2021-07-11_13h56.54.761,ImageRatingTask_S5,2021.1.4,Win32,59.95922773,,,,,,,,,,,,,,,,,
,,,,,,,,,,,,0,5,5,5,1,sixth,5,21,Female,R,Donders,2021-07-11_13h56.54.761,ImageRatingTask_S5,2021.1.4,Win32,59.95922773,,,,,,,,,,,,,,,,,
,,,,,,,,,,,,0,6,6,6,1,seventh,5,21,Female,R,Donders,2021-07-11_13h56.54.761,ImageRatingTask_S5,2021.1.4,Win32,59.95922773,,,,,,,,,,,,,,,,,
,,,,,,,,,,,,0,7,7,7,1,last,5,21,Female,R,Donders,2021-07-11_13h56.54.761,ImageRatingTask_S5,2021.1.4,Win32,59.95922773,,,,,,,,,,,,,,,,,
,,,,,,,,,,,,,,,,,,5,21,Female,R,Donders,2021-07-11_13h56.54.761,ImageRatingTask_S5,2021.1.4,Win32,59.95922773,0,22,22,125,1,DreamStudyImages_rs1000x750g/Houses/Landscapes_117_h.jpg,,,,,,,,,,,
,,3,4.411,5,1.0616,7,1.8934,1,1.6825,3,0.0614,0,0,0,0,1,main,5,21,Female,R,Donders,2021-07-11_13h56.54.761,ImageRatingTask_S5,2021.1.4,Win32,59.95922773,,,,,,,,,,,,,,,,,
,,,,,,,,,,,,0,1,1,1,1,second,5,21,Female,R,Donders,2021-07-11_13h56.54.761,ImageRatingTask_S5,2021.1.4,Win32,59.95922773,,,,,,,,,,,,,,,,,
,,,,,,,,,,,,0,2,2,2,1,third,5,21,Female,R,Donders,2021-07-11_13h56.54.761,ImageRatingTask_S5,2021.1.4,Win32,59.95922773,,,,,,,,,,,,,,,,,
,,,,,,,,,,,,0,3,3,3,1,fourth,5,21,Female,R,Donders,2021-07-11_13h56.54.761,ImageRatingTask_S5,2021.1.4,Win32,59.95922773,,,,,,,,,,,,,,,,,
,,,,,,,,,,,,0,4,4,4,1,fifth,5,21,Female,R,Donders,2021-07-11_13h56.54.761,ImageRatingTask_S5,2021.1.4,Win32,59.95922773,,,,,,,,,,,,,,,,,
,,,,,,,,,,,,0,5,5,5,1,sixth,5,21,Female,R,Donders,2021-07-11_13h56.54.761,ImageRatingTask_S5,2021.1.4,Win32,59.95922773,,,,,,,,,,,,,,,,,
,,,,,,,,,,,,0,6,6,6,1,seventh,5,21,Female,R,Donders,2021-07-11_13h56.54.761,ImageRatingTask_S5,2021.1.4,Win32,59.95922773,,,,,,,,,,,,,,,,,
,,,,,,,,,,,,0,7,7,7,1,last,5,21,Female,R,Donders,2021-07-11_13h56.54.761,ImageRatingTask_S5,2021.1.4,Win32,59.95922773,,,,,,,,,,,,,,,,,
,,,,,,,,,,,,,,,,,,5,21,Female,R,Donders,2021-07-11_13h56.54.761,ImageRatingTask_S5,2021.1.4,Win32,59.95922773,0,23,23,127,1,DreamStudyImages_rs1000x750g/Mammals/Animal carcass 6.jpg,,,,,,,,,,,
,,4,5.1548,7,1.1527,7,1.8794,1,0.8918,5,0.3498,0,0,0,0,1,main,5,21,Female,R,Donders,2021-07-11_13h56.54.761,ImageRatingTask_S5,2021.1.4,Win32,59.95922773,,,,,,,,,,,,,,,,,
,,,,,,,,,,,,0,1,1,1,1,second,5,21,Female,R,Donders,2021-07-11_13h56.54.761,ImageRatingTask_S5,2021.1.4,Win32,59.95922773,,,,,,,,,,,,,,,,,
,,,,,,,,,,,,0,2,2,2,1,third,5,21,Female,R,Donders,2021-07-11_13h56.54.761,ImageRatingTask_S5,2021.1.4,Win32,59.95922773,,,,,,,,,,,,,,,,,
,,,,,,,,,,,,0,3,3,3,1,fourth,5,21,Female,R,Donders,2021-07-11_13h56.54.761,ImageRatingTask_S5,2021.1.4,Win32,59.95922773,,,,,,,,,,,,,,,,,
,,,,,,,,,,,,0,4,4,4,1,fifth,5,21,Female,R,Donders,2021-07-11_13h56.54.761,ImageRatingTask_S5,2021.1.4,Win32,59.95922773,,,,,,,,,,,,,,,,,
,,,,,,,,,,,,0,5,5,5,1,sixth,5,21,Female,R,Donders,2021-07-11_13h56.54.761,ImageRatingTask_S5,2021.1.4,Win32,59.95922773,,,,,,,,,,,,,,,,,
,,,,,,,,,,,,0,6,6,6,1,seventh,5,21,Female,R,Donders,2021-07-11_13h56.54.761,ImageRatingTask_S5,2021.1.4,Win32,59.95922773,,,,,,,,,,,,,,,,,
,,,,,,,,,,,,0,7,7,7,1,last,5,21,Female,R,Donders,2021-07-11_13h56.54.761,ImageRatingTask_S5,2021.1.4,Win32,59.95922773,,,,,,,,,,,,,,,,,
,,,,,,,,,,,,,,,,,,5,21,Female,R,Donders,2021-07-11_13h56.54.761,ImageRatingTask_S5,2021.1.4,Win32,59.95922773,0,24,24,10,1,DreamStudyImages_rs1000x750g/Food/IAPS7291_chicken.jpg,,,,,,,,,,,
,,5,1.4943,5,0.075,8,1.3911,1,1.3757,3,0.6768,0,0,0,0,1,main,5,21,Female,R,Donders,2021-07-11_13h56.54.761,ImageRatingTask_S5,2021.1.4,Win32,59.95922773,,,,,,,,,,,,,,,,,
,,,,,,,,,,,,0,1,1,1,1,second,5,21,Female,R,Donders,2021-07-11_13h56.54.761,ImageRatingTask_S5,2021.1.4,Win32,59.95922773,,,,,,,,,,,,,,,,,
,,,,,,,,,,,,0,2,2,2,1,third,5,21,Female,R,Donders,2021-07-11_13h56.54.761,ImageRatingTask_S5,2021.1.4,Win32,59.95922773,,,,,,,,,,,,,,,,,
,,,,,,,,,,,,0,3,3,3,1,fourth,5,21,Female,R,Donders,2021-07-11_13h56.54.761,ImageRatingTask_S5,2021.1.4,Win32,59.95922773,,,,,,,,,,,,,,,,,
,,,,,,,,,,,,0,4,4,4,1,fifth,5,21,Female,R,Donders,2021-07-11_13h56.54.761,ImageRatingTask_S5,2021.1.4,Win32,59.95922773,,,,,,,,,,,,,,,,,
,,,,,,,,,,,,0,5,5,5,1,sixth,5,21,Female,R,Donders,2021-07-11_13h56.54.761,ImageRatingTask_S5,2021.1.4,Win32,59.95922773,,,,,,,,,,,,,,,,,
,,,,,,,,,,,,0,6,6,6,1,seventh,5,21,Female,R,Donders,2021-07-11_13h56.54.761,ImageRatingTask_S5,2021.1.4,Win32,59.95922773,,,,,,,,,,,,,,,,,
,,,,,,,,,,,,0,7,7,7,1,last,5,21,Female,R,Donders,2021-07-11_13h56.54.761,ImageRatingTask_S5,2021.1.4,Win32,59.95922773,,,,,,,,,,,,,,,,,
,,,,,,,,,,,,,,,,,,5,21,Female,R,Donders,2021-07-11_13h56.54.761,ImageRatingTask_S5,2021.1.4,Win32,59.95922773,0,25,25,126,1,DreamStudyImages_rs1000x750g/Mammals/IAPS1595_horse2.jpg,,,,,,,,,,,
,,5,1.0654,5,0.0922,8,1.2642,1,0.8364,2,0.0026,0,0,0,0,1,main,5,21,Female,R,Donders,2021-07-11_13h56.54.761,ImageRatingTask_S5,2021.1.4,Win32,59.95922773,,,,,,,,,,,,,,,,,
,,,,,,,,,,,,0,1,1,1,1,second,5,21,Female,R,Donders,2021-07-11_13h56.54.761,ImageRatingTask_S5,2021.1.4,Win32,59.95922773,,,,,,,,,,,,,,,,,
,,,,,,,,,,,,0,2,2,2,1,third,5,21,Female,R,Donders,2021-07-11_13h56.54.761,ImageRatingTask_S5,2021.1.4,Win32,59.95922773,,,,,,,,,,,,,,,,,
,,,,,,,,,,,,0,3,3,3,1,fourth,5,21,Female,R,Donders,2021-07-11_13h56.54.761,ImageRatingTask_S5,2021.1.4,Win32,59.95922773,,,,,,,,,,,,,,,,,
,,,,,,,,,,,,0,4,4,4,1,fifth,5,21,Female,R,Donders,2021-07-11_13h56.54.761,ImageRatingTask_S5,2021.1.4,Win32,59.95922773,,,,,,,,,,,,,,,,,
,,,,,,,,,,,,0,5,5,5,1,sixth,5,21,Female,R,Donders,2021-07-11_13h56.54.761,ImageRatingTask_S5,2021.1.4,Win32,59.95922773,,,,,,,,,,,,,,,,,
,,,,,,,,,,,,0,6,6,6,1,seventh,5,21,Female,R,Donders,2021-07-11_13h56.54.761,ImageRatingTask_S5,2021.1.4,Win32,59.95922773,,,,,,,,,,,,,,,,,
,,,,,,,,,,,,0,7,7,7,1,last,5,21,Female,R,Donders,2021-07-11_13h56.54.761,ImageRatingTask_S5,2021.1.4,Win32,59.95922773,,,,,,,,,,,,,,,,,
,,,,,,,,,,,,,,,,,,5,21,Female,R,Donders,2021-07-11_13h56.54.761,ImageRatingTask_S5,2021.1.4,Win32,59.95922773,0,26,26,79,1,DreamStudyImages_rs1000x750g/Children/Faces_086_v.jpg,,,,,,,,,,,
,,4,3.161,6,1.302,8,3.3241,1,1.4673,6,0.4792,0,0,0,0,1,main,5,21,Female,R,Donders,2021-07-11_13h56.54.761,ImageRatingTask_S5,2021.1.4,Win32,59.95922773,,,,,,,,,,,,,,,,,
,,,,,,,,,,,,0,1,1,1,1,second,5,21,Female,R,Donders,2021-07-11_13h56.54.761,ImageRatingTask_S5,2021.1.4,Win32,59.95922773,,,,,,,,,,,,,,,,,
,,,,,,,,,,,,0,2,2,2,1,third,5,21,Female,R,Donders,2021-07-11_13h56.54.761,ImageRatingTask_S5,2021.1.4,Win32,59.95922773,,,,,,,,,,,,,,,,,
,,,,,,,,,,,,0,3,3,3,1,fourth,5,21,Female,R,Donders,2021-07-11_13h56.54.761,ImageRatingTask_S5,2021.1.4,Win32,59.95922773,,,,,,,,,,,,,,,,,
,,,,,,,,,,,,0,4,4,4,1,fifth,5,21,Female,R,Donders,2021-07-11_13h56.54.761,ImageRatingTask_S5,2021.1.4,Win32,59.95922773,,,,,,,,,,,,,,,,,
,,,,,,,,,,,,0,5,5,5,1,sixth,5,21,Female,R,Donders,2021-07-11_13h56.54.761,ImageRatingTask_S5,2021.1.4,Win32,59.95922773,,,,,,,,,,,,,,,,,
,,,,,,,,,,,,0,6,6,6,1,seventh,5,21,Female,R,Donders,2021-07-11_13h56.54.761,ImageRatingTask_S5,2021.1.4,Win32,59.95922773,,,,,,,,,,,,,,,,,
,,,,,,,,,,,,0,7,7,7,1,last,5,21,Female,R,Donders,2021-07-11_13h56.54.761,ImageRatingTask_S5,2021.1.4,Win32,59.95922773,,,,,,,,,,,,,,,,,
,,,,,,,,,,,,,,,,,,5,21,Female,R,Donders,2021-07-11_13h56.54.761,ImageRatingTask_S5,2021.1.4,Win32,59.95922773,0,27,27,90,1,DreamStudyImages_rs1000x750g/Houses/NDPS108_houses6.jpg,,,,,,,,,,,
,,4,2.3061,6,1.1629,6,0.0641,1,1.3251,2,0.0187,0,0,0,0,1,main,5,21,Female,R,Donders,2021-07-11_13h56.54.761,ImageRatingTask_S5,2021.1.4,Win32,59.95922773,,,,,,,,,,,,,,,,,
,,,,,,,,,,,,0,1,1,1,1,second,5,21,Female,R,Donders,2021-07-11_13h56.54.761,ImageRatingTask_S5,2021.1.4,Win32,59.95922773,,,,,,,,,,,,,,,,,
,,,,,,,,,,,,0,2,2,2,1,third,5,21,Female,R,Donders,2021-07-11_13h56.54.761,ImageRatingTask_S5,2021.1.4,Win32,59.95922773,,,,,,,,,,,,,,,,,
,,,,,,,,,,,,0,3,3,3,1,fourth,5,21,Female,R,Donders,2021-07-11_13h56.54.761,ImageRatingTask_S5,2021.1.4,Win32,59.95922773,,,,,,,,,,,,,,,,,
,,,,,,,,,,,,0,4,4,4,1,fifth,5,21,Female,R,Donders,2021-07-11_13h56.54.761,ImageRatingTask_S5,2021.1.4,Win32,59.95922773,,,,,,,,,,,,,,,,,
,,,,,,,,,,,,0,5,5,5,1,sixth,5,21,Female,R,Donders,2021-07-11_13h56.54.761,ImageRatingTask_S5,2021.1.4,Win32,59.95922773,,,,,,,,,,,,,,,,,
,,,,,,,,,,,,0,6,6,6,1,seventh,5,21,Female,R,Donders,2021-07-11_13h56.54.761,ImageRatingTask_S5,2021.1.4,Win32,59.95922773,,,,,,,,,,,,,,,,,
,,,,,,,,,,,,0,7,7,7,1,last,5,21,Female,R,Donders,2021-07-11_13h56.54.761,ImageRatingTask_S5,2021.1.4,Win32,59.95922773,,,,,,,,,,,,,,,,,
,,,,,,,,,,,,,,,,,,5,21,Female,R,Donders,2021-07-11_13h56.54.761,ImageRatingTask_S5,2021.1.4,Win32,59.95922773,0,28,28,67,1,DreamStudyImages_rs1000x750g/Children/IAPS2458_child4.jpg,,,,,,,,,,,
,,5,3.2408,5,0.1194,7,2.1231,1,1.2461,2,0.0532,0,0,0,0,1,main,5,21,Female,R,Donders,2021-07-11_13h56.54.761,ImageRatingTask_S5,2021.1.4,Win32,59.95922773,,,,,,,,,,,,,,,,,
,,,,,,,,,,,,0,1,1,1,1,second,5,21,Female,R,Donders,2021-07-11_13h56.54.761,ImageRatingTask_S5,2021.1.4,Win32,59.95922773,,,,,,,,,,,,,,,,,
,,,,,,,,,,,,0,2,2,2,1,third,5,21,Female,R,Donders,2021-07-11_13h56.54.761,ImageRatingTask_S5,2021.1.4,Win32,59.95922773,,,,,,,,,,,,,,,,,
,,,,,,,,,,,,0,3,3,3,1,fourth,5,21,Female,R,Donders,2021-07-11_13h56.54.761,ImageRatingTask_S5,2021.1.4,Win32,59.95922773,,,,,,,,,,,,,,,,,
,,,,,,,,,,,,0,4,4,4,1,fifth,5,21,Female,R,Donders,2021-07-11_13h56.54.761,ImageRatingTask_S5,2021.1.4,Win32,59.95922773,,,,,,,,,,,,,,,,,
,,,,,,,,,,,,0,5,5,5,1,sixth,5,21,Female,R,Donders,2021-07-11_13h56.54.761,ImageRatingTask_S5,2021.1.4,Win32,59.95922773,,,,,,,,,,,,,,,,,
,,,,,,,,,,,,0,6,6,6,1,seventh,5,21,Female,R,Donders,2021-07-11_13h56.54.761,ImageRatingTask_S5,2021.1.4,Win32,59.95922773,,,,,,,,,,,,,,,,,
,,,,,,,,,,,,0,7,7,7,1,last,5,21,Female,R,Donders,2021-07-11_13h56.54.761,ImageRatingTask_S5,2021.1.4,Win32,59.95922773,,,,,,,,,,,,,,,,,
,,,,,,,,,,,,,,,,,,5,21,Female,R,Donders,2021-07-11_13h56.54.761,ImageRatingTask_S5,2021.1.4,Win32,59.95922773,0,29,29,119,1,DreamStudyImages_rs1000x750g/Children/IAPS9070_child10.jpg,,,,,,,,,,,
,,5,1.1083,5,0.0677,7,3.4898,1,0.7318,2,0.0348,0,0,0,0,1,main,5,21,Female,R,Donders,2021-07-11_13h56.54.761,ImageRatingTask_S5,2021.1.4,Win32,59.95922773,,,,,,,,,,,,,,,,,
,,,,,,,,,,,,0,1,1,1,1,second,5,21,Female,R,Donders,2021-07-11_13h56.54.761,ImageRatingTask_S5,2021.1.4,Win32,59.95922773,,,,,,,,,,,,,,,,,
,,,,,,,,,,,,0,2,2,2,1,third,5,21,Female,R,Donders,2021-07-11_13h56.54.761,ImageRatingTask_S5,2021.1.4,Win32,59.95922773,,,,,,,,,,,,,,,,,
,,,,,,,,,,,,0,3,3,3,1,fourth,5,21,Female,R,Donders,2021-07-11_13h56.54.761,ImageRatingTask_S5,2021.1.4,Win32,59.95922773,,,,,,,,,,,,,,,,,
,,,,,,,,,,,,0,4,4,4,1,fifth,5,21,Female,R,Donders,2021-07-11_13h56.54.761,ImageRatingTask_S5,2021.1.4,Win32,59.95922773,,,,,,,,,,,,,,,,,
,,,,,,,,,,,,0,5,5,5,1,sixth,5,21,Female,R,Donders,2021-07-11_13h56.54.761,ImageRatingTask_S5,2021.1.4,Win32,59.95922773,,,,,,,,,,,,,,,,,
,,,,,,,,,,,,0,6,6,6,1,seventh,5,21,Female,R,Donders,2021-07-11_13h56.54.761,ImageRatingTask_S5,2021.1.4,Win32,59.95922773,,,,,,,,,,,,,,,,,
,,,,,,,,,,,,0,7,7,7,1,last,5,21,Female,R,Donders,2021-07-11_13h56.54.761,ImageRatingTask_S5,2021.1.4,Win32,59.95922773,,,,,,,,,,,,,,,,,
,,,,,,,,,,,,,,,,,,5,21,Female,R,Donders,2021-07-11_13h56.54.761,ImageRatingTask_S5,2021.1.4,Win32,59.95922773,0,30,30,41,1,DreamStudyImages_rs1000x750g/Children/Faces_155_h.jpg,,,,,,,,,,,
,,5,2.1652,5,0.0718,7,2.2867,1,0.9887,5,0.336,0,0,0,0,1,main,5,21,Female,R,Donders,2021-07-11_13h56.54.761,ImageRatingTask_S5,2021.1.4,Win32,59.95922773,,,,,,,,,,,,,,,,,
,,,,,,,,,,,,0,1,1,1,1,second,5,21,Female,R,Donders,2021-07-11_13h56.54.761,ImageRatingTask_S5,2021.1.4,Win32,59.95922773,,,,,,,,,,,,,,,,,
,,,,,,,,,,,,0,2,2,2,1,third,5,21,Female,R,Donders,2021-07-11_13h56.54.761,ImageRatingTask_S5,2021.1.4,Win32,59.95922773,,,,,,,,,,,,,,,,,
,,,,,,,,,,,,0,3,3,3,1,fourth,5,21,Female,R,Donders,2021-07-11_13h56.54.761,ImageRatingTask_S5,2021.1.4,Win32,59.95922773,,,,,,,,,,,,,,,,,
,,,,,,,,,,,,0,4,4,4,1,fifth,5,21,Female,R,Donders,2021-07-11_13h56.54.761,ImageRatingTask_S5,2021.1.4,Win32,59.95922773,,,,,,,,,,,,,,,,,
,,,,,,,,,,,,0,5,5,5,1,sixth,5,21,Female,R,Donders,2021-07-11_13h56.54.761,ImageRatingTask_S5,2021.1.4,Win32,59.95922773,,,,,,,,,,,,,,,,,
,,,,,,,,,,,,0,6,6,6,1,seventh,5,21,Female,R,Donders,2021-07-11_13h56.54.761,ImageRatingTask_S5,2021.1.4,Win32,59.95922773,,,,,,,,,,,,,,,,,
,,,,,,,,,,,,0,7,7,7,1,last,5,21,Female,R,Donders,2021-07-11_13h56.54.761,ImageRatingTask_S5,2021.1.4,Win32,59.95922773,,,,,,,,,,,,,,,,,
,,,,,,,,,,,,,,,,,,5,21,Female,R,Donders,2021-07-11_13h56.54.761,ImageRatingTask_S5,2021.1.4,Win32,59.95922773,0,31,31,98,1,DreamStudyImages_rs1000x750g/Food/IAPS7475_curry.jpg,,,,,,,,,,,
,,6,2.4096,5,2.7153,7,1.2862,1,1.1722,3,0.0585,0,0,0,0,1,main,5,21,Female,R,Donders,2021-07-11_13h56.54.761,ImageRatingTask_S5,2021.1.4,Win32,59.95922773,,,,,,,,,,,,,,,,,
,,,,,,,,,,,,0,1,1,1,1,second,5,21,Female,R,Donders,2021-07-11_13h56.54.761,ImageRatingTask_S5,2021.1.4,Win32,59.95922773,,,,,,,,,,,,,,,,,
,,,,,,,,,,,,0,2,2,2,1,third,5,21,Female,R,Donders,2021-07-11_13h56.54.761,ImageRatingTask_S5,2021.1.4,Win32,59.95922773,,,,,,,,,,,,,,,,,
,,,,,,,,,,,,0,3,3,3,1,fourth,5,21,Female,R,Donders,2021-07-11_13h56.54.761,ImageRatingTask_S5,2021.1.4,Win32,59.95922773,,,,,,,,,,,,,,,,,
,,,,,,,,,,,,0,4,4,4,1,fifth,5,21,Female,R,Donders,2021-07-11_13h56.54.761,ImageRatingTask_S5,2021.1.4,Win32,59.95922773,,,,,,,,,,,,,,,,,
,,,,,,,,,,,,0,5,5,5,1,sixth,5,21,Female,R,Donders,2021-07-11_13h56.54.761,ImageRatingTask_S5,2021.1.4,Win32,59.95922773,,,,,,,,,,,,,,,,,
,,,,,,,,,,,,0,6,6,6,1,seventh,5,21,Female,R,Donders,2021-07-11_13h56.54.761,ImageRatingTask_S5,2021.1.4,Win32,59.95922773,,,,,,,,,,,,,,,,,
,,,,,,,,,,,,0,7,7,7,1,last,5,21,Female,R,Donders,2021-07-11_13h56.54.761,ImageRatingTask_S5,2021.1.4,Win32,59.95922773,,,,,,,,,,,,,,,,,
,,,,,,,,,,,,,,,,,,5,21,Female,R,Donders,2021-07-11_13h56.54.761,ImageRatingTask_S5,2021.1.4,Win32,59.95922773,0,32,32,121,1,DreamStudyImages_rs1000x750g/Mammals/Animals_208_h.jpg,,,,,,,,,,,
,,9,1.7011,3,2.8094,9,1.3347,1,1.5242,3,0.035,0,0,0,0,1,main,5,21,Female,R,Donders,2021-07-11_13h56.54.761,ImageRatingTask_S5,2021.1.4,Win32,59.95922773,,,,,,,,,,,,,,,,,
,,,,,,,,,,,,0,1,1,1,1,second,5,21,Female,R,Donders,2021-07-11_13h56.54.761,ImageRatingTask_S5,2021.1.4,Win32,59.95922773,,,,,,,,,,,,,,,,,
,,,,,,,,,,,,0,2,2,2,1,third,5,21,Female,R,Donders,2021-07-11_13h56.54.761,ImageRatingTask_S5,2021.1.4,Win32,59.95922773,,,,,,,,,,,,,,,,,
,,,,,,,,,,,,0,3,3,3,1,fourth,5,21,Female,R,Donders,2021-07-11_13h56.54.761,ImageRatingTask_S5,2021.1.4,Win32,59.95922773,,,,,,,,,,,,,,,,,
,,,,,,,,,,,,0,4,4,4,1,fifth,5,21,Female,R,Donders,2021-07-11_13h56.54.761,ImageRatingTask_S5,2021.1.4,Win32,59.95922773,,,,,,,,,,,,,,,,,
,,,,,,,,,,,,0,5,5,5,1,sixth,5,21,Female,R,Donders,2021-07-11_13h56.54.761,ImageRatingTask_S5,2021.1.4,Win32,59.95922773,,,,,,,,,,,,,,,,,
,,,,,,,,,,,,0,6,6,6,1,seventh,5,21,Female,R,Donders,2021-07-11_13h56.54.761,ImageRatingTask_S5,2021.1.4,Win32,59.95922773,,,,,,,,,,,,,,,,,
,,,,,,,,,,,,0,7,7,7,1,last,5,21,Female,R,Donders,2021-07-11_13h56.54.761,ImageRatingTask_S5,2021.1.4,Win32,59.95922773,,,,,,,,,,,,,,,,,
,,,,,,,,,,,,,,,,,,5,21,Female,R,Donders,2021-07-11_13h56.54.761,ImageRatingTask_S5,2021.1.4,Win32,59.95922773,0,33,33,139,1,DreamStudyImages_rs1000x750g/Mammals/IAPS1630_deer.jpg,,,,,,,,,,,
,,5,1.949,5,0.1518,8,2.3596,1,2.8251,8,0.0662,0,0,0,0,1,main,5,21,Female,R,Donders,2021-07-11_13h56.54.761,ImageRatingTask_S5,2021.1.4,Win32,59.95922773,,,,,,,,,,,,,,,,,
,,,,,,,,,,,,0,1,1,1,1,second,5,21,Female,R,Donders,2021-07-11_13h56.54.761,ImageRatingTask_S5,2021.1.4,Win32,59.95922773,,,,,,,,,,,,,,,,,
,,,,,,,,,,,,0,2,2,2,1,third,5,21,Female,R,Donders,2021-07-11_13h56.54.761,ImageRatingTask_S5,2021.1.4,Win32,59.95922773,,,,,,,,,,,,,,,,,
,,,,,,,,,,,,0,3,3,3,1,fourth,5,21,Female,R,Donders,2021-07-11_13h56.54.761,ImageRatingTask_S5,2021.1.4,Win32,59.95922773,,,,,,,,,,,,,,,,,
,,,,,,,,,,,,0,4,4,4,1,fifth,5,21,Female,R,Donders,2021-07-11_13h56.54.761,ImageRatingTask_S5,2021.1.4,Win32,59.95922773,,,,,,,,,,,,,,,,,
,,,,,,,,,,,,0,5,5,5,1,sixth,5,21,Female,R,Donders,2021-07-11_13h56.54.761,ImageRatingTask_S5,2021.1.4,Win32,59.95922773,,,,,,,,,,,,,,,,,
,,,,,,,,,,,,0,6,6,6,1,seventh,5,21,Female,R,Donders,2021-07-11_13h56.54.761,ImageRatingTask_S5,2021.1.4,Win32,59.95922773,,,,,,,,,,,,,,,,,
,,,,,,,,,,,,0,7,7,7,1,last,5,21,Female,R,Donders,2021-07-11_13h56.54.761,ImageRatingTask_S5,2021.1.4,Win32,59.95922773,,,,,,,,,,,,,,,,,
,,,,,,,,,,,,,,,,,,5,21,Female,R,Donders,2021-07-11_13h56.54.761,ImageRatingTask_S5,2021.1.4,Win32,59.95922773,0,34,34,123,1,DreamStudyImages_rs1000x750g/Water/Bottle 1.jpg,,,,,,,,,,,
,,7,2.9051,7,1.6665,8,5.8025,1,0.9916,3,0.719,0,0,0,0,1,main,5,21,Female,R,Donders,2021-07-11_13h56.54.761,ImageRatingTask_S5,2021.1.4,Win32,59.95922773,,,,,,,,,,,,,,,,,
,,,,,,,,,,,,0,1,1,1,1,second,5,21,Female,R,Donders,2021-07-11_13h56.54.761,ImageRatingTask_S5,2021.1.4,Win32,59.95922773,,,,,,,,,,,,,,,,,
,,,,,,,,,,,,0,2,2,2,1,third,5,21,Female,R,Donders,2021-07-11_13h56.54.761,ImageRatingTask_S5,2021.1.4,Win32,59.95922773,,,,,,,,,,,,,,,,,
,,,,,,,,,,,,0,3,3,3,1,fourth,5,21,Female,R,Donders,2021-07-11_13h56.54.761,ImageRatingTask_S5,2021.1.4,Win32,59.95922773,,,,,,,,,,,,,,,,,
,,,,,,,,,,,,0,4,4,4,1,fifth,5,21,Female,R,Donders,2021-07-11_13h56.54.761,ImageRatingTask_S5,2021.1.4,Win32,59.95922773,,,,,,,,,,,,,,,,,
,,,,,,,,,,,,0,5,5,5,1,sixth,5,21,Female,R,Donders,2021-07-11_13h56.54.761,ImageRatingTask_S5,2021.1.4,Win32,59.95922773,,,,,,,,,,,,,,,,,
,,,,,,,,,,,,0,6,6,6,1,seventh,5,21,Female,R,Donders,2021-07-11_13h56.54.761,ImageRatingTask_S5,2021.1.4,Win32,59.95922773,,,,,,,,,,,,,,,,,
,,,,,,,,,,,,0,7,7,7,1,last,5,21,Female,R,Donders,2021-07-11_13h56.54.761,ImageRatingTask_S5,2021.1.4,Win32,59.95922773,,,,,,,,,,,,,,,,,
,,,,,,,,,,,,,,,,,,5,21,Female,R,Donders,2021-07-11_13h56.54.761,ImageRatingTask_S5,2021.1.4,Win32,59.95922773,0,35,35,72,1,DreamStudyImages_rs1000x750g/Mammals/Animals_009_v.jpg,,,,,,,,,,,
,,5,1.5094,5,0.5894,7,1.5742,1,0.6853,7,0.0377,0,0,0,0,1,main,5,21,Female,R,Donders,2021-07-11_13h56.54.761,ImageRatingTask_S5,2021.1.4,Win32,59.95922773,,,,,,,,,,,,,,,,,
,,,,,,,,,,,,0,1,1,1,1,second,5,21,Female,R,Donders,2021-07-11_13h56.54.761,ImageRatingTask_S5,2021.1.4,Win32,59.95922773,,,,,,,,,,,,,,,,,
,,,,,,,,,,,,0,2,2,2,1,third,5,21,Female,R,Donders,2021-07-11_13h56.54.761,ImageRatingTask_S5,2021.1.4,Win32,59.95922773,,,,,,,,,,,,,,,,,
,,,,,,,,,,,,0,3,3,3,1,fourth,5,21,Female,R,Donders,2021-07-11_13h56.54.761,ImageRatingTask_S5,2021.1.4,Win32,59.95922773,,,,,,,,,,,,,,,,,
,,,,,,,,,,,,0,4,4,4,1,fifth,5,21,Female,R,Donders,2021-07-11_13h56.54.761,ImageRatingTask_S5,2021.1.4,Win32,59.95922773,,,,,,,,,,,,,,,,,
,,,,,,,,,,,,0,5,5,5,1,sixth,5,21,Female,R,Donders,2021-07-11_13h56.54.761,ImageRatingTask_S5,2021.1.4,Win32,59.95922773,,,,,,,,,,,,,,,,,
,,,,,,,,,,,,0,6,6,6,1,seventh,5,21,Female,R,Donders,2021-07-11_13h56.54.761,ImageRatingTask_S5,2021.1.4,Win32,59.95922773,,,,,,,,,,,,,,,,,
,,,,,,,,,,,,0,7,7,7,1,last,5,21,Female,R,Donders,2021-07-11_13h56.54.761,ImageRatingTask_S5,2021.1.4,Win32,59.95922773,,,,,,,,,,,,,,,,,
,,,,,,,,,,,,,,,,,,5,21,Female,R,Donders,2021-07-11_13h56.54.761,ImageRatingTask_S5,2021.1.4,Win32,59.95922773,0,36,36,3,1,DreamStudyImages_rs1000x750g/Vehicles/trainwagon.jpg,,,,,,,,,,,
,,2,1.6774,5,1.577,7,2.8793,1,0.6671,7,0.0807,0,0,0,0,1,main,5,21,Female,R,Donders,2021-07-11_13h56.54.761,ImageRatingTask_S5,2021.1.4,Win32,59.95922773,,,,,,,,,,,,,,,,,
,,,,,,,,,,,,0,1,1,1,1,second,5,21,Female,R,Donders,2021-07-11_13h56.54.761,ImageRatingTask_S5,2021.1.4,Win32,59.95922773,,,,,,,,,,,,,,,,,
,,,,,,,,,,,,0,2,2,2,1,third,5,21,Female,R,Donders,2021-07-11_13h56.54.761,ImageRatingTask_S5,2021.1.4,Win32,59.95922773,,,,,,,,,,,,,,,,,
,,,,,,,,,,,,0,3,3,3,1,fourth,5,21,Female,R,Donders,2021-07-11_13h56.54.761,ImageRatingTask_S5,2021.1.4,Win32,59.95922773,,,,,,,,,,,,,,,,,
,,,,,,,,,,,,0,4,4,4,1,fifth,5,21,Female,R,Donders,2021-07-11_13h56.54.761,ImageRatingTask_S5,2021.1.4,Win32,59.95922773,,,,,,,,,,,,,,,,,
,,,,,,,,,,,,0,5,5,5,1,sixth,5,21,Female,R,Donders,2021-07-11_13h56.54.761,ImageRatingTask_S5,2021.1.4,Win32,59.95922773,,,,,,,,,,,,,,,,,
,,,,,,,,,,,,0,6,6,6,1,seventh,5,21,Female,R,Donders,2021-07-11_13h56.54.761,ImageRatingTask_S5,2021.1.4,Win32,59.95922773,,,,,,,,,,,,,,,,,
,,,,,,,,,,,,0,7,7,7,1,last,5,21,Female,R,Donders,2021-07-11_13h56.54.761,ImageRatingTask_S5,2021.1.4,Win32,59.95922773,,,,,,,,,,,,,,,,,
,,,,,,,,,,,,,,,,,,5,21,Female,R,Donders,2021-07-11_13h56.54.761,ImageRatingTask_S5,2021.1.4,Win32,59.95922773,0,37,37,37,1,DreamStudyImages_rs1000x750g/Vehicles/Objects_004_h.jpg,,,,,,,,,,,
,,5,1.4437,5,0.8285,9,2.0383,1,0.8043,2,0.0297,0,0,0,0,1,main,5,21,Female,R,Donders,2021-07-11_13h56.54.761,ImageRatingTask_S5,2021.1.4,Win32,59.95922773,,,,,,,,,,,,,,,,,
,,,,,,,,,,,,0,1,1,1,1,second,5,21,Female,R,Donders,2021-07-11_13h56.54.761,ImageRatingTask_S5,2021.1.4,Win32,59.95922773,,,,,,,,,,,,,,,,,
,,,,,,,,,,,,0,2,2,2,1,third,5,21,Female,R,Donders,2021-07-11_13h56.54.761,ImageRatingTask_S5,2021.1.4,Win32,59.95922773,,,,,,,,,,,,,,,,,
,,,,,,,,,,,,0,3,3,3,1,fourth,5,21,Female,R,Donders,2021-07-11_13h56.54.761,ImageRatingTask_S5,2021.1.4,Win32,59.95922773,,,,,,,,,,,,,,,,,
,,,,,,,,,,,,0,4,4,4,1,fifth,5,21,Female,R,Donders,2021-07-11_13h56.54.761,ImageRatingTask_S5,2021.1.4,Win32,59.95922773,,,,,,,,,,,,,,,,,
,,,,,,,,,,,,0,5,5,5,1,sixth,5,21,Female,R,Donders,2021-07-11_13h56.54.761,ImageRatingTask_S5,2021.1.4,Win32,59.95922773,,,,,,,,,,,,,,,,,
,,,,,,,,,,,,0,6,6,6,1,seventh,5,21,Female,R,Donders,2021-07-11_13h56.54.761,ImageRatingTask_S5,2021.1.4,Win32,59.95922773,,,,,,,,,,,,,,,,,
,,,,,,,,,,,,0,7,7,7,1,last,5,21,Female,R,Donders,2021-07-11_13h56.54.761,ImageRatingTask_S5,2021.1.4,Win32,59.95922773,,,,,,,,,,,,,,,,,
,,,,,,,,,,,,,,,,,,5,21,Female,R,Donders,2021-07-11_13h56.54.761,ImageRatingTask_S5,2021.1.4,Win32,59.95922773,0,38,38,97,1,DreamStudyImages_rs1000x750g/Children/Sad face 1.jpg,,,,,,,,,,,
,,4,2.2417,6,1.3336,7,2.6359,1,3.0309,5,0.3725,0,0,0,0,1,main,5,21,Female,R,Donders,2021-07-11_13h56.54.761,ImageRatingTask_S5,2021.1.4,Win32,59.95922773,,,,,,,,,,,,,,,,,
,,,,,,,,,,,,0,1,1,1,1,second,5,21,Female,R,Donders,2021-07-11_13h56.54.761,ImageRatingTask_S5,2021.1.4,Win32,59.95922773,,,,,,,,,,,,,,,,,
,,,,,,,,,,,,0,2,2,2,1,third,5,21,Female,R,Donders,2021-07-11_13h56.54.761,ImageRatingTask_S5,2021.1.4,Win32,59.95922773,,,,,,,,,,,,,,,,,
,,,,,,,,,,,,0,3,3,3,1,fourth,5,21,Female,R,Donders,2021-07-11_13h56.54.761,ImageRatingTask_S5,2021.1.4,Win32,59.95922773,,,,,,,,,,,,,,,,,
,,,,,,,,,,,,0,4,4,4,1,fifth,5,21,Female,R,Donders,2021-07-11_13h56.54.761,ImageRatingTask_S5,2021.1.4,Win32,59.95922773,,,,,,,,,,,,,,,,,
,,,,,,,,,,,,0,5,5,5,1,sixth,5,21,Female,R,Donders,2021-07-11_13h56.54.761,ImageRatingTask_S5,2021.1.4,Win32,59.95922773,,,,,,,,,,,,,,,,,
,,,,,,,,,,,,0,6,6,6,1,seventh,5,21,Female,R,Donders,2021-07-11_13h56.54.761,ImageRatingTask_S5,2021.1.4,Win32,59.95922773,,,,,,,,,,,,,,,,,
,,,,,,,,,,,,0,7,7,7,1,last,5,21,Female,R,Donders,2021-07-11_13h56.54.761,ImageRatingTask_S5,2021.1.4,Win32,59.95922773,,,,,,,,,,,,,,,,,
,,,,,,,,,,,,,,,,,,5,21,Female,R,Donders,2021-07-11_13h56.54.761,ImageRatingTask_S5,2021.1.4,Win32,59.95922773,0,39,39,55,1,DreamStudyImages_rs1000x750g/Food/Objects_106_v.jpg,,,,,,,,,,,
,,3,2.4449,7,2.0745,8,2.5042,1,1.3952,3,0.0665,0,0,0,0,1,main,5,21,Female,R,Donders,2021-07-11_13h56.54.761,ImageRatingTask_S5,2021.1.4,Win32,59.95922773,,,,,,,,,,,,,,,,,
,,,,,,,,,,,,0,1,1,1,1,second,5,21,Female,R,Donders,2021-07-11_13h56.54.761,ImageRatingTask_S5,2021.1.4,Win32,59.95922773,,,,,,,,,,,,,,,,,
,,,,,,,,,,,,0,2,2,2,1,third,5,21,Female,R,Donders,2021-07-11_13h56.54.761,ImageRatingTask_S5,2021.1.4,Win32,59.95922773,,,,,,,,,,,,,,,,,
,,,,,,,,,,,,0,3,3,3,1,fourth,5,21,Female,R,Donders,2021-07-11_13h56.54.761,ImageRatingTask_S5,2021.1.4,Win32,59.95922773,,,,,,,,,,,,,,,,,
,,,,,,,,,,,,0,4,4,4,1,fifth,5,21,Female,R,Donders,2021-07-11_13h56.54.761,ImageRatingTask_S5,2021.1.4,Win32,59.95922773,,,,,,,,,,,,,,,,,
,,,,,,,,,,,,0,5,5,5,1,sixth,5,21,Female,R,Donders,2021-07-11_13h56.54.761,ImageRatingTask_S5,2021.1.4,Win32,59.95922773,,,,,,,,,,,,,,,,,
,,,,,,,,,,,,0,6,6,6,1,seventh,5,21,Female,R,Donders,2021-07-11_13h56.54.761,ImageRatingTask_S5,2021.1.4,Win32,59.95922773,,,,,,,,,,,,,,,,,
,,,,,,,,,,,,0,7,7,7,1,last,5,21,Female,R,Donders,2021-07-11_13h56.54.761,ImageRatingTask_S5,2021.1.4,Win32,59.95922773,,,,,,,,,,,,,,,,,
,,,,,,,,,,,,,,,,,,5,21,Female,R,Donders,2021-07-11_13h56.54.761,ImageRatingTask_S5,2021.1.4,Win32,59.95922773,0,40,40,51,1,DreamStudyImages_rs1000x750g/Mammals/Animals_005_h.jpg,,,,,,,,,,,
,,2,19.2895,8,6.9064,5,6.8916,2,30.4786,4,5.6529,0,0,0,0,1,main,5,21,Female,R,Donders,2021-07-11_13h56.54.761,ImageRatingTask_S5,2021.1.4,Win32,59.95922773,,,,,,,,,,,,,,,,,
,,,,,,,,,,3,25.1738,0,1,1,1,1,second,5,21,Female,R,Donders,2021-07-11_13h56.54.761,ImageRatingTask_S5,2021.1.4,Win32,59.95922773,,,,,,,,,,,,,,,,,
,,,,,,,,,,,,0,2,2,2,1,third,5,21,Female,R,Donders,2021-07-11_13h56.54.761,ImageRatingTask_S5,2021.1.4,Win32,59.95922773,,,,,,,,,,,,,,,,,
,,,,,,,,,,,,0,3,3,3,1,fourth,5,21,Female,R,Donders,2021-07-11_13h56.54.761,ImageRatingTask_S5,2021.1.4,Win32,59.95922773,,,,,,,,,,,,,,,,,
,,,,,,,,,,,,0,4,4,4,1,fifth,5,21,Female,R,Donders,2021-07-11_13h56.54.761,ImageRatingTask_S5,2021.1.4,Win32,59.95922773,,,,,,,,,,,,,,,,,
,,,,,,,,,,,,0,5,5,5,1,sixth,5,21,Female,R,Donders,2021-07-11_13h56.54.761,ImageRatingTask_S5,2021.1.4,Win32,59.95922773,,,,,,,,,,,,,,,,,
,,,,,,,,,,,,0,6,6,6,1,seventh,5,21,Female,R,Donders,2021-07-11_13h56.54.761,ImageRatingTask_S5,2021.1.4,Win32,59.95922773,,,,,,,,,,,,,,,,,
,,,,,,,,,,,,0,7,7,7,1,last,5,21,Female,R,Donders,2021-07-11_13h56.54.761,ImageRatingTask_S5,2021.1.4,Win32,59.95922773,,,,,,,,,,,,,,,,,
,,,,,,,,,,,,,,,,,,5,21,Female,R,Donders,2021-07-11_13h56.54.761,ImageRatingTask_S5,2021.1.4,Win32,59.95922773,0,41,41,42,1,DreamStudyImages_rs1000x750g/Mammals/Cat 7.jpg,,,,,,,,,,,
,,5,38.9849,5,11.3532,7,10.0379,1,5.5346,6,1.7823,0,0,0,0,1,main,5,21,Female,R,Donders,2021-07-11_13h56.54.761,ImageRatingTask_S5,2021.1.4,Win32,59.95922773,,,,,,,,,,,,,,,,,
,,,,,,,,,,,,0,1,1,1,1,second,5,21,Female,R,Donders,2021-07-11_13h56.54.761,ImageRatingTask_S5,2021.1.4,Win32,59.95922773,,,,,,,,,,,,,,,,,
,,,,,,,,,,,,0,2,2,2,1,third,5,21,Female,R,Donders,2021-07-11_13h56.54.761,ImageRatingTask_S5,2021.1.4,Win32,59.95922773,,,,,,,,,,,,,,,,,
,,,,,,,,,,,,0,3,3,3,1,fourth,5,21,Female,R,Donders,2021-07-11_13h56.54.761,ImageRatingTask_S5,2021.1.4,Win32,59.95922773,,,,,,,,,,,,,,,,,
,,,,,,,,,,,,0,4,4,4,1,fifth,5,21,Female,R,Donders,2021-07-11_13h56.54.761,ImageRatingTask_S5,2021.1.4,Win32,59.95922773,,,,,,,,,,,,,,,,,
,,,,,,,,,,,,0,5,5,5,1,sixth,5,21,Female,R,Donders,2021-07-11_13h56.54.761,ImageRatingTask_S5,2021.1.4,Win32,59.95922773,,,,,,,,,,,,,,,,,
,,,,,,,,,,,,0,6,6,6,1,seventh,5,21,Female,R,Donders,2021-07-11_13h56.54.761,ImageRatingTask_S5,2021.1.4,Win32,59.95922773,,,,,,,,,,,,,,,,,
,,,,,,,,,,,,0,7,7,7,1,last,5,21,Female,R,Donders,2021-07-11_13h56.54.761,ImageRatingTask_S5,2021.1.4,Win32,59.95922773,,,,,,,,,,,,,,,,,
,,,,,,,,,,,,,,,,,,5,21,Female,R,Donders,2021-07-11_13h56.54.761,ImageRatingTask_S5,2021.1.4,Win32,59.95922773,0,42,42,17,1,DreamStudyImages_rs1000x750g/Houses/whitehouse.jpg,,,,,,,,,,,
,,7,11.2744,6,4.4806,6,18.8228,1,7.7775,8,1.2155,0,0,0,0,1,main,5,21,Female,R,Donders,2021-07-11_13h56.54.761,ImageRatingTask_S5,2021.1.4,Win32,59.95922773,,,,,,,,,,,,,,,,,
,,,,,,,,,,,,0,1,1,1,1,second,5,21,Female,R,Donders,2021-07-11_13h56.54.761,ImageRatingTask_S5,2021.1.4,Win32,59.95922773,,,,,,,,,,,,,,,,,
,,,,,,,,,,,,0,2,2,2,1,third,5,21,Female,R,Donders,2021-07-11_13h56.54.761,ImageRatingTask_S5,2021.1.4,Win32,59.95922773,,,,,,,,,,,,,,,,,
,,,,,,,,,,,,0,3,3,3,1,fourth,5,21,Female,R,Donders,2021-07-11_13h56.54.761,ImageRatingTask_S5,2021.1.4,Win32,59.95922773,,,,,,,,,,,,,,,,,
,,,,,,,,,,,,0,4,4,4,1,fifth,5,21,Female,R,Donders,2021-07-11_13h56.54.761,ImageRatingTask_S5,2021.1.4,Win32,59.95922773,,,,,,,,,,,,,,,,,
,,,,,,,,,,,,0,5,5,5,1,sixth,5,21,Female,R,Donders,2021-07-11_13h56.54.761,ImageRatingTask_S5,2021.1.4,Win32,59.95922773,,,,,,,,,,,,,,,,,
,,,,,,,,,,,,0,6,6,6,1,seventh,5,21,Female,R,Donders,2021-07-11_13h56.54.761,ImageRatingTask_S5,2021.1.4,Win32,59.95922773,,,,,,,,,,,,,,,,,
,,,,,,,,,,,,0,7,7,7,1,last,5,21,Female,R,Donders,2021-07-11_13h56.54.761,ImageRatingTask_S5,2021.1.4,Win32,59.95922773,,,,,,,,,,,,,,,,,
,,,,,,,,,,,,,,,,,,5,21,Female,R,Donders,2021-07-11_13h56.54.761,ImageRatingTask_S5,2021.1.4,Win32,59.95922773,0,43,43,141,1,DreamStudyImages_rs1000x750g/Water/sunsetlake.jpg,,,,,,,,,,,
,,6,14.3288,5,3.3434,8,4.9466,1,8.8727,5,1.1771,0,0,0,0,1,main,5,21,Female,R,Donders,2021-07-11_13h56.54.761,ImageRatingTask_S5,2021.1.4,Win32,59.95922773,,,,,,,,,,,,,,,,,
,,,,,,,,,,,,0,1,1,1,1,second,5,21,Female,R,Donders,2021-07-11_13h56.54.761,ImageRatingTask_S5,2021.1.4,Win32,59.95922773,,,,,,,,,,,,,,,,,
,,,,,,,,,,,,0,2,2,2,1,third,5,21,Female,R,Donders,2021-07-11_13h56.54.761,ImageRatingTask_S5,2021.1.4,Win32,59.95922773,,,,,,,,,,,,,,,,,
,,,,,,,,,,,,0,3,3,3,1,fourth,5,21,Female,R,Donders,2021-07-11_13h56.54.761,ImageRatingTask_S5,2021.1.4,Win32,59.95922773,,,,,,,,,,,,,,,,,
,,,,,,,,,,,,0,4,4,4,1,fifth,5,21,Female,R,Donders,2021-07-11_13h56.54.761,ImageRatingTask_S5,2021.1.4,Win32,59.95922773,,,,,,,,,,,,,,,,,
,,,,,,,,,,,,0,5,5,5,1,sixth,5,21,Female,R,Donders,2021-07-11_13h56.54.761,ImageRatingTask_S5,2021.1.4,Win32,59.95922773,,,,,,,,,,,,,,,,,
,,,,,,,,,,,,0,6,6,6,1,seventh,5,21,Female,R,Donders,2021-07-11_13h56.54.761,ImageRatingTask_S5,2021.1.4,Win32,59.95922773,,,,,,,,,,,,,,,,,
,,,,,,,,,,,,0,7,7,7,1,last,5,21,Female,R,Donders,2021-07-11_13h56.54.761,ImageRatingTask_S5,2021.1.4,Win32,59.95922773,,,,,,,,,,,,,,,,,
,,,,,,,,,,,,,,,,,,5,21,Female,R,Donders,2021-07-11_13h56.54.761,ImageRatingTask_S5,2021.1.4,Win32,59.95922773,0,44,44,105,1,DreamStudyImages_rs1000x750g/Food/Objects_052_h.jpg,,,,,,,,,,,
,,6,5.4441,5,2.7032,5,2.8686,1,21.3656,3,0.9605,0,0,0,0,1,main,5,21,Female,R,Donders,2021-07-11_13h56.54.761,ImageRatingTask_S5,2021.1.4,Win32,59.95922773,,,,,,,,,,,,,,,,,
,,,,,,,,,,,,0,1,1,1,1,second,5,21,Female,R,Donders,2021-07-11_13h56.54.761,ImageRatingTask_S5,2021.1.4,Win32,59.95922773,,,,,,,,,,,,,,,,,
,,,,,,,,,,,,0,2,2,2,1,third,5,21,Female,R,Donders,2021-07-11_13h56.54.761,ImageRatingTask_S5,2021.1.4,Win32,59.95922773,,,,,,,,,,,,,,,,,
,,,,,,,,,,,,0,3,3,3,1,fourth,5,21,Female,R,Donders,2021-07-11_13h56.54.761,ImageRatingTask_S5,2021.1.4,Win32,59.95922773,,,,,,,,,,,,,,,,,
,,,,,,,,,,,,0,4,4,4,1,fifth,5,21,Female,R,Donders,2021-07-11_13h56.54.761,ImageRatingTask_S5,2021.1.4,Win32,59.95922773,,,,,,,,,,,,,,,,,
,,,,,,,,,,,,0,5,5,5,1,sixth,5,21,Female,R,Donders,2021-07-11_13h56.54.761,ImageRatingTask_S5,2021.1.4,Win32,59.95922773,,,,,,,,,,,,,,,,,
,,,,,,,,,,,,0,6,6,6,1,seventh,5,21,Female,R,Donders,2021-07-11_13h56.54.761,ImageRatingTask_S5,2021.1.4,Win32,59.95922773,,,,,,,,,,,,,,,,,
,,,,,,,,,,,,0,7,7,7,1,last,5,21,Female,R,Donders,2021-07-11_13h56.54.761,ImageRatingTask_S5,2021.1.4,Win32,59.95922773,,,,,,,,,,,,,,,,,
,,,,,,,,,,,,,,,,,,5,21,Female,R,Donders,2021-07-11_13h56.54.761,ImageRatingTask_S5,2021.1.4,Win32,59.95922773,0,45,45,11,1,DreamStudyImages_rs1000x750g/Mammals/Meerkat 1.jpg,,,,,,,,,,,
,,5,14.9926,5,1.2387,7,7.4707,0,16.3596,,,0,0,0,0,1,main,5,21,Female,R,Donders,2021-07-11_13h56.54.761,ImageRatingTask_S5,2021.1.4,Win32,59.95922773,,,,,,,,,,,,,,,,,
,,,,,,,,,,,,0,1,1,1,1,second,5,21,Female,R,Donders,2021-07-11_13h56.54.761,ImageRatingTask_S5,2021.1.4,Win32,59.95922773,,,,,,,,,,,,,,,,,
,,,,,,,,,,,,0,2,2,2,1,third,5,21,Female,R,Donders,2021-07-11_13h56.54.761,ImageRatingTask_S5,2021.1.4,Win32,59.95922773,,,,,,,,,,,,,,,,,
,,,,,,,,,,,,0,3,3,3,1,fourth,5,21,Female,R,Donders,2021-07-11_13h56.54.761,ImageRatingTask_S5,2021.1.4,Win32,59.95922773,,,,,,,,,,,,,,,,,
,,,,,,,,,,,,0,4,4,4,1,fifth,5,21,Female,R,Donders,2021-07-11_13h56.54.761,ImageRatingTask_S5,2021.1.4,Win32,59.95922773,,,,,,,,,,,,,,,,,
,,,,,,,,,,,,0,5,5,5,1,sixth,5,21,Female,R,Donders,2021-07-11_13h56.54.761,ImageRatingTask_S5,2021.1.4,Win32,59.95922773,,,,,,,,,,,,,,,,,
,,,,,,,,,,,,0,6,6,6,1,seventh,5,21,Female,R,Donders,2021-07-11_13h56.54.761,ImageRatingTask_S5,2021.1.4,Win32,59.95922773,,,,,,,,,,,,,,,,,
,,,,,,,,,,,,0,7,7,7,1,last,5,21,Female,R,Donders,2021-07-11_13h56.54.761,ImageRatingTask_S5,2021.1.4,Win32,59.95922773,,,,,,,,,,,,,,,,,
,,,,,,,,,,,,,,,,,,5,21,Female,R,Donders,2021-07-11_13h56.54.761,ImageRatingTask_S5,2021.1.4,Win32,59.95922773,0,46,46,25,1,DreamStudyImages_rs1000x750g/Food/Objects_079_h.jpg,,,,,,,,,,,
,,4,7.0207,5,1.9853,8,6.3866,1,2.6376,5,1.0041,0,0,0,0,1,main,5,21,Female,R,Donders,2021-07-11_13h56.54.761,ImageRatingTask_S5,2021.1.4,Win32,59.95922773,,,,,,,,,,,,,,,,,
,,,,,,,,,,,,0,1,1,1,1,second,5,21,Female,R,Donders,2021-07-11_13h56.54.761,ImageRatingTask_S5,2021.1.4,Win32,59.95922773,,,,,,,,,,,,,,,,,
,,,,,,,,,,,,0,2,2,2,1,third,5,21,Female,R,Donders,2021-07-11_13h56.54.761,ImageRatingTask_S5,2021.1.4,Win32,59.95922773,,,,,,,,,,,,,,,,,
,,,,,,,,,,,,0,3,3,3,1,fourth,5,21,Female,R,Donders,2021-07-11_13h56.54.761,ImageRatingTask_S5,2021.1.4,Win32,59.95922773,,,,,,,,,,,,,,,,,
,,,,,,,,,,,,0,4,4,4,1,fifth,5,21,Female,R,Donders,2021-07-11_13h56.54.761,ImageRatingTask_S5,2021.1.4,Win32,59.95922773,,,,,,,,,,,,,,,,,
,,,,,,,,,,,,0,5,5,5,1,sixth,5,21,Female,R,Donders,2021-07-11_13h56.54.761,ImageRatingTask_S5,2021.1.4,Win32,59.95922773,,,,,,,,,,,,,,,,,
,,,,,,,,,,,,0,6,6,6,1,seventh,5,21,Female,R,Donders,2021-07-11_13h56.54.761,ImageRatingTask_S5,2021.1.4,Win32,59.95922773,,,,,,,,,,,,,,,,,
,,,,,,,,,,,,0,7,7,7,1,last,5,21,Female,R,Donders,2021-07-11_13h56.54.761,ImageRatingTask_S5,2021.1.4,Win32,59.95922773,,,,,,,,,,,,,,,,,
,,,,,,,,,,,,,,,,,,5,21,Female,R,Donders,2021-07-11_13h56.54.761,ImageRatingTask_S5,2021.1.4,Win32,59.95922773,0,47,47,112,1,DreamStudyImages_rs1000x750g/Food/Objects_030_v.jpg,,,,,,,,,,,
,,3,3.5231,5,1.2403,8,9.2743,1,1.6989,5,0.7763,0,0,0,0,1,main,5,21,Female,R,Donders,2021-07-11_13h56.54.761,ImageRatingTask_S5,2021.1.4,Win32,59.95922773,,,,,,,,,,,,,,,,,
,,,,,,,,,,,,0,1,1,1,1,second,5,21,Female,R,Donders,2021-07-11_13h56.54.761,ImageRatingTask_S5,2021.1.4,Win32,59.95922773,,,,,,,,,,,,,,,,,
,,,,,,,,,,,,0,2,2,2,1,third,5,21,Female,R,Donders,2021-07-11_13h56.54.761,ImageRatingTask_S5,2021.1.4,Win32,59.95922773,,,,,,,,,,,,,,,,,
,,,,,,,,,,,,0,3,3,3,1,fourth,5,21,Female,R,Donders,2021-07-11_13h56.54.761,ImageRatingTask_S5,2021.1.4,Win32,59.95922773,,,,,,,,,,,,,,,,,
,,,,,,,,,,,,0,4,4,4,1,fifth,5,21,Female,R,Donders,2021-07-11_13h56.54.761,ImageRatingTask_S5,2021.1.4,Win32,59.95922773,,,,,,,,,,,,,,,,,
,,,,,,,,,,,,0,5,5,5,1,sixth,5,21,Female,R,Donders,2021-07-11_13h56.54.761,ImageRatingTask_S5,2021.1.4,Win32,59.95922773,,,,,,,,,,,,,,,,,
,,,,,,,,,,,,0,6,6,6,1,seventh,5,21,Female,R,Donders,2021-07-11_13h56.54.761,ImageRatingTask_S5,2021.1.4,Win32,59.95922773,,,,,,,,,,,,,,,,,
,,,,,,,,,,,,0,7,7,7,1,last,5,21,Female,R,Donders,2021-07-11_13h56.54.761,ImageRatingTask_S5,2021.1.4,Win32,59.95922773,,,,,,,,,,,,,,,,,
,,,,,,,,,,,,,,,,,,5,21,Female,R,Donders,2021-07-11_13h56.54.761,ImageRatingTask_S5,2021.1.4,Win32,59.95922773,0,48,48,114,1,DreamStudyImages_rs1000x750g/Food/Objects_072_v.jpg,,,,,,,,,,,
,,5,4.175,5,1.3256,8,5.3797,1,6.4184,3,1.6537,0,0,0,0,1,main,5,21,Female,R,Donders,2021-07-11_13h56.54.761,ImageRatingTask_S5,2021.1.4,Win32,59.95922773,,,,,,,,,,,,,,,,,
,,,,,,,,,,,,0,1,1,1,1,second,5,21,Female,R,Donders,2021-07-11_13h56.54.761,ImageRatingTask_S5,2021.1.4,Win32,59.95922773,,,,,,,,,,,,,,,,,
,,,,,,,,,,,,0,2,2,2,1,third,5,21,Female,R,Donders,2021-07-11_13h56.54.761,ImageRatingTask_S5,2021.1.4,Win32,59.95922773,,,,,,,,,,,,,,,,,
,,,,,,,,,,,,0,3,3,3,1,fourth,5,21,Female,R,Donders,2021-07-11_13h56.54.761,ImageRatingTask_S5,2021.1.4,Win32,59.95922773,,,,,,,,,,,,,,,,,
,,,,,,,,,,,,0,4,4,4,1,fifth,5,21,Female,R,Donders,2021-07-11_13h56.54.761,ImageRatingTask_S5,2021.1.4,Win32,59.95922773,,,,,,,,,,,,,,,,,
,,,,,,,,,,,,0,5,5,5,1,sixth,5,21,Female,R,Donders,2021-07-11_13h56.54.761,ImageRatingTask_S5,2021.1.4,Win32,59.95922773,,,,,,,,,,,,,,,,,
,,,,,,,,,,,,0,6,6,6,1,seventh,5,21,Female,R,Donders,2021-07-11_13h56.54.761,ImageRatingTask_S5,2021.1.4,Win32,59.95922773,,,,,,,,,,,,,,,,,
,,,,,,,,,,,,0,7,7,7,1,last,5,21,Female,R,Donders,2021-07-11_13h56.54.761,ImageRatingTask_S5,2021.1.4,Win32,59.95922773,,,,,,,,,,,,,,,,,
,,,,,,,,,,,,,,,,,,5,21,Female,R,Donders,2021-07-11_13h56.54.761,ImageRatingTask_S5,2021.1.4,Win32,59.95922773,0,49,49,62,1,DreamStudyImages_rs1000x750g/Mammals/Animals_122_h.jpg,,,,,,,,,,,
,,3,7.7324,6,5.136,6,3.5049,1,5.5214,2,0.6042,0,0,0,0,1,main,5,21,Female,R,Donders,2021-07-11_13h56.54.761,ImageRatingTask_S5,2021.1.4,Win32,59.95922773,,,,,,,,,,,,,,,,,
,,,,,,,,,,,,0,1,1,1,1,second,5,21,Female,R,Donders,2021-07-11_13h56.54.761,ImageRatingTask_S5,2021.1.4,Win32,59.95922773,,,,,,,,,,,,,,,,,
,,,,,,,,,,,,0,2,2,2,1,third,5,21,Female,R,Donders,2021-07-11_13h56.54.761,ImageRatingTask_S5,2021.1.4,Win32,59.95922773,,,,,,,,,,,,,,,,,
,,,,,,,,,,,,0,3,3,3,1,fourth,5,21,Female,R,Donders,2021-07-11_13h56.54.761,ImageRatingTask_S5,2021.1.4,Win32,59.95922773,,,,,,,,,,,,,,,,,
,,,,,,,,,,,,0,4,4,4,1,fifth,5,21,Female,R,Donders,2021-07-11_13h56.54.761,ImageRatingTask_S5,2021.1.4,Win32,59.95922773,,,,,,,,,,,,,,,,,
,,,,,,,,,,,,0,5,5,5,1,sixth,5,21,Female,R,Donders,2021-07-11_13h56.54.761,ImageRatingTask_S5,2021.1.4,Win32,59.95922773,,,,,,,,,,,,,,,,,
,,,,,,,,,,,,0,6,6,6,1,seventh,5,21,Female,R,Donders,2021-07-11_13h56.54.761,ImageRatingTask_S5,2021.1.4,Win32,59.95922773,,,,,,,,,,,,,,,,,
,,,,,,,,,,,,0,7,7,7,1,last,5,21,Female,R,Donders,2021-07-11_13h56.54.761,ImageRatingTask_S5,2021.1.4,Win32,59.95922773,,,,,,,,,,,,,,,,,
,,,,,,,,,,,,,,,,,,5,21,Female,R,Donders,2021-07-11_13h56.54.761,ImageRatingTask_S5,2021.1.4,Win32,59.95922773,0,50,50,136,1,DreamStudyImages_rs1000x750g/Children/IAPS3301_babyaccident2.jpg,,,,,,,,,,,
,,8,6.4197,3,6.0762,8,5.7686,1,2.5386,8,0.7286,0,0,0,0,1,main,5,21,Female,R,Donders,2021-07-11_13h56.54.761,ImageRatingTask_S5,2021.1.4,Win32,59.95922773,,,,,,,,,,,,,,,,,
,,,,,,,,,,,,0,1,1,1,1,second,5,21,Female,R,Donders,2021-07-11_13h56.54.761,ImageRatingTask_S5,2021.1.4,Win32,59.95922773,,,,,,,,,,,,,,,,,
,,,,,,,,,,,,0,2,2,2,1,third,5,21,Female,R,Donders,2021-07-11_13h56.54.761,ImageRatingTask_S5,2021.1.4,Win32,59.95922773,,,,,,,,,,,,,,,,,
,,,,,,,,,,,,0,3,3,3,1,fourth,5,21,Female,R,Donders,2021-07-11_13h56.54.761,ImageRatingTask_S5,2021.1.4,Win32,59.95922773,,,,,,,,,,,,,,,,,
,,,,,,,,,,,,0,4,4,4,1,fifth,5,21,Female,R,Donders,2021-07-11_13h56.54.761,ImageRatingTask_S5,2021.1.4,Win32,59.95922773,,,,,,,,,,,,,,,,,
,,,,,,,,,,,,0,5,5,5,1,sixth,5,21,Female,R,Donders,2021-07-11_13h56.54.761,ImageRatingTask_S5,2021.1.4,Win32,59.95922773,,,,,,,,,,,,,,,,,
,,,,,,,,,,,,0,6,6,6,1,seventh,5,21,Female,R,Donders,2021-07-11_13h56.54.761,ImageRatingTask_S5,2021.1.4,Win32,59.95922773,,,,,,,,,,,,,,,,,
,,,,,,,,,,,,0,7,7,7,1,last,5,21,Female,R,Donders,2021-07-11_13h56.54.761,ImageRatingTask_S5,2021.1.4,Win32,59.95922773,,,,,,,,,,,,,,,,,
,,,,,,,,,,,,,,,,,,5,21,Female,R,Donders,2021-07-11_13h56.54.761,ImageRatingTask_S5,2021.1.4,Win32,59.95922773,0,51,51,146,1,DreamStudyImages_rs1000x750g/Water/5825.jpg,,,,,,,,,,,
,,5,4.2478,5,1.0765,7,1.6303,1,1.745,2,0.2687,0,0,0,0,1,main,5,21,Female,R,Donders,2021-07-11_13h56.54.761,ImageRatingTask_S5,2021.1.4,Win32,59.95922773,,,,,,,,,,,,,,,,,
,,,,,,,,,,,,0,1,1,1,1,second,5,21,Female,R,Donders,2021-07-11_13h56.54.761,ImageRatingTask_S5,2021.1.4,Win32,59.95922773,,,,,,,,,,,,,,,,,
,,,,,,,,,,,,0,2,2,2,1,third,5,21,Female,R,Donders,2021-07-11_13h56.54.761,ImageRatingTask_S5,2021.1.4,Win32,59.95922773,,,,,,,,,,,,,,,,,
,,,,,,,,,,,,0,3,3,3,1,fourth,5,21,Female,R,Donders,2021-07-11_13h56.54.761,ImageRatingTask_S5,2021.1.4,Win32,59.95922773,,,,,,,,,,,,,,,,,
,,,,,,,,,,,,0,4,4,4,1,fifth,5,21,Female,R,Donders,2021-07-11_13h56.54.761,ImageRatingTask_S5,2021.1.4,Win32,59.95922773,,,,,,,,,,,,,,,,,
,,,,,,,,,,,,0,5,5,5,1,sixth,5,21,Female,R,Donders,2021-07-11_13h56.54.761,ImageRatingTask_S5,2021.1.4,Win32,59.95922773,,,,,,,,,,,,,,,,,
,,,,,,,,,,,,0,6,6,6,1,seventh,5,21,Female,R,Donders,2021-07-11_13h56.54.761,ImageRatingTask_S5,2021.1.4,Win32,59.95922773,,,,,,,,,,,,,,,,,
,,,,,,,,,,,,0,7,7,7,1,last,5,21,Female,R,Donders,2021-07-11_13h56.54.761,ImageRatingTask_S5,2021.1.4,Win32,59.95922773,,,,,,,,,,,,,,,,,
,,,,,,,,,,,,,,,,,,5,21,Female,R,Donders,2021-07-11_13h56.54.761,ImageRatingTask_S5,2021.1.4,Win32,59.95922773,0,52,52,144,1,DreamStudyImages_rs1000x750g/Children/IAPS2341_children9.jpg,,,,,,,,,,,
,,5,7.4367,5,0.7742,8,4.2331,1,1.44,5,0.8004,0,0,0,0,1,main,5,21,Female,R,Donders,2021-07-11_13h56.54.761,ImageRatingTask_S5,2021.1.4,Win32,59.95922773,,,,,,,,,,,,,,,,,
,,,,,,,,,,,,0,1,1,1,1,second,5,21,Female,R,Donders,2021-07-11_13h56.54.761,ImageRatingTask_S5,2021.1.4,Win32,59.95922773,,,,,,,,,,,,,,,,,
,,,,,,,,,,,,0,2,2,2,1,third,5,21,Female,R,Donders,2021-07-11_13h56.54.761,ImageRatingTask_S5,2021.1.4,Win32,59.95922773,,,,,,,,,,,,,,,,,
,,,,,,,,,,,,0,3,3,3,1,fourth,5,21,Female,R,Donders,2021-07-11_13h56.54.761,ImageRatingTask_S5,2021.1.4,Win32,59.95922773,,,,,,,,,,,,,,,,,
,,,,,,,,,,,,0,4,4,4,1,fifth,5,21,Female,R,Donders,2021-07-11_13h56.54.761,ImageRatingTask_S5,2021.1.4,Win32,59.95922773,,,,,,,,,,,,,,,,,
,,,,,,,,,,,,0,5,5,5,1,sixth,5,21,Female,R,Donders,2021-07-11_13h56.54.761,ImageRatingTask_S5,2021.1.4,Win32,59.95922773,,,,,,,,,,,,,,,,,
,,,,,,,,,,,,0,6,6,6,1,seventh,5,21,Female,R,Donders,2021-07-11_13h56.54.761,ImageRatingTask_S5,2021.1.4,Win32,59.95922773,,,,,,,,,,,,,,,,,
,,,,,,,,,,,,0,7,7,7,1,last,5,21,Female,R,Donders,2021-07-11_13h56.54.761,ImageRatingTask_S5,2021.1.4,Win32,59.95922773,,,,,,,,,,,,,,,,,
,,,,,,,,,,,,,,,,,,5,21,Female,R,Donders,2021-07-11_13h56.54.761,ImageRatingTask_S5,2021.1.4,Win32,59.95922773,0,53,53,138,1,DreamStudyImages_rs1000x750g/Food/Dessert 7.jpg,,,,,,,,,,,
,,4,4.2936,5,3.3904,7,1.7225,1,1.3109,2,0.239,0,0,0,0,1,main,5,21,Female,R,Donders,2021-07-11_13h56.54.761,ImageRatingTask_S5,2021.1.4,Win32,59.95922773,,,,,,,,,,,,,,,,,
,,,,,,,,,,,,0,1,1,1,1,second,5,21,Female,R,Donders,2021-07-11_13h56.54.761,ImageRatingTask_S5,2021.1.4,Win32,59.95922773,,,,,,,,,,,,,,,,,
,,,,,,,,,,,,0,2,2,2,1,third,5,21,Female,R,Donders,2021-07-11_13h56.54.761,ImageRatingTask_S5,2021.1.4,Win32,59.95922773,,,,,,,,,,,,,,,,,
,,,,,,,,,,,,0,3,3,3,1,fourth,5,21,Female,R,Donders,2021-07-11_13h56.54.761,ImageRatingTask_S5,2021.1.4,Win32,59.95922773,,,,,,,,,,,,,,,,,
,,,,,,,,,,,,0,4,4,4,1,fifth,5,21,Female,R,Donders,2021-07-11_13h56.54.761,ImageRatingTask_S5,2021.1.4,Win32,59.95922773,,,,,,,,,,,,,,,,,
,,,,,,,,,,,,0,5,5,5,1,sixth,5,21,Female,R,Donders,2021-07-11_13h56.54.761,ImageRatingTask_S5,2021.1.4,Win32,59.95922773,,,,,,,,,,,,,,,,,
,,,,,,,,,,,,0,6,6,6,1,seventh,5,21,Female,R,Donders,2021-07-11_13h56.54.761,ImageRatingTask_S5,2021.1.4,Win32,59.95922773,,,,,,,,,,,,,,,,,
,,,,,,,,,,,,0,7,7,7,1,last,5,21,Female,R,Donders,2021-07-11_13h56.54.761,ImageRatingTask_S5,2021.1.4,Win32,59.95922773,,,,,,,,,,,,,,,,,
,,,,,,,,,,,,,,,,,,5,21,Female,R,Donders,2021-07-11_13h56.54.761,ImageRatingTask_S5,2021.1.4,Win32,59.95922773,0,54,54,85,1,DreamStudyImages_rs1000x750g/Children/Miserable face 2.jpg,,,,,,,,,,,
,,7,8.4874,5,1.9826,8,2.6755,1,4.2662,3,1.4292,0,0,0,0,1,main,5,21,Female,R,Donders,2021-07-11_13h56.54.761,ImageRatingTask_S5,2021.1.4,Win32,59.95922773,,,,,,,,,,,,,,,,,
,,,,,,,,,,,,0,1,1,1,1,second,5,21,Female,R,Donders,2021-07-11_13h56.54.761,ImageRatingTask_S5,2021.1.4,Win32,59.95922773,,,,,,,,,,,,,,,,,
,,,,,,,,,,,,0,2,2,2,1,third,5,21,Female,R,Donders,2021-07-11_13h56.54.761,ImageRatingTask_S5,2021.1.4,Win32,59.95922773,,,,,,,,,,,,,,,,,
,,,,,,,,,,,,0,3,3,3,1,fourth,5,21,Female,R,Donders,2021-07-11_13h56.54.761,ImageRatingTask_S5,2021.1.4,Win32,59.95922773,,,,,,,,,,,,,,,,,
,,,,,,,,,,,,0,4,4,4,1,fifth,5,21,Female,R,Donders,2021-07-11_13h56.54.761,ImageRatingTask_S5,2021.1.4,Win32,59.95922773,,,,,,,,,,,,,,,,,
,,,,,,,,,,,,0,5,5,5,1,sixth,5,21,Female,R,Donders,2021-07-11_13h56.54.761,ImageRatingTask_S5,2021.1.4,Win32,59.95922773,,,,,,,,,,,,,,,,,
,,,,,,,,,,,,0,6,6,6,1,seventh,5,21,Female,R,Donders,2021-07-11_13h56.54.761,ImageRatingTask_S5,2021.1.4,Win32,59.95922773,,,,,,,,,,,,,,,,,
,,,,,,,,,,,,0,7,7,7,1,last,5,21,Female,R,Donders,2021-07-11_13h56.54.761,ImageRatingTask_S5,2021.1.4,Win32,59.95922773,,,,,,,,,,,,,,,,,
,,,,,,,,,,,,,,,,,,5,21,Female,R,Donders,2021-07-11_13h56.54.761,ImageRatingTask_S5,2021.1.4,Win32,59.95922773,0,55,55,24,1,DreamStudyImages_rs1000x750g/Mammals/Animals_137_h.jpg,,,,,,,,,,,
,,5,8.1274,6,8.7905,5,6.7051,1,2.3625,8,0.6808,0,0,0,0,1,main,5,21,Female,R,Donders,2021-07-11_13h56.54.761,ImageRatingTask_S5,2021.1.4,Win32,59.95922773,,,,,,,,,,,,,,,,,
,,,,,,,,,,,,0,1,1,1,1,second,5,21,Female,R,Donders,2021-07-11_13h56.54.761,ImageRatingTask_S5,2021.1.4,Win32,59.95922773,,,,,,,,,,,,,,,,,
,,,,,,,,,,,,0,2,2,2,1,third,5,21,Female,R,Donders,2021-07-11_13h56.54.761,ImageRatingTask_S5,2021.1.4,Win32,59.95922773,,,,,,,,,,,,,,,,,
,,,,,,,,,,,,0,3,3,3,1,fourth,5,21,Female,R,Donders,2021-07-11_13h56.54.761,ImageRatingTask_S5,2021.1.4,Win32,59.95922773,,,,,,,,,,,,,,,,,
,,,,,,,,,,,,0,4,4,4,1,fifth,5,21,Female,R,Donders,2021-07-11_13h56.54.761,ImageRatingTask_S5,2021.1.4,Win32,59.95922773,,,,,,,,,,,,,,,,,
,,,,,,,,,,,,0,5,5,5,1,sixth,5,21,Female,R,Donders,2021-07-11_13h56.54.761,ImageRatingTask_S5,2021.1.4,Win32,59.95922773,,,,,,,,,,,,,,,,,
,,,,,,,,,,,,0,6,6,6,1,seventh,5,21,Female,R,Donders,2021-07-11_13h56.54.761,ImageRatingTask_S5,2021.1.4,Win32,59.95922773,,,,,,,,,,,,,,,,,
,,,,,,,,,,,,0,7,7,7,1,last,5,21,Female,R,Donders,2021-07-11_13h56.54.761,ImageRatingTask_S5,2021.1.4,Win32,59.95922773,,,,,,,,,,,,,,,,,
,,,,,,,,,,,,,,,,,,5,21,Female,R,Donders,2021-07-11_13h56.54.761,ImageRatingTask_S5,2021.1.4,Win32,59.95922773,0,56,56,151,1,DreamStudyImages_rs1000x750g/Water/Lake 15.jpg,,,,,,,,,,,
,,4,5.018,6,3.8261,8,4.543,1,1.9841,3,0.8349,0,0,0,0,1,main,5,21,Female,R,Donders,2021-07-11_13h56.54.761,ImageRatingTask_S5,2021.1.4,Win32,59.95922773,,,,,,,,,,,,,,,,,
,,,,,,,,,,,,0,1,1,1,1,second,5,21,Female,R,Donders,2021-07-11_13h56.54.761,ImageRatingTask_S5,2021.1.4,Win32,59.95922773,,,,,,,,,,,,,,,,,
,,,,,,,,,,,,0,2,2,2,1,third,5,21,Female,R,Donders,2021-07-11_13h56.54.761,ImageRatingTask_S5,2021.1.4,Win32,59.95922773,,,,,,,,,,,,,,,,,
,,,,,,,,,,,,0,3,3,3,1,fourth,5,21,Female,R,Donders,2021-07-11_13h56.54.761,ImageRatingTask_S5,2021.1.4,Win32,59.95922773,,,,,,,,,,,,,,,,,
,,,,,,,,,,,,0,4,4,4,1,fifth,5,21,Female,R,Donders,2021-07-11_13h56.54.761,ImageRatingTask_S5,2021.1.4,Win32,59.95922773,,,,,,,,,,,,,,,,,
,,,,,,,,,,,,0,5,5,5,1,sixth,5,21,Female,R,Donders,2021-07-11_13h56.54.761,ImageRatingTask_S5,2021.1.4,Win32,59.95922773,,,,,,,,,,,,,,,,,
,,,,,,,,,,,,0,6,6,6,1,seventh,5,21,Female,R,Donders,2021-07-11_13h56.54.761,ImageRatingTask_S5,2021.1.4,Win32,59.95922773,,,,,,,,,,,,,,,,,
,,,,,,,,,,,,0,7,7,7,1,last,5,21,Female,R,Donders,2021-07-11_13h56.54.761,ImageRatingTask_S5,2021.1.4,Win32,59.95922773,,,,,,,,,,,,,,,,,
,,,,,,,,,,,,,,,,,,5,21,Female,R,Donders,2021-07-11_13h56.54.761,ImageRatingTask_S5,2021.1.4,Win32,59.95922773,0,57,57,35,1,DreamStudyImages_rs1000x750g/Mammals/Animals_083_h.jpg,,,,,,,,,,,
,,3,11.1881,5,1.4864,8,5.1694,1,1.6045,6,0.8024,0,0,0,0,1,main,5,21,Female,R,Donders,2021-07-11_13h56.54.761,ImageRatingTask_S5,2021.1.4,Win32,59.95922773,,,,,,,,,,,,,,,,,
,,,,,,,,,,,,0,1,1,1,1,second,5,21,Female,R,Donders,2021-07-11_13h56.54.761,ImageRatingTask_S5,2021.1.4,Win32,59.95922773,,,,,,,,,,,,,,,,,
,,,,,,,,,,,,0,2,2,2,1,third,5,21,Female,R,Donders,2021-07-11_13h56.54.761,ImageRatingTask_S5,2021.1.4,Win32,59.95922773,,,,,,,,,,,,,,,,,
,,,,,,,,,,,,0,3,3,3,1,fourth,5,21,Female,R,Donders,2021-07-11_13h56.54.761,ImageRatingTask_S5,2021.1.4,Win32,59.95922773,,,,,,,,,,,,,,,,,
,,,,,,,,,,,,0,4,4,4,1,fifth,5,21,Female,R,Donders,2021-07-11_13h56.54.761,ImageRatingTask_S5,2021.1.4,Win32,59.95922773,,,,,,,,,,,,,,,,,
,,,,,,,,,,,,0,5,5,5,1,sixth,5,21,Female,R,Donders,2021-07-11_13h56.54.761,ImageRatingTask_S5,2021.1.4,Win32,59.95922773,,,,,,,,,,,,,,,,,
,,,,,,,,,,,,0,6,6,6,1,seventh,5,21,Female,R,Donders,2021-07-11_13h56.54.761,ImageRatingTask_S5,2021.1.4,Win32,59.95922773,,,,,,,,,,,,,,,,,
,,,,,,,,,,,,0,7,7,7,1,last,5,21,Female,R,Donders,2021-07-11_13h56.54.761,ImageRatingTask_S5,2021.1.4,Win32,59.95922773,,,,,,,,,,,,,,,,,
,,,,,,,,,,,,,,,,,,5,21,Female,R,Donders,2021-07-11_13h56.54.761,ImageRatingTask_S5,2021.1.4,Win32,59.95922773,0,58,58,40,1,DreamStudyImages_rs1000x750g/Houses/Landscapes_092_h.jpg,,,,,,,,,,,
,,4,6.3279,5,1.52,4,2.0405,1,2.6984,7,0.7985,0,0,0,0,1,main,5,21,Female,R,Donders,2021-07-11_13h56.54.761,ImageRatingTask_S5,2021.1.4,Win32,59.95922773,,,,,,,,,,,,,,,,,
,,,,,,,,,,,,0,1,1,1,1,second,5,21,Female,R,Donders,2021-07-11_13h56.54.761,ImageRatingTask_S5,2021.1.4,Win32,59.95922773,,,,,,,,,,,,,,,,,
,,,,,,,,,,,,0,2,2,2,1,third,5,21,Female,R,Donders,2021-07-11_13h56.54.761,ImageRatingTask_S5,2021.1.4,Win32,59.95922773,,,,,,,,,,,,,,,,,
,,,,,,,,,,,,0,3,3,3,1,fourth,5,21,Female,R,Donders,2021-07-11_13h56.54.761,ImageRatingTask_S5,2021.1.4,Win32,59.95922773,,,,,,,,,,,,,,,,,
,,,,,,,,,,,,0,4,4,4,1,fifth,5,21,Female,R,Donders,2021-07-11_13h56.54.761,ImageRatingTask_S5,2021.1.4,Win32,59.95922773,,,,,,,,,,,,,,,,,
,,,,,,,,,,,,0,5,5,5,1,sixth,5,21,Female,R,Donders,2021-07-11_13h56.54.761,ImageRatingTask_S5,2021.1.4,Win32,59.95922773,,,,,,,,,,,,,,,,,
,,,,,,,,,,,,0,6,6,6,1,seventh,5,21,Female,R,Donders,2021-07-11_13h56.54.761,ImageRatingTask_S5,2021.1.4,Win32,59.95922773,,,,,,,,,,,,,,,,,
,,,,,,,,,,,,0,7,7,7,1,last,5,21,Female,R,Donders,2021-07-11_13h56.54.761,ImageRatingTask_S5,2021.1.4,Win32,59.95922773,,,,,,,,,,,,,,,,,
,,,,,,,,,,,,,,,,,,5,21,Female,R,Donders,2021-07-11_13h56.54.761,ImageRatingTask_S5,2021.1.4,Win32,59.95922773,0,59,59,109,1,DreamStudyImages_rs1000x750g/Vehicles/IAPS9090_car3.jpg,,,,,,,,,,,
,,5,7.2896,5,0.5273,7,2.3854,0,1.9527,,,0,0,0,0,1,main,5,21,Female,R,Donders,2021-07-11_13h56.54.761,ImageRatingTask_S5,2021.1.4,Win32,59.95922773,,,,,,,,,,,,,,,,,
,,,,,,,,,,,,0,1,1,1,1,second,5,21,Female,R,Donders,2021-07-11_13h56.54.761,ImageRatingTask_S5,2021.1.4,Win32,59.95922773,,,,,,,,,,,,,,,,,
,,,,,,,,,,,,0,2,2,2,1,third,5,21,Female,R,Donders,2021-07-11_13h56.54.761,ImageRatingTask_S5,2021.1.4,Win32,59.95922773,,,,,,,,,,,,,,,,,
,,,,,,,,,,,,0,3,3,3,1,fourth,5,21,Female,R,Donders,2021-07-11_13h56.54.761,ImageRatingTask_S5,2021.1.4,Win32,59.95922773,,,,,,,,,,,,,,,,,
,,,,,,,,,,,,0,4,4,4,1,fifth,5,21,Female,R,Donders,2021-07-11_13h56.54.761,ImageRatingTask_S5,2021.1.4,Win32,59.95922773,,,,,,,,,,,,,,,,,
,,,,,,,,,,,,0,5,5,5,1,sixth,5,21,Female,R,Donders,2021-07-11_13h56.54.761,ImageRatingTask_S5,2021.1.4,Win32,59.95922773,,,,,,,,,,,,,,,,,
,,,,,,,,,,,,0,6,6,6,1,seventh,5,21,Female,R,Donders,2021-07-11_13h56.54.761,ImageRatingTask_S5,2021.1.4,Win32,59.95922773,,,,,,,,,,,,,,,,,
,,,,,,,,,,,,0,7,7,7,1,last,5,21,Female,R,Donders,2021-07-11_13h56.54.761,ImageRatingTask_S5,2021.1.4,Win32,59.95922773,,,,,,,,,,,,,,,,,
,,,,,,,,,,,,,,,,,,5,21,Female,R,Donders,2021-07-11_13h56.54.761,ImageRatingTask_S5,2021.1.4,Win32,59.95922773,0,60,60,66,1,DreamStudyImages_rs1000x750g/Food/Objects_017_v.jpg,,,,,,,,,,,
,,5,12.7788,5,0.9369,8,2.124,1,1.7864,2,0.6741,0,0,0,0,1,main,5,21,Female,R,Donders,2021-07-11_13h56.54.761,ImageRatingTask_S5,2021.1.4,Win32,59.95922773,,,,,,,,,,,,,,,,,
,,,,,,,,,,,,0,1,1,1,1,second,5,21,Female,R,Donders,2021-07-11_13h56.54.761,ImageRatingTask_S5,2021.1.4,Win32,59.95922773,,,,,,,,,,,,,,,,,
,,,,,,,,,,,,0,2,2,2,1,third,5,21,Female,R,Donders,2021-07-11_13h56.54.761,ImageRatingTask_S5,2021.1.4,Win32,59.95922773,,,,,,,,,,,,,,,,,
,,,,,,,,,,,,0,3,3,3,1,fourth,5,21,Female,R,Donders,2021-07-11_13h56.54.761,ImageRatingTask_S5,2021.1.4,Win32,59.95922773,,,,,,,,,,,,,,,,,
,,,,,,,,,,,,0,4,4,4,1,fifth,5,21,Female,R,Donders,2021-07-11_13h56.54.761,ImageRatingTask_S5,2021.1.4,Win32,59.95922773,,,,,,,,,,,,,,,,,
,,,,,,,,,,,,0,5,5,5,1,sixth,5,21,Female,R,Donders,2021-07-11_13h56.54.761,ImageRatingTask_S5,2021.1.4,Win32,59.95922773,,,,,,,,,,,,,,,,,
,,,,,,,,,,,,0,6,6,6,1,seventh,5,21,Female,R,Donders,2021-07-11_13h56.54.761,ImageRatingTask_S5,2021.1.4,Win32,59.95922773,,,,,,,,,,,,,,,,,
,,,,,,,,,,,,0,7,7,7,1,last,5,21,Female,R,Donders,2021-07-11_13h56.54.761,ImageRatingTask_S5,2021.1.4,Win32,59.95922773,,,,,,,,,,,,,,,,,
,,,,,,,,,,,,,,,,,,5,21,Female,R,Donders,2021-07-11_13h56.54.761,ImageRatingTask_S5,2021.1.4,Win32,59.95922773,0,61,61,5,1,DreamStudyImages_rs1000x750g/Children/Faces_040_h.jpg,,,,,,,,,,,
,,3,7.3108,5,2.894,7,1.7083,1,1.1082,2,0.2957,0,0,0,0,1,main,5,21,Female,R,Donders,2021-07-11_13h56.54.761,ImageRatingTask_S5,2021.1.4,Win32,59.95922773,,,,,,,,,,,,,,,,,
,,,,,,,,,,,,0,1,1,1,1,second,5,21,Female,R,Donders,2021-07-11_13h56.54.761,ImageRatingTask_S5,2021.1.4,Win32,59.95922773,,,,,,,,,,,,,,,,,
,,,,,,,,,,,,0,2,2,2,1,third,5,21,Female,R,Donders,2021-07-11_13h56.54.761,ImageRatingTask_S5,2021.1.4,Win32,59.95922773,,,,,,,,,,,,,,,,,
,,,,,,,,,,,,0,3,3,3,1,fourth,5,21,Female,R,Donders,2021-07-11_13h56.54.761,ImageRatingTask_S5,2021.1.4,Win32,59.95922773,,,,,,,,,,,,,,,,,
,,,,,,,,,,,,0,4,4,4,1,fifth,5,21,Female,R,Donders,2021-07-11_13h56.54.761,ImageRatingTask_S5,2021.1.4,Win32,59.95922773,,,,,,,,,,,,,,,,,
,,,,,,,,,,,,0,5,5,5,1,sixth,5,21,Female,R,Donders,2021-07-11_13h56.54.761,ImageRatingTask_S5,2021.1.4,Win32,59.95922773,,,,,,,,,,,,,,,,,
,,,,,,,,,,,,0,6,6,6,1,seventh,5,21,Female,R,Donders,2021-07-11_13h56.54.761,ImageRatingTask_S5,2021.1.4,Win32,59.95922773,,,,,,,,,,,,,,,,,
,,,,,,,,,,,,0,7,7,7,1,last,5,21,Female,R,Donders,2021-07-11_13h56.54.761,ImageRatingTask_S5,2021.1.4,Win32,59.95922773,,,,,,,,,,,,,,,,,
,,,,,,,,,,,,,,,,,,5,21,Female,R,Donders,2021-07-11_13h56.54.761,ImageRatingTask_S5,2021.1.4,Win32,59.95922773,0,62,62,39,1,DreamStudyImages_rs1000x750g/Children/Faces_363_v.jpg,,,,,,,,,,,
,,5,4.4065,5,0.1025,8,2.3742,1,1.3599,6,0.8921,0,0,0,0,1,main,5,21,Female,R,Donders,2021-07-11_13h56.54.761,ImageRatingTask_S5,2021.1.4,Win32,59.95922773,,,,,,,,,,,,,,,,,
,,,,,,,,,,,,0,1,1,1,1,second,5,21,Female,R,Donders,2021-07-11_13h56.54.761,ImageRatingTask_S5,2021.1.4,Win32,59.95922773,,,,,,,,,,,,,,,,,
,,,,,,,,,,,,0,2,2,2,1,third,5,21,Female,R,Donders,2021-07-11_13h56.54.761,ImageRatingTask_S5,2021.1.4,Win32,59.95922773,,,,,,,,,,,,,,,,,
,,,,,,,,,,,,0,3,3,3,1,fourth,5,21,Female,R,Donders,2021-07-11_13h56.54.761,ImageRatingTask_S5,2021.1.4,Win32,59.95922773,,,,,,,,,,,,,,,,,
,,,,,,,,,,,,0,4,4,4,1,fifth,5,21,Female,R,Donders,2021-07-11_13h56.54.761,ImageRatingTask_S5,2021.1.4,Win32,59.95922773,,,,,,,,,,,,,,,,,
,,,,,,,,,,,,0,5,5,5,1,sixth,5,21,Female,R,Donders,2021-07-11_13h56.54.761,ImageRatingTask_S5,2021.1.4,Win32,59.95922773,,,,,,,,,,,,,,,,,
,,,,,,,,,,,,0,6,6,6,1,seventh,5,21,Female,R,Donders,2021-07-11_13h56.54.761,ImageRatingTask_S5,2021.1.4,Win32,59.95922773,,,,,,,,,,,,,,,,,
,,,,,,,,,,,,0,7,7,7,1,last,5,21,Female,R,Donders,2021-07-11_13h56.54.761,ImageRatingTask_S5,2021.1.4,Win32,59.95922773,,,,,,,,,,,,,,,,,
,,,,,,,,,,,,,,,,,,5,21,Female,R,Donders,2021-07-11_13h56.54.761,ImageRatingTask_S5,2021.1.4,Win32,59.95922773,0,63,63,19,1,DreamStudyImages_rs1000x750g/Houses/Landscapes_067_h.jpg,,,,,,,,,,,
,,6,7.996,5,1.3327,8,5.6383,1,1.5496,8,0.6707,0,0,0,0,1,main,5,21,Female,R,Donders,2021-07-11_13h56.54.761,ImageRatingTask_S5,2021.1.4,Win32,59.95922773,,,,,,,,,,,,,,,,,
,,,,,,,,,,,,0,1,1,1,1,second,5,21,Female,R,Donders,2021-07-11_13h56.54.761,ImageRatingTask_S5,2021.1.4,Win32,59.95922773,,,,,,,,,,,,,,,,,
,,,,,,,,,,,,0,2,2,2,1,third,5,21,Female,R,Donders,2021-07-11_13h56.54.761,ImageRatingTask_S5,2021.1.4,Win32,59.95922773,,,,,,,,,,,,,,,,,
,,,,,,,,,,,,0,3,3,3,1,fourth,5,21,Female,R,Donders,2021-07-11_13h56.54.761,ImageRatingTask_S5,2021.1.4,Win32,59.95922773,,,,,,,,,,,,,,,,,
,,,,,,,,,,,,0,4,4,4,1,fifth,5,21,Female,R,Donders,2021-07-11_13h56.54.761,ImageRatingTask_S5,2021.1.4,Win32,59.95922773,,,,,,,,,,,,,,,,,
,,,,,,,,,,,,0,5,5,5,1,sixth,5,21,Female,R,Donders,2021-07-11_13h56.54.761,ImageRatingTask_S5,2021.1.4,Win32,59.95922773,,,,,,,,,,,,,,,,,
,,,,,,,,,,,,0,6,6,6,1,seventh,5,21,Female,R,Donders,2021-07-11_13h56.54.761,ImageRatingTask_S5,2021.1.4,Win32,59.95922773,,,,,,,,,,,,,,,,,
,,,,,,,,,,,,0,7,7,7,1,last,5,21,Female,R,Donders,2021-07-11_13h56.54.761,ImageRatingTask_S5,2021.1.4,Win32,59.95922773,,,,,,,,,,,,,,,,,
,,,,,,,,,,,,,,,,,,5,21,Female,R,Donders,2021-07-11_13h56.54.761,ImageRatingTask_S5,2021.1.4,Win32,59.95922773,0,64,64,50,1,DreamStudyImages_rs1000x750g/Water/Landscapes_009_h.jpg,,,,,,,,,,,
,,8,6.3891,4,2.339,7,2.276,1,1.5441,8,0.7461,0,0,0,0,1,main,5,21,Female,R,Donders,2021-07-11_13h56.54.761,ImageRatingTask_S5,2021.1.4,Win32,59.95922773,,,,,,,,,,,,,,,,,
,,,,,,,,,,,,0,1,1,1,1,second,5,21,Female,R,Donders,2021-07-11_13h56.54.761,ImageRatingTask_S5,2021.1.4,Win32,59.95922773,,,,,,,,,,,,,,,,,
,,,,,,,,,,,,0,2,2,2,1,third,5,21,Female,R,Donders,2021-07-11_13h56.54.761,ImageRatingTask_S5,2021.1.4,Win32,59.95922773,,,,,,,,,,,,,,,,,
,,,,,,,,,,,,0,3,3,3,1,fourth,5,21,Female,R,Donders,2021-07-11_13h56.54.761,ImageRatingTask_S5,2021.1.4,Win32,59.95922773,,,,,,,,,,,,,,,,,
,,,,,,,,,,,,0,4,4,4,1,fifth,5,21,Female,R,Donders,2021-07-11_13h56.54.761,ImageRatingTask_S5,2021.1.4,Win32,59.95922773,,,,,,,,,,,,,,,,,
,,,,,,,,,,,,0,5,5,5,1,sixth,5,21,Female,R,Donders,2021-07-11_13h56.54.761,ImageRatingTask_S5,2021.1.4,Win32,59.95922773,,,,,,,,,,,,,,,,,
,,,,,,,,,,,,0,6,6,6,1,seventh,5,21,Female,R,Donders,2021-07-11_13h56.54.761,ImageRatingTask_S5,2021.1.4,Win32,59.95922773,,,,,,,,,,,,,,,,,
,,,,,,,,,,,,0,7,7,7,1,last,5,21,Female,R,Donders,2021-07-11_13h56.54.761,ImageRatingTask_S5,2021.1.4,Win32,59.95922773,,,,,,,,,,,,,,,,,
,,,,,,,,,,,,,,,,,,5,21,Female,R,Donders,2021-07-11_13h56.54.761,ImageRatingTask_S5,2021.1.4,Win32,59.95922773,0,65,65,53,1,DreamStudyImages_rs1000x750g/Water/fishingsunset_CROPPED.jpg,,,,,,,,,,,
,,3,6.1165,3,2.1767,5,3.3036,1,1.6702,6,5.8464,0,0,0,0,1,main,5,21,Female,R,Donders,2021-07-11_13h56.54.761,ImageRatingTask_S5,2021.1.4,Win32,59.95922773,,,,,,,,,,,,,,,,,
,,,,,,,,,,,,0,1,1,1,1,second,5,21,Female,R,Donders,2021-07-11_13h56.54.761,ImageRatingTask_S5,2021.1.4,Win32,59.95922773,,,,,,,,,,,,,,,,,
,,,,,,,,,,,,0,2,2,2,1,third,5,21,Female,R,Donders,2021-07-11_13h56.54.761,ImageRatingTask_S5,2021.1.4,Win32,59.95922773,,,,,,,,,,,,,,,,,
,,,,,,,,,,,,0,3,3,3,1,fourth,5,21,Female,R,Donders,2021-07-11_13h56.54.761,ImageRatingTask_S5,2021.1.4,Win32,59.95922773,,,,,,,,,,,,,,,,,
,,,,,,,,,,,,0,4,4,4,1,fifth,5,21,Female,R,Donders,2021-07-11_13h56.54.761,ImageRatingTask_S5,2021.1.4,Win32,59.95922773,,,,,,,,,,,,,,,,,
,,,,,,,,,,,,0,5,5,5,1,sixth,5,21,Female,R,Donders,2021-07-11_13h56.54.761,ImageRatingTask_S5,2021.1.4,Win32,59.95922773,,,,,,,,,,,,,,,,,
,,,,,,,,,,,,0,6,6,6,1,seventh,5,21,Female,R,Donders,2021-07-11_13h56.54.761,ImageRatingTask_S5,2021.1.4,Win32,59.95922773,,,,,,,,,,,,,,,,,
,,,,,,,,,,,,0,7,7,7,1,last,5,21,Female,R,Donders,2021-07-11_13h56.54.761,ImageRatingTask_S5,2021.1.4,Win32,59.95922773,,,,,,,,,,,,,,,,,
,,,,,,,,,,,,,,,,,,5,21,Female,R,Donders,2021-07-11_13h56.54.761,ImageRatingTask_S5,2021.1.4,Win32,59.95922773,0,66,66,103,1,DreamStudyImages_rs1000x750g/Houses/Hallway 1.jpg,,,,,,,,,,,
,,3,6.7731,6,4.9668,4,2.2956,1,1.3009,7,1.668,0,0,0,0,1,main,5,21,Female,R,Donders,2021-07-11_13h56.54.761,ImageRatingTask_S5,2021.1.4,Win32,59.95922773,,,,,,,,,,,,,,,,,
,,,,,,,,,,,,0,1,1,1,1,second,5,21,Female,R,Donders,2021-07-11_13h56.54.761,ImageRatingTask_S5,2021.1.4,Win32,59.95922773,,,,,,,,,,,,,,,,,
,,,,,,,,,,,,0,2,2,2,1,third,5,21,Female,R,Donders,2021-07-11_13h56.54.761,ImageRatingTask_S5,2021.1.4,Win32,59.95922773,,,,,,,,,,,,,,,,,
,,,,,,,,,,,,0,3,3,3,1,fourth,5,21,Female,R,Donders,2021-07-11_13h56.54.761,ImageRatingTask_S5,2021.1.4,Win32,59.95922773,,,,,,,,,,,,,,,,,
,,,,,,,,,,,,0,4,4,4,1,fifth,5,21,Female,R,Donders,2021-07-11_13h56.54.761,ImageRatingTask_S5,2021.1.4,Win32,59.95922773,,,,,,,,,,,,,,,,,
,,,,,,,,,,,,0,5,5,5,1,sixth,5,21,Female,R,Donders,2021-07-11_13h56.54.761,ImageRatingTask_S5,2021.1.4,Win32,59.95922773,,,,,,,,,,,,,,,,,
,,,,,,,,,,,,0,6,6,6,1,seventh,5,21,Female,R,Donders,2021-07-11_13h56.54.761,ImageRatingTask_S5,2021.1.4,Win32,59.95922773,,,,,,,,,,,,,,,,,
,,,,,,,,,,,,0,7,7,7,1,last,5,21,Female,R,Donders,2021-07-11_13h56.54.761,ImageRatingTask_S5,2021.1.4,Win32,59.95922773,,,,,,,,,,,,,,,,,
,,,,,,,,,,,,,,,,,,5,21,Female,R,Donders,2021-07-11_13h56.54.761,ImageRatingTask_S5,2021.1.4,Win32,59.95922773,0,67,67,63,1,DreamStudyImages_rs1000x750g/Vehicles/IAPS6910_aircraft.jpg,,,,,,,,,,,
,,5,2.1746,5,0.1752,8,1.9905,1,1.0262,2,0.2536,0,0,0,0,1,main,5,21,Female,R,Donders,2021-07-11_13h56.54.761,ImageRatingTask_S5,2021.1.4,Win32,59.95922773,,,,,,,,,,,,,,,,,
,,,,,,,,,,,,0,1,1,1,1,second,5,21,Female,R,Donders,2021-07-11_13h56.54.761,ImageRatingTask_S5,2021.1.4,Win32,59.95922773,,,,,,,,,,,,,,,,,
,,,,,,,,,,,,0,2,2,2,1,third,5,21,Female,R,Donders,2021-07-11_13h56.54.761,ImageRatingTask_S5,2021.1.4,Win32,59.95922773,,,,,,,,,,,,,,,,,
,,,,,,,,,,,,0,3,3,3,1,fourth,5,21,Female,R,Donders,2021-07-11_13h56.54.761,ImageRatingTask_S5,2021.1.4,Win32,59.95922773,,,,,,,,,,,,,,,,,
,,,,,,,,,,,,0,4,4,4,1,fifth,5,21,Female,R,Donders,2021-07-11_13h56.54.761,ImageRatingTask_S5,2021.1.4,Win32,59.95922773,,,,,,,,,,,,,,,,,
,,,,,,,,,,,,0,5,5,5,1,sixth,5,21,Female,R,Donders,2021-07-11_13h56.54.761,ImageRatingTask_S5,2021.1.4,Win32,59.95922773,,,,,,,,,,,,,,,,,
,,,,,,,,,,,,0,6,6,6,1,seventh,5,21,Female,R,Donders,2021-07-11_13h56.54.761,ImageRatingTask_S5,2021.1.4,Win32,59.95922773,,,,,,,,,,,,,,,,,
,,,,,,,,,,,,0,7,7,7,1,last,5,21,Female,R,Donders,2021-07-11_13h56.54.761,ImageRatingTask_S5,2021.1.4,Win32,59.95922773,,,,,,,,,,,,,,,,,
,,,,,,,,,,,,,,,,,,5,21,Female,R,Donders,2021-07-11_13h56.54.761,ImageRatingTask_S5,2021.1.4,Win32,59.95922773,0,68,68,111,1,DreamStudyImages_rs1000x750g/Children/People_049_h.jpg,,,,,,,,,,,
,,4,2.6442,5,1.1437,7,1.3739,1,1.1617,2,0.2519,0,0,0,0,1,main,5,21,Female,R,Donders,2021-07-11_13h56.54.761,ImageRatingTask_S5,2021.1.4,Win32,59.95922773,,,,,,,,,,,,,,,,,
,,,,,,,,,,,,0,1,1,1,1,second,5,21,Female,R,Donders,2021-07-11_13h56.54.761,ImageRatingTask_S5,2021.1.4,Win32,59.95922773,,,,,,,,,,,,,,,,,
,,,,,,,,,,,,0,2,2,2,1,third,5,21,Female,R,Donders,2021-07-11_13h56.54.761,ImageRatingTask_S5,2021.1.4,Win32,59.95922773,,,,,,,,,,,,,,,,,
,,,,,,,,,,,,0,3,3,3,1,fourth,5,21,Female,R,Donders,2021-07-11_13h56.54.761,ImageRatingTask_S5,2021.1.4,Win32,59.95922773,,,,,,,,,,,,,,,,,
,,,,,,,,,,,,0,4,4,4,1,fifth,5,21,Female,R,Donders,2021-07-11_13h56.54.761,ImageRatingTask_S5,2021.1.4,Win32,59.95922773,,,,,,,,,,,,,,,,,
,,,,,,,,,,,,0,5,5,5,1,sixth,5,21,Female,R,Donders,2021-07-11_13h56.54.761,ImageRatingTask_S5,2021.1.4,Win32,59.95922773,,,,,,,,,,,,,,,,,
,,,,,,,,,,,,0,6,6,6,1,seventh,5,21,Female,R,Donders,2021-07-11_13h56.54.761,ImageRatingTask_S5,2021.1.4,Win32,59.95922773,,,,,,,,,,,,,,,,,
,,,,,,,,,,,,0,7,7,7,1,last,5,21,Female,R,Donders,2021-07-11_13h56.54.761,ImageRatingTask_S5,2021.1.4,Win32,59.95922773,,,,,,,,,,,,,,,,,
,,,,,,,,,,,,,,,,,,5,21,Female,R,Donders,2021-07-11_13h56.54.761,ImageRatingTask_S5,2021.1.4,Win32,59.95922773,0,69,69,131,1,DreamStudyImages_rs1000x750g/Children/IAPS2301_boy5.jpg,,,,,,,,,,,
,,6,5.5844,5,1.2228,5,1.7556,2,6.5152,1,0.8764,0,0,0,0,1,main,5,21,Female,R,Donders,2021-07-11_13h56.54.761,ImageRatingTask_S5,2021.1.4,Win32,59.95922773,,,,,,,,,,,,,,,,,
,,,,,,,,,,2,0.5338,0,1,1,1,1,second,5,21,Female,R,Donders,2021-07-11_13h56.54.761,ImageRatingTask_S5,2021.1.4,Win32,59.95922773,,,,,,,,,,,,,,,,,
,,,,,,,,,,,,0,2,2,2,1,third,5,21,Female,R,Donders,2021-07-11_13h56.54.761,ImageRatingTask_S5,2021.1.4,Win32,59.95922773,,,,,,,,,,,,,,,,,
,,,,,,,,,,,,0,3,3,3,1,fourth,5,21,Female,R,Donders,2021-07-11_13h56.54.761,ImageRatingTask_S5,2021.1.4,Win32,59.95922773,,,,,,,,,,,,,,,,,
,,,,,,,,,,,,0,4,4,4,1,fifth,5,21,Female,R,Donders,2021-07-11_13h56.54.761,ImageRatingTask_S5,2021.1.4,Win32,59.95922773,,,,,,,,,,,,,,,,,
,,,,,,,,,,,,0,5,5,5,1,sixth,5,21,Female,R,Donders,2021-07-11_13h56.54.761,ImageRatingTask_S5,2021.1.4,Win32,59.95922773,,,,,,,,,,,,,,,,,
,,,,,,,,,,,,0,6,6,6,1,seventh,5,21,Female,R,Donders,2021-07-11_13h56.54.761,ImageRatingTask_S5,2021.1.4,Win32,59.95922773,,,,,,,,,,,,,,,,,
,,,,,,,,,,,,0,7,7,7,1,last,5,21,Female,R,Donders,2021-07-11_13h56.54.761,ImageRatingTask_S5,2021.1.4,Win32,59.95922773,,,,,,,,,,,,,,,,,
,,,,,,,,,,,,,,,,,,5,21,Female,R,Donders,2021-07-11_13h56.54.761,ImageRatingTask_S5,2021.1.4,Win32,59.95922773,0,70,70,28,1,DreamStudyImages_rs1000x750g/Children/IAPS2308_makeupgirl_humans.jpg,,,,,,,,,,,
,,2,5.8315,7,3.6098,6,3.4101,1,3.5111,3,1.5095,0,0,0,0,1,main,5,21,Female,R,Donders,2021-07-11_13h56.54.761,ImageRatingTask_S5,2021.1.4,Win32,59.95922773,,,,,,,,,,,,,,,,,
,,,,,,,,,,,,0,1,1,1,1,second,5,21,Female,R,Donders,2021-07-11_13h56.54.761,ImageRatingTask_S5,2021.1.4,Win32,59.95922773,,,,,,,,,,,,,,,,,
,,,,,,,,,,,,0,2,2,2,1,third,5,21,Female,R,Donders,2021-07-11_13h56.54.761,ImageRatingTask_S5,2021.1.4,Win32,59.95922773,,,,,,,,,,,,,,,,,
,,,,,,,,,,,,0,3,3,3,1,fourth,5,21,Female,R,Donders,2021-07-11_13h56.54.761,ImageRatingTask_S5,2021.1.4,Win32,59.95922773,,,,,,,,,,,,,,,,,
,,,,,,,,,,,,0,4,4,4,1,fifth,5,21,Female,R,Donders,2021-07-11_13h56.54.761,ImageRatingTask_S5,2021.1.4,Win32,59.95922773,,,,,,,,,,,,,,,,,
,,,,,,,,,,,,0,5,5,5,1,sixth,5,21,Female,R,Donders,2021-07-11_13h56.54.761,ImageRatingTask_S5,2021.1.4,Win32,59.95922773,,,,,,,,,,,,,,,,,
,,,,,,,,,,,,0,6,6,6,1,seventh,5,21,Female,R,Donders,2021-07-11_13h56.54.761,ImageRatingTask_S5,2021.1.4,Win32,59.95922773,,,,,,,,,,,,,,,,,
,,,,,,,,,,,,0,7,7,7,1,last,5,21,Female,R,Donders,2021-07-11_13h56.54.761,ImageRatingTask_S5,2021.1.4,Win32,59.95922773,,,,,,,,,,,,,,,,,
,,,,,,,,,,,,,,,,,,5,21,Female,R,Donders,2021-07-11_13h56.54.761,ImageRatingTask_S5,2021.1.4,Win32,59.95922773,0,71,71,78,1,DreamStudyImages_rs1000x750g/Mammals/IAPS1617_mole.jpg,,,,,,,,,,,
,,2,3.915,6,2.0249,5,2.4681,1,1.7787,2,1.5048,0,0,0,0,1,main,5,21,Female,R,Donders,2021-07-11_13h56.54.761,ImageRatingTask_S5,2021.1.4,Win32,59.95922773,,,,,,,,,,,,,,,,,
,,,,,,,,,,,,0,1,1,1,1,second,5,21,Female,R,Donders,2021-07-11_13h56.54.761,ImageRatingTask_S5,2021.1.4,Win32,59.95922773,,,,,,,,,,,,,,,,,
,,,,,,,,,,,,0,2,2,2,1,third,5,21,Female,R,Donders,2021-07-11_13h56.54.761,ImageRatingTask_S5,2021.1.4,Win32,59.95922773,,,,,,,,,,,,,,,,,
,,,,,,,,,,,,0,3,3,3,1,fourth,5,21,Female,R,Donders,2021-07-11_13h56.54.761,ImageRatingTask_S5,2021.1.4,Win32,59.95922773,,,,,,,,,,,,,,,,,
,,,,,,,,,,,,0,4,4,4,1,fifth,5,21,Female,R,Donders,2021-07-11_13h56.54.761,ImageRatingTask_S5,2021.1.4,Win32,59.95922773,,,,,,,,,,,,,,,,,
,,,,,,,,,,,,0,5,5,5,1,sixth,5,21,Female,R,Donders,2021-07-11_13h56.54.761,ImageRatingTask_S5,2021.1.4,Win32,59.95922773,,,,,,,,,,,,,,,,,
,,,,,,,,,,,,0,6,6,6,1,seventh,5,21,Female,R,Donders,2021-07-11_13h56.54.761,ImageRatingTask_S5,2021.1.4,Win32,59.95922773,,,,,,,,,,,,,,,,,
,,,,,,,,,,,,0,7,7,7,1,last,5,21,Female,R,Donders,2021-07-11_13h56.54.761,ImageRatingTask_S5,2021.1.4,Win32,59.95922773,,,,,,,,,,,,,,,,,
,,,,,,,,,,,,,,,,,,5,21,Female,R,Donders,2021-07-11_13h56.54.761,ImageRatingTask_S5,2021.1.4,Win32,59.95922773,0,72,72,54,1,DreamStudyImages_rs1000x750g/Children/Miserable pose 3.jpg,,,,,,,,,,,
,,5,3.2252,5,0.3818,8,2.2243,1,1.0607,3,1.6258,0,0,0,0,1,main,5,21,Female,R,Donders,2021-07-11_13h56.54.761,ImageRatingTask_S5,2021.1.4,Win32,59.95922773,,,,,,,,,,,,,,,,,
,,,,,,,,,,,,0,1,1,1,1,second,5,21,Female,R,Donders,2021-07-11_13h56.54.761,ImageRatingTask_S5,2021.1.4,Win32,59.95922773,,,,,,,,,,,,,,,,,
,,,,,,,,,,,,0,2,2,2,1,third,5,21,Female,R,Donders,2021-07-11_13h56.54.761,ImageRatingTask_S5,2021.1.4,Win32,59.95922773,,,,,,,,,,,,,,,,,
,,,,,,,,,,,,0,3,3,3,1,fourth,5,21,Female,R,Donders,2021-07-11_13h56.54.761,ImageRatingTask_S5,2021.1.4,Win32,59.95922773,,,,,,,,,,,,,,,,,
,,,,,,,,,,,,0,4,4,4,1,fifth,5,21,Female,R,Donders,2021-07-11_13h56.54.761,ImageRatingTask_S5,2021.1.4,Win32,59.95922773,,,,,,,,,,,,,,,,,
,,,,,,,,,,,,0,5,5,5,1,sixth,5,21,Female,R,Donders,2021-07-11_13h56.54.761,ImageRatingTask_S5,2021.1.4,Win32,59.95922773,,,,,,,,,,,,,,,,,
,,,,,,,,,,,,0,6,6,6,1,seventh,5,21,Female,R,Donders,2021-07-11_13h56.54.761,ImageRatingTask_S5,2021.1.4,Win32,59.95922773,,,,,,,,,,,,,,,,,
,,,,,,,,,,,,0,7,7,7,1,last,5,21,Female,R,Donders,2021-07-11_13h56.54.761,ImageRatingTask_S5,2021.1.4,Win32,59.95922773,,,,,,,,,,,,,,,,,
,,,,,,,,,,,,,,,,,,5,21,Female,R,Donders,2021-07-11_13h56.54.761,ImageRatingTask_S5,2021.1.4,Win32,59.95922773,0,73,73,135,1,DreamStudyImages_rs1000x750g/Mammals/Lion 5.jpg,,,,,,,,,,,
,,5,4.1407,5,0.1416,8,1.592,1,16.7633,2,0.3958,0,0,0,0,1,main,5,21,Female,R,Donders,2021-07-11_13h56.54.761,ImageRatingTask_S5,2021.1.4,Win32,59.95922773,,,,,,,,,,,,,,,,,
,,,,,,,,,,,,0,1,1,1,1,second,5,21,Female,R,Donders,2021-07-11_13h56.54.761,ImageRatingTask_S5,2021.1.4,Win32,59.95922773,,,,,,,,,,,,,,,,,
,,,,,,,,,,,,0,2,2,2,1,third,5,21,Female,R,Donders,2021-07-11_13h56.54.761,ImageRatingTask_S5,2021.1.4,Win32,59.95922773,,,,,,,,,,,,,,,,,
,,,,,,,,,,,,0,3,3,3,1,fourth,5,21,Female,R,Donders,2021-07-11_13h56.54.761,ImageRatingTask_S5,2021.1.4,Win32,59.95922773,,,,,,,,,,,,,,,,,
,,,,,,,,,,,,0,4,4,4,1,fifth,5,21,Female,R,Donders,2021-07-11_13h56.54.761,ImageRatingTask_S5,2021.1.4,Win32,59.95922773,,,,,,,,,,,,,,,,,
,,,,,,,,,,,,0,5,5,5,1,sixth,5,21,Female,R,Donders,2021-07-11_13h56.54.761,ImageRatingTask_S5,2021.1.4,Win32,59.95922773,,,,,,,,,,,,,,,,,
,,,,,,,,,,,,0,6,6,6,1,seventh,5,21,Female,R,Donders,2021-07-11_13h56.54.761,ImageRatingTask_S5,2021.1.4,Win32,59.95922773,,,,,,,,,,,,,,,,,
,,,,,,,,,,,,0,7,7,7,1,last,5,21,Female,R,Donders,2021-07-11_13h56.54.761,ImageRatingTask_S5,2021.1.4,Win32,59.95922773,,,,,,,,,,,,,,,,,
,,,,,,,,,,,,,,,,,,5,21,Female,R,Donders,2021-07-11_13h56.54.761,ImageRatingTask_S5,2021.1.4,Win32,59.95922773,0,74,74,132,1,DreamStudyImages_rs1000x750g/Children/Faces_105_h.jpg,,,,,,,,,,,
,,8,2.7258,4,2.4383,8,1.3293,1,4.9789,8,0.7205,0,0,0,0,1,main,5,21,Female,R,Donders,2021-07-11_13h56.54.761,ImageRatingTask_S5,2021.1.4,Win32,59.95922773,,,,,,,,,,,,,,,,,
