slider_pre.response,slider_pre.rt,key_val.keys,key_val.rt,key_aro.keys,key_aro.rt,key_qual.keys,key_qual.rt,key_ncat.keys,key_ncat.rt,key_cats.keys,key_cats.rt,ncat_order.thisRepN,ncat_order.thisTrialN,ncat_order.thisN,ncat_order.thisIndex,ncat_order.ran,cond_cat,participant,age,gender,handedness (L/R),site (IMT/Donders),date,expName,psychopyVersion,OS,frameRate,img_trials.thisRepN,img_trials.thisTrialN,img_trials.thisN,img_trials.thisIndex,img_trials.ran,filename,slider_post.response,slider_post.rt,textbox_openfb.text
7,14.4077,7,19.8579,3,2.6181,5,9.2241,1,6.3779,8,0.1329,0,0,0,0,1,main,5,21,Female,R,Donders,2021-07-11_13h28.43.025,ImageRatingTask_S4,2021.1.4,Win32,60.09615385,,,,,,,,,
,,,,,,,,,,,,0,1,1,1,1,second,5,21,Female,R,Donders,2021-07-11_13h28.43.025,ImageRatingTask_S4,2021.1.4,Win32,60.09615385,,,,,,,,,
,,,,,,,,,,,,0,2,2,2,1,third,5,21,Female,R,Donders,2021-07-11_13h28.43.025,ImageRatingTask_S4,2021.1.4,Win32,60.09615385,,,,,,,,,
,,,,,,,,,,,,0,3,3,3,1,fourth,5,21,Female,R,Donders,2021-07-11_13h28.43.025,ImageRatingTask_S4,2021.1.4,Win32,60.09615385,,,,,,,,,
,,,,,,,,,,,,0,4,4,4,1,fifth,5,21,Female,R,Donders,2021-07-11_13h28.43.025,ImageRatingTask_S4,2021.1.4,Win32,60.09615385,,,,,,,,,
,,,,,,,,,,,,0,5,5,5,1,sixth,5,21,Female,R,Donders,2021-07-11_13h28.43.025,ImageRatingTask_S4,2021.1.4,Win32,60.09615385,,,,,,,,,
,,,,,,,,,,,,0,6,6,6,1,seventh,5,21,Female,R,Donders,2021-07-11_13h28.43.025,ImageRatingTask_S4,2021.1.4,Win32,60.09615385,,,,,,,,,
,,,,,,,,,,,,0,7,7,7,1,last,5,21,Female,R,Donders,2021-07-11_13h28.43.025,ImageRatingTask_S4,2021.1.4,Win32,60.09615385,,,,,,,,,
,,,,,,,,,,,,,,,,,,5,21,Female,R,Donders,2021-07-11_13h28.43.025,ImageRatingTask_S4,2021.1.4,Win32,60.09615385,0,0,0,119,1,DreamStudyImages_rs1000x750g/Water/5820.jpg,,,
,,5,9.3937,5,0.3292,8,2.5038,1,1.4495,7,0.6074,0,0,0,0,1,main,5,21,Female,R,Donders,2021-07-11_13h28.43.025,ImageRatingTask_S4,2021.1.4,Win32,60.09615385,,,,,,,,,
,,,,,,,,,,,,0,1,1,1,1,second,5,21,Female,R,Donders,2021-07-11_13h28.43.025,ImageRatingTask_S4,2021.1.4,Win32,60.09615385,,,,,,,,,
,,,,,,,,,,,,0,2,2,2,1,third,5,21,Female,R,Donders,2021-07-11_13h28.43.025,ImageRatingTask_S4,2021.1.4,Win32,60.09615385,,,,,,,,,
,,,,,,,,,,,,0,3,3,3,1,fourth,5,21,Female,R,Donders,2021-07-11_13h28.43.025,ImageRatingTask_S4,2021.1.4,Win32,60.09615385,,,,,,,,,
,,,,,,,,,,,,0,4,4,4,1,fifth,5,21,Female,R,Donders,2021-07-11_13h28.43.025,ImageRatingTask_S4,2021.1.4,Win32,60.09615385,,,,,,,,,
,,,,,,,,,,,,0,5,5,5,1,sixth,5,21,Female,R,Donders,2021-07-11_13h28.43.025,ImageRatingTask_S4,2021.1.4,Win32,60.09615385,,,,,,,,,
,,,,,,,,,,,,0,6,6,6,1,seventh,5,21,Female,R,Donders,2021-07-11_13h28.43.025,ImageRatingTask_S4,2021.1.4,Win32,60.09615385,,,,,,,,,
,,,,,,,,,,,,0,7,7,7,1,last,5,21,Female,R,Donders,2021-07-11_13h28.43.025,ImageRatingTask_S4,2021.1.4,Win32,60.09615385,,,,,,,,,
,,,,,,,,,,,,,,,,,,5,21,Female,R,Donders,2021-07-11_13h28.43.025,ImageRatingTask_S4,2021.1.4,Win32,60.09615385,0,1,1,21,1,DreamStudyImages_rs1000x750g/Vehicles/Car 1.jpg,,,
,,6,3.1326,5,0.5746,8,1.7449,1,1.1368,5,0.347,0,0,0,0,1,main,5,21,Female,R,Donders,2021-07-11_13h28.43.025,ImageRatingTask_S4,2021.1.4,Win32,60.09615385,,,,,,,,,
,,,,,,,,,,,,0,1,1,1,1,second,5,21,Female,R,Donders,2021-07-11_13h28.43.025,ImageRatingTask_S4,2021.1.4,Win32,60.09615385,,,,,,,,,
,,,,,,,,,,,,0,2,2,2,1,third,5,21,Female,R,Donders,2021-07-11_13h28.43.025,ImageRatingTask_S4,2021.1.4,Win32,60.09615385,,,,,,,,,
,,,,,,,,,,,,0,3,3,3,1,fourth,5,21,Female,R,Donders,2021-07-11_13h28.43.025,ImageRatingTask_S4,2021.1.4,Win32,60.09615385,,,,,,,,,
,,,,,,,,,,,,0,4,4,4,1,fifth,5,21,Female,R,Donders,2021-07-11_13h28.43.025,ImageRatingTask_S4,2021.1.4,Win32,60.09615385,,,,,,,,,
,,,,,,,,,,,,0,5,5,5,1,sixth,5,21,Female,R,Donders,2021-07-11_13h28.43.025,ImageRatingTask_S4,2021.1.4,Win32,60.09615385,,,,,,,,,
,,,,,,,,,,,,0,6,6,6,1,seventh,5,21,Female,R,Donders,2021-07-11_13h28.43.025,ImageRatingTask_S4,2021.1.4,Win32,60.09615385,,,,,,,,,
,,,,,,,,,,,,0,7,7,7,1,last,5,21,Female,R,Donders,2021-07-11_13h28.43.025,ImageRatingTask_S4,2021.1.4,Win32,60.09615385,,,,,,,,,
,,,,,,,,,,,,,,,,,,5,21,Female,R,Donders,2021-07-11_13h28.43.025,ImageRatingTask_S4,2021.1.4,Win32,60.09615385,0,2,2,107,1,DreamStudyImages_rs1000x750g/Food/IAPS7390_popsicles.jpg,,,
,,5,4.2193,5,0.4676,7,1.2892,2,1.7551,2,0.5305,0,0,0,0,1,main,5,21,Female,R,Donders,2021-07-11_13h28.43.025,ImageRatingTask_S4,2021.1.4,Win32,60.09615385,,,,,,,,,
,,,,,,,,,,1,0.0215,0,1,1,1,1,second,5,21,Female,R,Donders,2021-07-11_13h28.43.025,ImageRatingTask_S4,2021.1.4,Win32,60.09615385,,,,,,,,,
,,,,,,,,,,,,0,2,2,2,1,third,5,21,Female,R,Donders,2021-07-11_13h28.43.025,ImageRatingTask_S4,2021.1.4,Win32,60.09615385,,,,,,,,,
,,,,,,,,,,,,0,3,3,3,1,fourth,5,21,Female,R,Donders,2021-07-11_13h28.43.025,ImageRatingTask_S4,2021.1.4,Win32,60.09615385,,,,,,,,,
,,,,,,,,,,,,0,4,4,4,1,fifth,5,21,Female,R,Donders,2021-07-11_13h28.43.025,ImageRatingTask_S4,2021.1.4,Win32,60.09615385,,,,,,,,,
,,,,,,,,,,,,0,5,5,5,1,sixth,5,21,Female,R,Donders,2021-07-11_13h28.43.025,ImageRatingTask_S4,2021.1.4,Win32,60.09615385,,,,,,,,,
,,,,,,,,,,,,0,6,6,6,1,seventh,5,21,Female,R,Donders,2021-07-11_13h28.43.025,ImageRatingTask_S4,2021.1.4,Win32,60.09615385,,,,,,,,,
,,,,,,,,,,,,0,7,7,7,1,last,5,21,Female,R,Donders,2021-07-11_13h28.43.025,ImageRatingTask_S4,2021.1.4,Win32,60.09615385,,,,,,,,,
,,,,,,,,,,,,,,,,,,5,21,Female,R,Donders,2021-07-11_13h28.43.025,ImageRatingTask_S4,2021.1.4,Win32,60.09615385,0,3,3,78,1,DreamStudyImages_rs1000x750g/Children/IAPS2153_baby15.jpg,,,
,,3,2.0673,7,2.3446,6,1.7932,1,2.4454,7,0.025,0,0,0,0,1,main,5,21,Female,R,Donders,2021-07-11_13h28.43.025,ImageRatingTask_S4,2021.1.4,Win32,60.09615385,,,,,,,,,
,,,,,,,,,,,,0,1,1,1,1,second,5,21,Female,R,Donders,2021-07-11_13h28.43.025,ImageRatingTask_S4,2021.1.4,Win32,60.09615385,,,,,,,,,
,,,,,,,,,,,,0,2,2,2,1,third,5,21,Female,R,Donders,2021-07-11_13h28.43.025,ImageRatingTask_S4,2021.1.4,Win32,60.09615385,,,,,,,,,
,,,,,,,,,,,,0,3,3,3,1,fourth,5,21,Female,R,Donders,2021-07-11_13h28.43.025,ImageRatingTask_S4,2021.1.4,Win32,60.09615385,,,,,,,,,
,,,,,,,,,,,,0,4,4,4,1,fifth,5,21,Female,R,Donders,2021-07-11_13h28.43.025,ImageRatingTask_S4,2021.1.4,Win32,60.09615385,,,,,,,,,
,,,,,,,,,,,,0,5,5,5,1,sixth,5,21,Female,R,Donders,2021-07-11_13h28.43.025,ImageRatingTask_S4,2021.1.4,Win32,60.09615385,,,,,,,,,
,,,,,,,,,,,,0,6,6,6,1,seventh,5,21,Female,R,Donders,2021-07-11_13h28.43.025,ImageRatingTask_S4,2021.1.4,Win32,60.09615385,,,,,,,,,
,,,,,,,,,,,,0,7,7,7,1,last,5,21,Female,R,Donders,2021-07-11_13h28.43.025,ImageRatingTask_S4,2021.1.4,Win32,60.09615385,,,,,,,,,
,,,,,,,,,,,,,,,,,,5,21,Female,R,Donders,2021-07-11_13h28.43.025,ImageRatingTask_S4,2021.1.4,Win32,60.09615385,0,4,4,118,1,DreamStudyImages_rs1000x750g/Vehicles/Tornado 1.jpg,,,
,,5,2.6345,5,0.0775,7,1.3096,1,1.0137,2,0.0248,0,0,0,0,1,main,5,21,Female,R,Donders,2021-07-11_13h28.43.025,ImageRatingTask_S4,2021.1.4,Win32,60.09615385,,,,,,,,,
,,,,,,,,,,,,0,1,1,1,1,second,5,21,Female,R,Donders,2021-07-11_13h28.43.025,ImageRatingTask_S4,2021.1.4,Win32,60.09615385,,,,,,,,,
,,,,,,,,,,,,0,2,2,2,1,third,5,21,Female,R,Donders,2021-07-11_13h28.43.025,ImageRatingTask_S4,2021.1.4,Win32,60.09615385,,,,,,,,,
,,,,,,,,,,,,0,3,3,3,1,fourth,5,21,Female,R,Donders,2021-07-11_13h28.43.025,ImageRatingTask_S4,2021.1.4,Win32,60.09615385,,,,,,,,,
,,,,,,,,,,,,0,4,4,4,1,fifth,5,21,Female,R,Donders,2021-07-11_13h28.43.025,ImageRatingTask_S4,2021.1.4,Win32,60.09615385,,,,,,,,,
,,,,,,,,,,,,0,5,5,5,1,sixth,5,21,Female,R,Donders,2021-07-11_13h28.43.025,ImageRatingTask_S4,2021.1.4,Win32,60.09615385,,,,,,,,,
,,,,,,,,,,,,0,6,6,6,1,seventh,5,21,Female,R,Donders,2021-07-11_13h28.43.025,ImageRatingTask_S4,2021.1.4,Win32,60.09615385,,,,,,,,,
,,,,,,,,,,,,0,7,7,7,1,last,5,21,Female,R,Donders,2021-07-11_13h28.43.025,ImageRatingTask_S4,2021.1.4,Win32,60.09615385,,,,,,,,,
,,,,,,,,,,,,,,,,,,5,21,Female,R,Donders,2021-07-11_13h28.43.025,ImageRatingTask_S4,2021.1.4,Win32,60.09615385,0,5,5,89,1,DreamStudyImages_rs1000x750g/Children/Faces_062_v.jpg,,,
,,8,1.5082,2,1.7603,8,1.6165,1,1.5309,8,0.0485,0,0,0,0,1,main,5,21,Female,R,Donders,2021-07-11_13h28.43.025,ImageRatingTask_S4,2021.1.4,Win32,60.09615385,,,,,,,,,
,,,,,,,,,,,,0,1,1,1,1,second,5,21,Female,R,Donders,2021-07-11_13h28.43.025,ImageRatingTask_S4,2021.1.4,Win32,60.09615385,,,,,,,,,
,,,,,,,,,,,,0,2,2,2,1,third,5,21,Female,R,Donders,2021-07-11_13h28.43.025,ImageRatingTask_S4,2021.1.4,Win32,60.09615385,,,,,,,,,
,,,,,,,,,,,,0,3,3,3,1,fourth,5,21,Female,R,Donders,2021-07-11_13h28.43.025,ImageRatingTask_S4,2021.1.4,Win32,60.09615385,,,,,,,,,
,,,,,,,,,,,,0,4,4,4,1,fifth,5,21,Female,R,Donders,2021-07-11_13h28.43.025,ImageRatingTask_S4,2021.1.4,Win32,60.09615385,,,,,,,,,
,,,,,,,,,,,,0,5,5,5,1,sixth,5,21,Female,R,Donders,2021-07-11_13h28.43.025,ImageRatingTask_S4,2021.1.4,Win32,60.09615385,,,,,,,,,
,,,,,,,,,,,,0,6,6,6,1,seventh,5,21,Female,R,Donders,2021-07-11_13h28.43.025,ImageRatingTask_S4,2021.1.4,Win32,60.09615385,,,,,,,,,
,,,,,,,,,,,,0,7,7,7,1,last,5,21,Female,R,Donders,2021-07-11_13h28.43.025,ImageRatingTask_S4,2021.1.4,Win32,60.09615385,,,,,,,,,
,,,,,,,,,,,,,,,,,,5,21,Female,R,Donders,2021-07-11_13h28.43.025,ImageRatingTask_S4,2021.1.4,Win32,60.09615385,0,6,6,46,1,DreamStudyImages_rs1000x750g/Water/lake_CROPPED.jpg,,,
,,6,4.7161,3,1.1628,7,2.5816,1,2.1261,8,0.0039,0,0,0,0,1,main,5,21,Female,R,Donders,2021-07-11_13h28.43.025,ImageRatingTask_S4,2021.1.4,Win32,60.09615385,,,,,,,,,
,,,,,,,,,,,,0,1,1,1,1,second,5,21,Female,R,Donders,2021-07-11_13h28.43.025,ImageRatingTask_S4,2021.1.4,Win32,60.09615385,,,,,,,,,
,,,,,,,,,,,,0,2,2,2,1,third,5,21,Female,R,Donders,2021-07-11_13h28.43.025,ImageRatingTask_S4,2021.1.4,Win32,60.09615385,,,,,,,,,
,,,,,,,,,,,,0,3,3,3,1,fourth,5,21,Female,R,Donders,2021-07-11_13h28.43.025,ImageRatingTask_S4,2021.1.4,Win32,60.09615385,,,,,,,,,
,,,,,,,,,,,,0,4,4,4,1,fifth,5,21,Female,R,Donders,2021-07-11_13h28.43.025,ImageRatingTask_S4,2021.1.4,Win32,60.09615385,,,,,,,,,
,,,,,,,,,,,,0,5,5,5,1,sixth,5,21,Female,R,Donders,2021-07-11_13h28.43.025,ImageRatingTask_S4,2021.1.4,Win32,60.09615385,,,,,,,,,
,,,,,,,,,,,,0,6,6,6,1,seventh,5,21,Female,R,Donders,2021-07-11_13h28.43.025,ImageRatingTask_S4,2021.1.4,Win32,60.09615385,,,,,,,,,
,,,,,,,,,,,,0,7,7,7,1,last,5,21,Female,R,Donders,2021-07-11_13h28.43.025,ImageRatingTask_S4,2021.1.4,Win32,60.09615385,,,,,,,,,
,,,,,,,,,,,,,,,,,,5,21,Female,R,Donders,2021-07-11_13h28.43.025,ImageRatingTask_S4,2021.1.4,Win32,60.09615385,0,7,7,40,1,DreamStudyImages_rs1000x750g/Water/NDPS32_seafromabove.jpg,,,
,,5,3.0261,5,0.1024,7,1.4049,2,1.9858,3,1.5108,0,0,0,0,1,main,5,21,Female,R,Donders,2021-07-11_13h28.43.025,ImageRatingTask_S4,2021.1.4,Win32,60.09615385,,,,,,,,,
,,,,,,,,,,5,0.5328,0,1,1,1,1,second,5,21,Female,R,Donders,2021-07-11_13h28.43.025,ImageRatingTask_S4,2021.1.4,Win32,60.09615385,,,,,,,,,
,,,,,,,,,,,,0,2,2,2,1,third,5,21,Female,R,Donders,2021-07-11_13h28.43.025,ImageRatingTask_S4,2021.1.4,Win32,60.09615385,,,,,,,,,
,,,,,,,,,,,,0,3,3,3,1,fourth,5,21,Female,R,Donders,2021-07-11_13h28.43.025,ImageRatingTask_S4,2021.1.4,Win32,60.09615385,,,,,,,,,
,,,,,,,,,,,,0,4,4,4,1,fifth,5,21,Female,R,Donders,2021-07-11_13h28.43.025,ImageRatingTask_S4,2021.1.4,Win32,60.09615385,,,,,,,,,
,,,,,,,,,,,,0,5,5,5,1,sixth,5,21,Female,R,Donders,2021-07-11_13h28.43.025,ImageRatingTask_S4,2021.1.4,Win32,60.09615385,,,,,,,,,
,,,,,,,,,,,,0,6,6,6,1,seventh,5,21,Female,R,Donders,2021-07-11_13h28.43.025,ImageRatingTask_S4,2021.1.4,Win32,60.09615385,,,,,,,,,
,,,,,,,,,,,,0,7,7,7,1,last,5,21,Female,R,Donders,2021-07-11_13h28.43.025,ImageRatingTask_S4,2021.1.4,Win32,60.09615385,,,,,,,,,
,,,,,,,,,,,,,,,,,,5,21,Female,R,Donders,2021-07-11_13h28.43.025,ImageRatingTask_S4,2021.1.4,Win32,60.09615385,0,8,8,11,1,DreamStudyImages_rs1000x750g/Mammals/Animals_066_h.jpg,,,
,,7,4.2489,3,0.556,8,1.4822,1,1.5532,6,0.0515,0,0,0,0,1,main,5,21,Female,R,Donders,2021-07-11_13h28.43.025,ImageRatingTask_S4,2021.1.4,Win32,60.09615385,,,,,,,,,
,,,,,,,,,,,,0,1,1,1,1,second,5,21,Female,R,Donders,2021-07-11_13h28.43.025,ImageRatingTask_S4,2021.1.4,Win32,60.09615385,,,,,,,,,
,,,,,,,,,,,,0,2,2,2,1,third,5,21,Female,R,Donders,2021-07-11_13h28.43.025,ImageRatingTask_S4,2021.1.4,Win32,60.09615385,,,,,,,,,
,,,,,,,,,,,,0,3,3,3,1,fourth,5,21,Female,R,Donders,2021-07-11_13h28.43.025,ImageRatingTask_S4,2021.1.4,Win32,60.09615385,,,,,,,,,
,,,,,,,,,,,,0,4,4,4,1,fifth,5,21,Female,R,Donders,2021-07-11_13h28.43.025,ImageRatingTask_S4,2021.1.4,Win32,60.09615385,,,,,,,,,
,,,,,,,,,,,,0,5,5,5,1,sixth,5,21,Female,R,Donders,2021-07-11_13h28.43.025,ImageRatingTask_S4,2021.1.4,Win32,60.09615385,,,,,,,,,
,,,,,,,,,,,,0,6,6,6,1,seventh,5,21,Female,R,Donders,2021-07-11_13h28.43.025,ImageRatingTask_S4,2021.1.4,Win32,60.09615385,,,,,,,,,
,,,,,,,,,,,,0,7,7,7,1,last,5,21,Female,R,Donders,2021-07-11_13h28.43.025,ImageRatingTask_S4,2021.1.4,Win32,60.09615385,,,,,,,,,
,,,,,,,,,,,,,,,,,,5,21,Female,R,Donders,2021-07-11_13h28.43.025,ImageRatingTask_S4,2021.1.4,Win32,60.09615385,0,9,9,61,1,DreamStudyImages_rs1000x750g/Houses/Landscapes_094_h.jpg,,,
,,1,2.7509,7,2.6442,7,1.4789,1,1.829,3,0.811,0,0,0,0,1,main,5,21,Female,R,Donders,2021-07-11_13h28.43.025,ImageRatingTask_S4,2021.1.4,Win32,60.09615385,,,,,,,,,
,,,,,,,,,,,,0,1,1,1,1,second,5,21,Female,R,Donders,2021-07-11_13h28.43.025,ImageRatingTask_S4,2021.1.4,Win32,60.09615385,,,,,,,,,
,,,,,,,,,,,,0,2,2,2,1,third,5,21,Female,R,Donders,2021-07-11_13h28.43.025,ImageRatingTask_S4,2021.1.4,Win32,60.09615385,,,,,,,,,
,,,,,,,,,,,,0,3,3,3,1,fourth,5,21,Female,R,Donders,2021-07-11_13h28.43.025,ImageRatingTask_S4,2021.1.4,Win32,60.09615385,,,,,,,,,
,,,,,,,,,,,,0,4,4,4,1,fifth,5,21,Female,R,Donders,2021-07-11_13h28.43.025,ImageRatingTask_S4,2021.1.4,Win32,60.09615385,,,,,,,,,
,,,,,,,,,,,,0,5,5,5,1,sixth,5,21,Female,R,Donders,2021-07-11_13h28.43.025,ImageRatingTask_S4,2021.1.4,Win32,60.09615385,,,,,,,,,
,,,,,,,,,,,,0,6,6,6,1,seventh,5,21,Female,R,Donders,2021-07-11_13h28.43.025,ImageRatingTask_S4,2021.1.4,Win32,60.09615385,,,,,,,,,
,,,,,,,,,,,,0,7,7,7,1,last,5,21,Female,R,Donders,2021-07-11_13h28.43.025,ImageRatingTask_S4,2021.1.4,Win32,60.09615385,,,,,,,,,
,,,,,,,,,,,,,,,,,,5,21,Female,R,Donders,2021-07-11_13h28.43.025,ImageRatingTask_S4,2021.1.4,Win32,60.09615385,0,10,10,76,1,DreamStudyImages_rs1000x750g/Mammals/Dog 31.jpg,,,
,,5,12.4054,5,0.022,7,1.4048,1,1.7819,8,0.1153,0,0,0,0,1,main,5,21,Female,R,Donders,2021-07-11_13h28.43.025,ImageRatingTask_S4,2021.1.4,Win32,60.09615385,,,,,,,,,
,,,,,,,,,,,,0,1,1,1,1,second,5,21,Female,R,Donders,2021-07-11_13h28.43.025,ImageRatingTask_S4,2021.1.4,Win32,60.09615385,,,,,,,,,
,,,,,,,,,,,,0,2,2,2,1,third,5,21,Female,R,Donders,2021-07-11_13h28.43.025,ImageRatingTask_S4,2021.1.4,Win32,60.09615385,,,,,,,,,
,,,,,,,,,,,,0,3,3,3,1,fourth,5,21,Female,R,Donders,2021-07-11_13h28.43.025,ImageRatingTask_S4,2021.1.4,Win32,60.09615385,,,,,,,,,
,,,,,,,,,,,,0,4,4,4,1,fifth,5,21,Female,R,Donders,2021-07-11_13h28.43.025,ImageRatingTask_S4,2021.1.4,Win32,60.09615385,,,,,,,,,
,,,,,,,,,,,,0,5,5,5,1,sixth,5,21,Female,R,Donders,2021-07-11_13h28.43.025,ImageRatingTask_S4,2021.1.4,Win32,60.09615385,,,,,,,,,
,,,,,,,,,,,,0,6,6,6,1,seventh,5,21,Female,R,Donders,2021-07-11_13h28.43.025,ImageRatingTask_S4,2021.1.4,Win32,60.09615385,,,,,,,,,
,,,,,,,,,,,,0,7,7,7,1,last,5,21,Female,R,Donders,2021-07-11_13h28.43.025,ImageRatingTask_S4,2021.1.4,Win32,60.09615385,,,,,,,,,
,,,,,,,,,,,,,,,,,,5,21,Female,R,Donders,2021-07-11_13h28.43.025,ImageRatingTask_S4,2021.1.4,Win32,60.09615385,0,11,11,45,1,DreamStudyImages_rs1000x750g/Water/Landscapes_129_v.jpg,,,
,,5,2.9274,5,0.2525,7,1.7141,1,0.8465,2,0.2396,0,0,0,0,1,main,5,21,Female,R,Donders,2021-07-11_13h28.43.025,ImageRatingTask_S4,2021.1.4,Win32,60.09615385,,,,,,,,,
,,,,,,,,,,,,0,1,1,1,1,second,5,21,Female,R,Donders,2021-07-11_13h28.43.025,ImageRatingTask_S4,2021.1.4,Win32,60.09615385,,,,,,,,,
,,,,,,,,,,,,0,2,2,2,1,third,5,21,Female,R,Donders,2021-07-11_13h28.43.025,ImageRatingTask_S4,2021.1.4,Win32,60.09615385,,,,,,,,,
,,,,,,,,,,,,0,3,3,3,1,fourth,5,21,Female,R,Donders,2021-07-11_13h28.43.025,ImageRatingTask_S4,2021.1.4,Win32,60.09615385,,,,,,,,,
,,,,,,,,,,,,0,4,4,4,1,fifth,5,21,Female,R,Donders,2021-07-11_13h28.43.025,ImageRatingTask_S4,2021.1.4,Win32,60.09615385,,,,,,,,,
,,,,,,,,,,,,0,5,5,5,1,sixth,5,21,Female,R,Donders,2021-07-11_13h28.43.025,ImageRatingTask_S4,2021.1.4,Win32,60.09615385,,,,,,,,,
,,,,,,,,,,,,0,6,6,6,1,seventh,5,21,Female,R,Donders,2021-07-11_13h28.43.025,ImageRatingTask_S4,2021.1.4,Win32,60.09615385,,,,,,,,,
,,,,,,,,,,,,0,7,7,7,1,last,5,21,Female,R,Donders,2021-07-11_13h28.43.025,ImageRatingTask_S4,2021.1.4,Win32,60.09615385,,,,,,,,,
,,,,,,,,,,,,,,,,,,5,21,Female,R,Donders,2021-07-11_13h28.43.025,ImageRatingTask_S4,2021.1.4,Win32,60.09615385,0,12,12,48,1,DreamStudyImages_rs1000x750g/Children/Faces_123_h.jpg,,,
,,8,19.0613,4,1.4574,7,1.7994,2,2.0898,7,0.7544,0,0,0,0,1,main,5,21,Female,R,Donders,2021-07-11_13h28.43.025,ImageRatingTask_S4,2021.1.4,Win32,60.09615385,,,,,,,,,
,,,,,,,,,,8,0.3996,0,1,1,1,1,second,5,21,Female,R,Donders,2021-07-11_13h28.43.025,ImageRatingTask_S4,2021.1.4,Win32,60.09615385,,,,,,,,,
,,,,,,,,,,,,0,2,2,2,1,third,5,21,Female,R,Donders,2021-07-11_13h28.43.025,ImageRatingTask_S4,2021.1.4,Win32,60.09615385,,,,,,,,,
,,,,,,,,,,,,0,3,3,3,1,fourth,5,21,Female,R,Donders,2021-07-11_13h28.43.025,ImageRatingTask_S4,2021.1.4,Win32,60.09615385,,,,,,,,,
,,,,,,,,,,,,0,4,4,4,1,fifth,5,21,Female,R,Donders,2021-07-11_13h28.43.025,ImageRatingTask_S4,2021.1.4,Win32,60.09615385,,,,,,,,,
,,,,,,,,,,,,0,5,5,5,1,sixth,5,21,Female,R,Donders,2021-07-11_13h28.43.025,ImageRatingTask_S4,2021.1.4,Win32,60.09615385,,,,,,,,,
,,,,,,,,,,,,0,6,6,6,1,seventh,5,21,Female,R,Donders,2021-07-11_13h28.43.025,ImageRatingTask_S4,2021.1.4,Win32,60.09615385,,,,,,,,,
,,,,,,,,,,,,0,7,7,7,1,last,5,21,Female,R,Donders,2021-07-11_13h28.43.025,ImageRatingTask_S4,2021.1.4,Win32,60.09615385,,,,,,,,,
,,,,,,,,,,,,,,,,,,5,21,Female,R,Donders,2021-07-11_13h28.43.025,ImageRatingTask_S4,2021.1.4,Win32,60.09615385,0,13,13,63,1,DreamStudyImages_rs1000x750g/Vehicles/Objects_280_v.jpg,,,
,,3,2.2896,5,1.1423,7,2.584,1,1.4145,6,0.091,0,0,0,0,1,main,5,21,Female,R,Donders,2021-07-11_13h28.43.025,ImageRatingTask_S4,2021.1.4,Win32,60.09615385,,,,,,,,,
,,,,,,,,,,,,0,1,1,1,1,second,5,21,Female,R,Donders,2021-07-11_13h28.43.025,ImageRatingTask_S4,2021.1.4,Win32,60.09615385,,,,,,,,,
,,,,,,,,,,,,0,2,2,2,1,third,5,21,Female,R,Donders,2021-07-11_13h28.43.025,ImageRatingTask_S4,2021.1.4,Win32,60.09615385,,,,,,,,,
,,,,,,,,,,,,0,3,3,3,1,fourth,5,21,Female,R,Donders,2021-07-11_13h28.43.025,ImageRatingTask_S4,2021.1.4,Win32,60.09615385,,,,,,,,,
,,,,,,,,,,,,0,4,4,4,1,fifth,5,21,Female,R,Donders,2021-07-11_13h28.43.025,ImageRatingTask_S4,2021.1.4,Win32,60.09615385,,,,,,,,,
,,,,,,,,,,,,0,5,5,5,1,sixth,5,21,Female,R,Donders,2021-07-11_13h28.43.025,ImageRatingTask_S4,2021.1.4,Win32,60.09615385,,,,,,,,,
,,,,,,,,,,,,0,6,6,6,1,seventh,5,21,Female,R,Donders,2021-07-11_13h28.43.025,ImageRatingTask_S4,2021.1.4,Win32,60.09615385,,,,,,,,,
,,,,,,,,,,,,0,7,7,7,1,last,5,21,Female,R,Donders,2021-07-11_13h28.43.025,ImageRatingTask_S4,2021.1.4,Win32,60.09615385,,,,,,,,,
,,,,,,,,,,,,,,,,,,5,21,Female,R,Donders,2021-07-11_13h28.43.025,ImageRatingTask_S4,2021.1.4,Win32,60.09615385,0,14,14,68,1,DreamStudyImages_rs1000x750g/Houses/NDPS25_houses3.jpg,,,
,,5,1.9198,5,0.0263,8,1.6451,0,1.2218,,,0,0,0,0,1,main,5,21,Female,R,Donders,2021-07-11_13h28.43.025,ImageRatingTask_S4,2021.1.4,Win32,60.09615385,,,,,,,,,
,,,,,,,,,,,,0,1,1,1,1,second,5,21,Female,R,Donders,2021-07-11_13h28.43.025,ImageRatingTask_S4,2021.1.4,Win32,60.09615385,,,,,,,,,
,,,,,,,,,,,,0,2,2,2,1,third,5,21,Female,R,Donders,2021-07-11_13h28.43.025,ImageRatingTask_S4,2021.1.4,Win32,60.09615385,,,,,,,,,
,,,,,,,,,,,,0,3,3,3,1,fourth,5,21,Female,R,Donders,2021-07-11_13h28.43.025,ImageRatingTask_S4,2021.1.4,Win32,60.09615385,,,,,,,,,
,,,,,,,,,,,,0,4,4,4,1,fifth,5,21,Female,R,Donders,2021-07-11_13h28.43.025,ImageRatingTask_S4,2021.1.4,Win32,60.09615385,,,,,,,,,
,,,,,,,,,,,,0,5,5,5,1,sixth,5,21,Female,R,Donders,2021-07-11_13h28.43.025,ImageRatingTask_S4,2021.1.4,Win32,60.09615385,,,,,,,,,
,,,,,,,,,,,,0,6,6,6,1,seventh,5,21,Female,R,Donders,2021-07-11_13h28.43.025,ImageRatingTask_S4,2021.1.4,Win32,60.09615385,,,,,,,,,
,,,,,,,,,,,,0,7,7,7,1,last,5,21,Female,R,Donders,2021-07-11_13h28.43.025,ImageRatingTask_S4,2021.1.4,Win32,60.09615385,,,,,,,,,
,,,,,,,,,,,,,,,,,,5,21,Female,R,Donders,2021-07-11_13h28.43.025,ImageRatingTask_S4,2021.1.4,Win32,60.09615385,0,15,15,2,1,DreamStudyImages_rs1000x750g/Houses/Objects_128_h.jpg,,,
,,5,2.6246,5,0.0596,7,3.9412,1,1.0182,6,0.1434,0,0,0,0,1,main,5,21,Female,R,Donders,2021-07-11_13h28.43.025,ImageRatingTask_S4,2021.1.4,Win32,60.09615385,,,,,,,,,
,,,,,,,,,,,,0,1,1,1,1,second,5,21,Female,R,Donders,2021-07-11_13h28.43.025,ImageRatingTask_S4,2021.1.4,Win32,60.09615385,,,,,,,,,
,,,,,,,,,,,,0,2,2,2,1,third,5,21,Female,R,Donders,2021-07-11_13h28.43.025,ImageRatingTask_S4,2021.1.4,Win32,60.09615385,,,,,,,,,
,,,,,,,,,,,,0,3,3,3,1,fourth,5,21,Female,R,Donders,2021-07-11_13h28.43.025,ImageRatingTask_S4,2021.1.4,Win32,60.09615385,,,,,,,,,
,,,,,,,,,,,,0,4,4,4,1,fifth,5,21,Female,R,Donders,2021-07-11_13h28.43.025,ImageRatingTask_S4,2021.1.4,Win32,60.09615385,,,,,,,,,
,,,,,,,,,,,,0,5,5,5,1,sixth,5,21,Female,R,Donders,2021-07-11_13h28.43.025,ImageRatingTask_S4,2021.1.4,Win32,60.09615385,,,,,,,,,
,,,,,,,,,,,,0,6,6,6,1,seventh,5,21,Female,R,Donders,2021-07-11_13h28.43.025,ImageRatingTask_S4,2021.1.4,Win32,60.09615385,,,,,,,,,
,,,,,,,,,,,,0,7,7,7,1,last,5,21,Female,R,Donders,2021-07-11_13h28.43.025,ImageRatingTask_S4,2021.1.4,Win32,60.09615385,,,,,,,,,
,,,,,,,,,,,,,,,,,,5,21,Female,R,Donders,2021-07-11_13h28.43.025,ImageRatingTask_S4,2021.1.4,Win32,60.09615385,0,16,16,98,1,DreamStudyImages_rs1000x750g/Houses/Landscapes_014_h.jpg,,,
,,9,1.8006,2,1.7762,6,1.9082,1,0.894,3,0.7809,0,0,0,0,1,main,5,21,Female,R,Donders,2021-07-11_13h28.43.025,ImageRatingTask_S4,2021.1.4,Win32,60.09615385,,,,,,,,,
,,,,,,,,,,,,0,1,1,1,1,second,5,21,Female,R,Donders,2021-07-11_13h28.43.025,ImageRatingTask_S4,2021.1.4,Win32,60.09615385,,,,,,,,,
,,,,,,,,,,,,0,2,2,2,1,third,5,21,Female,R,Donders,2021-07-11_13h28.43.025,ImageRatingTask_S4,2021.1.4,Win32,60.09615385,,,,,,,,,
,,,,,,,,,,,,0,3,3,3,1,fourth,5,21,Female,R,Donders,2021-07-11_13h28.43.025,ImageRatingTask_S4,2021.1.4,Win32,60.09615385,,,,,,,,,
,,,,,,,,,,,,0,4,4,4,1,fifth,5,21,Female,R,Donders,2021-07-11_13h28.43.025,ImageRatingTask_S4,2021.1.4,Win32,60.09615385,,,,,,,,,
,,,,,,,,,,,,0,5,5,5,1,sixth,5,21,Female,R,Donders,2021-07-11_13h28.43.025,ImageRatingTask_S4,2021.1.4,Win32,60.09615385,,,,,,,,,
,,,,,,,,,,,,0,6,6,6,1,seventh,5,21,Female,R,Donders,2021-07-11_13h28.43.025,ImageRatingTask_S4,2021.1.4,Win32,60.09615385,,,,,,,,,
,,,,,,,,,,,,0,7,7,7,1,last,5,21,Female,R,Donders,2021-07-11_13h28.43.025,ImageRatingTask_S4,2021.1.4,Win32,60.09615385,,,,,,,,,
,,,,,,,,,,,,,,,,,,5,21,Female,R,Donders,2021-07-11_13h28.43.025,ImageRatingTask_S4,2021.1.4,Win32,60.09615385,0,17,17,148,1,DreamStudyImages_rs1000x750g/Mammals/IAPS1441_polarbear.jpg,,,
,,9,1.4171,1,1.6202,7,2.8498,1,1.261,8,0.221,0,0,0,0,1,main,5,21,Female,R,Donders,2021-07-11_13h28.43.025,ImageRatingTask_S4,2021.1.4,Win32,60.09615385,,,,,,,,,
,,,,,,,,,,,,0,1,1,1,1,second,5,21,Female,R,Donders,2021-07-11_13h28.43.025,ImageRatingTask_S4,2021.1.4,Win32,60.09615385,,,,,,,,,
,,,,,,,,,,,,0,2,2,2,1,third,5,21,Female,R,Donders,2021-07-11_13h28.43.025,ImageRatingTask_S4,2021.1.4,Win32,60.09615385,,,,,,,,,
,,,,,,,,,,,,0,3,3,3,1,fourth,5,21,Female,R,Donders,2021-07-11_13h28.43.025,ImageRatingTask_S4,2021.1.4,Win32,60.09615385,,,,,,,,,
,,,,,,,,,,,,0,4,4,4,1,fifth,5,21,Female,R,Donders,2021-07-11_13h28.43.025,ImageRatingTask_S4,2021.1.4,Win32,60.09615385,,,,,,,,,
,,,,,,,,,,,,0,5,5,5,1,sixth,5,21,Female,R,Donders,2021-07-11_13h28.43.025,ImageRatingTask_S4,2021.1.4,Win32,60.09615385,,,,,,,,,
,,,,,,,,,,,,0,6,6,6,1,seventh,5,21,Female,R,Donders,2021-07-11_13h28.43.025,ImageRatingTask_S4,2021.1.4,Win32,60.09615385,,,,,,,,,
,,,,,,,,,,,,0,7,7,7,1,last,5,21,Female,R,Donders,2021-07-11_13h28.43.025,ImageRatingTask_S4,2021.1.4,Win32,60.09615385,,,,,,,,,
,,,,,,,,,,,,,,,,,,5,21,Female,R,Donders,2021-07-11_13h28.43.025,ImageRatingTask_S4,2021.1.4,Win32,60.09615385,0,18,18,152,1,DreamStudyImages_rs1000x750g/Water/sunsetsea.jpg,,,
,,4,1.9572,5,1.2248,7,2.6167,1,0.9796,6,0.1106,0,0,0,0,1,main,5,21,Female,R,Donders,2021-07-11_13h28.43.025,ImageRatingTask_S4,2021.1.4,Win32,60.09615385,,,,,,,,,
,,,,,,,,,,,,0,1,1,1,1,second,5,21,Female,R,Donders,2021-07-11_13h28.43.025,ImageRatingTask_S4,2021.1.4,Win32,60.09615385,,,,,,,,,
,,,,,,,,,,,,0,2,2,2,1,third,5,21,Female,R,Donders,2021-07-11_13h28.43.025,ImageRatingTask_S4,2021.1.4,Win32,60.09615385,,,,,,,,,
,,,,,,,,,,,,0,3,3,3,1,fourth,5,21,Female,R,Donders,2021-07-11_13h28.43.025,ImageRatingTask_S4,2021.1.4,Win32,60.09615385,,,,,,,,,
,,,,,,,,,,,,0,4,4,4,1,fifth,5,21,Female,R,Donders,2021-07-11_13h28.43.025,ImageRatingTask_S4,2021.1.4,Win32,60.09615385,,,,,,,,,
,,,,,,,,,,,,0,5,5,5,1,sixth,5,21,Female,R,Donders,2021-07-11_13h28.43.025,ImageRatingTask_S4,2021.1.4,Win32,60.09615385,,,,,,,,,
,,,,,,,,,,,,0,6,6,6,1,seventh,5,21,Female,R,Donders,2021-07-11_13h28.43.025,ImageRatingTask_S4,2021.1.4,Win32,60.09615385,,,,,,,,,
,,,,,,,,,,,,0,7,7,7,1,last,5,21,Female,R,Donders,2021-07-11_13h28.43.025,ImageRatingTask_S4,2021.1.4,Win32,60.09615385,,,,,,,,,
,,,,,,,,,,,,,,,,,,5,21,Female,R,Donders,2021-07-11_13h28.43.025,ImageRatingTask_S4,2021.1.4,Win32,60.09615385,0,19,19,99,1,DreamStudyImages_rs1000x750g/Houses/IAPS9469_ruins.jpg,,,
,,3,2.2474,5,1.6238,8,2.6396,1,0.8859,2,0.0472,0,0,0,0,1,main,5,21,Female,R,Donders,2021-07-11_13h28.43.025,ImageRatingTask_S4,2021.1.4,Win32,60.09615385,,,,,,,,,
,,,,,,,,,,,,0,1,1,1,1,second,5,21,Female,R,Donders,2021-07-11_13h28.43.025,ImageRatingTask_S4,2021.1.4,Win32,60.09615385,,,,,,,,,
,,,,,,,,,,,,0,2,2,2,1,third,5,21,Female,R,Donders,2021-07-11_13h28.43.025,ImageRatingTask_S4,2021.1.4,Win32,60.09615385,,,,,,,,,
,,,,,,,,,,,,0,3,3,3,1,fourth,5,21,Female,R,Donders,2021-07-11_13h28.43.025,ImageRatingTask_S4,2021.1.4,Win32,60.09615385,,,,,,,,,
,,,,,,,,,,,,0,4,4,4,1,fifth,5,21,Female,R,Donders,2021-07-11_13h28.43.025,ImageRatingTask_S4,2021.1.4,Win32,60.09615385,,,,,,,,,
,,,,,,,,,,,,0,5,5,5,1,sixth,5,21,Female,R,Donders,2021-07-11_13h28.43.025,ImageRatingTask_S4,2021.1.4,Win32,60.09615385,,,,,,,,,
,,,,,,,,,,,,0,6,6,6,1,seventh,5,21,Female,R,Donders,2021-07-11_13h28.43.025,ImageRatingTask_S4,2021.1.4,Win32,60.09615385,,,,,,,,,
,,,,,,,,,,,,0,7,7,7,1,last,5,21,Female,R,Donders,2021-07-11_13h28.43.025,ImageRatingTask_S4,2021.1.4,Win32,60.09615385,,,,,,,,,
,,,,,,,,,,,,,,,,,,5,21,Female,R,Donders,2021-07-11_13h28.43.025,ImageRatingTask_S4,2021.1.4,Win32,60.09615385,0,20,20,153,1,DreamStudyImages_rs1000x750g/Children/Faces_011_h.jpg,,,
,,7,3.7803,5,1.911,7,3.1572,1,1.4045,6,0.0156,0,0,0,0,1,main,5,21,Female,R,Donders,2021-07-11_13h28.43.025,ImageRatingTask_S4,2021.1.4,Win32,60.09615385,,,,,,,,,
,,,,,,,,,,,,0,1,1,1,1,second,5,21,Female,R,Donders,2021-07-11_13h28.43.025,ImageRatingTask_S4,2021.1.4,Win32,60.09615385,,,,,,,,,
,,,,,,,,,,,,0,2,2,2,1,third,5,21,Female,R,Donders,2021-07-11_13h28.43.025,ImageRatingTask_S4,2021.1.4,Win32,60.09615385,,,,,,,,,
,,,,,,,,,,,,0,3,3,3,1,fourth,5,21,Female,R,Donders,2021-07-11_13h28.43.025,ImageRatingTask_S4,2021.1.4,Win32,60.09615385,,,,,,,,,
,,,,,,,,,,,,0,4,4,4,1,fifth,5,21,Female,R,Donders,2021-07-11_13h28.43.025,ImageRatingTask_S4,2021.1.4,Win32,60.09615385,,,,,,,,,
,,,,,,,,,,,,0,5,5,5,1,sixth,5,21,Female,R,Donders,2021-07-11_13h28.43.025,ImageRatingTask_S4,2021.1.4,Win32,60.09615385,,,,,,,,,
,,,,,,,,,,,,0,6,6,6,1,seventh,5,21,Female,R,Donders,2021-07-11_13h28.43.025,ImageRatingTask_S4,2021.1.4,Win32,60.09615385,,,,,,,,,
,,,,,,,,,,,,0,7,7,7,1,last,5,21,Female,R,Donders,2021-07-11_13h28.43.025,ImageRatingTask_S4,2021.1.4,Win32,60.09615385,,,,,,,,,
,,,,,,,,,,,,,,,,,,5,21,Female,R,Donders,2021-07-11_13h28.43.025,ImageRatingTask_S4,2021.1.4,Win32,60.09615385,0,21,21,113,1,DreamStudyImages_rs1000x750g/Houses/Landscapes_034_h.jpg,,,
,,7,3.5707,7,1.3052,7,1.6629,1,1.6836,5,0.1607,0,0,0,0,1,main,5,21,Female,R,Donders,2021-07-11_13h28.43.025,ImageRatingTask_S4,2021.1.4,Win32,60.09615385,,,,,,,,,
,,,,,,,,,,,,0,1,1,1,1,second,5,21,Female,R,Donders,2021-07-11_13h28.43.025,ImageRatingTask_S4,2021.1.4,Win32,60.09615385,,,,,,,,,
,,,,,,,,,,,,0,2,2,2,1,third,5,21,Female,R,Donders,2021-07-11_13h28.43.025,ImageRatingTask_S4,2021.1.4,Win32,60.09615385,,,,,,,,,
,,,,,,,,,,,,0,3,3,3,1,fourth,5,21,Female,R,Donders,2021-07-11_13h28.43.025,ImageRatingTask_S4,2021.1.4,Win32,60.09615385,,,,,,,,,
,,,,,,,,,,,,0,4,4,4,1,fifth,5,21,Female,R,Donders,2021-07-11_13h28.43.025,ImageRatingTask_S4,2021.1.4,Win32,60.09615385,,,,,,,,,
,,,,,,,,,,,,0,5,5,5,1,sixth,5,21,Female,R,Donders,2021-07-11_13h28.43.025,ImageRatingTask_S4,2021.1.4,Win32,60.09615385,,,,,,,,,
,,,,,,,,,,,,0,6,6,6,1,seventh,5,21,Female,R,Donders,2021-07-11_13h28.43.025,ImageRatingTask_S4,2021.1.4,Win32,60.09615385,,,,,,,,,
,,,,,,,,,,,,0,7,7,7,1,last,5,21,Female,R,Donders,2021-07-11_13h28.43.025,ImageRatingTask_S4,2021.1.4,Win32,60.09615385,,,,,,,,,
,,,,,,,,,,,,,,,,,,5,21,Female,R,Donders,2021-07-11_13h28.43.025,ImageRatingTask_S4,2021.1.4,Win32,60.09615385,0,22,22,149,1,DreamStudyImages_rs1000x750g/Food/Objects_031_h.jpg,,,
,,8,3.8654,1,0.4757,7,1.2853,1,0.5866,6,0.6961,0,0,0,0,1,main,5,21,Female,R,Donders,2021-07-11_13h28.43.025,ImageRatingTask_S4,2021.1.4,Win32,60.09615385,,,,,,,,,
,,,,,,,,,,,,0,1,1,1,1,second,5,21,Female,R,Donders,2021-07-11_13h28.43.025,ImageRatingTask_S4,2021.1.4,Win32,60.09615385,,,,,,,,,
,,,,,,,,,,,,0,2,2,2,1,third,5,21,Female,R,Donders,2021-07-11_13h28.43.025,ImageRatingTask_S4,2021.1.4,Win32,60.09615385,,,,,,,,,
,,,,,,,,,,,,0,3,3,3,1,fourth,5,21,Female,R,Donders,2021-07-11_13h28.43.025,ImageRatingTask_S4,2021.1.4,Win32,60.09615385,,,,,,,,,
,,,,,,,,,,,,0,4,4,4,1,fifth,5,21,Female,R,Donders,2021-07-11_13h28.43.025,ImageRatingTask_S4,2021.1.4,Win32,60.09615385,,,,,,,,,
,,,,,,,,,,,,0,5,5,5,1,sixth,5,21,Female,R,Donders,2021-07-11_13h28.43.025,ImageRatingTask_S4,2021.1.4,Win32,60.09615385,,,,,,,,,
,,,,,,,,,,,,0,6,6,6,1,seventh,5,21,Female,R,Donders,2021-07-11_13h28.43.025,ImageRatingTask_S4,2021.1.4,Win32,60.09615385,,,,,,,,,
,,,,,,,,,,,,0,7,7,7,1,last,5,21,Female,R,Donders,2021-07-11_13h28.43.025,ImageRatingTask_S4,2021.1.4,Win32,60.09615385,,,,,,,,,
,,,,,,,,,,,,,,,,,,5,21,Female,R,Donders,2021-07-11_13h28.43.025,ImageRatingTask_S4,2021.1.4,Win32,60.09615385,0,23,23,131,1,DreamStudyImages_rs1000x750g/Houses/Bricks 1.jpg,,,
,,5,5.9735,5,0.0521,7,1.6605,1,0.6761,3,0.7829,0,0,0,0,1,main,5,21,Female,R,Donders,2021-07-11_13h28.43.025,ImageRatingTask_S4,2021.1.4,Win32,60.09615385,,,,,,,,,
,,,,,,,,,,,,0,1,1,1,1,second,5,21,Female,R,Donders,2021-07-11_13h28.43.025,ImageRatingTask_S4,2021.1.4,Win32,60.09615385,,,,,,,,,
,,,,,,,,,,,,0,2,2,2,1,third,5,21,Female,R,Donders,2021-07-11_13h28.43.025,ImageRatingTask_S4,2021.1.4,Win32,60.09615385,,,,,,,,,
,,,,,,,,,,,,0,3,3,3,1,fourth,5,21,Female,R,Donders,2021-07-11_13h28.43.025,ImageRatingTask_S4,2021.1.4,Win32,60.09615385,,,,,,,,,
,,,,,,,,,,,,0,4,4,4,1,fifth,5,21,Female,R,Donders,2021-07-11_13h28.43.025,ImageRatingTask_S4,2021.1.4,Win32,60.09615385,,,,,,,,,
,,,,,,,,,,,,0,5,5,5,1,sixth,5,21,Female,R,Donders,2021-07-11_13h28.43.025,ImageRatingTask_S4,2021.1.4,Win32,60.09615385,,,,,,,,,
,,,,,,,,,,,,0,6,6,6,1,seventh,5,21,Female,R,Donders,2021-07-11_13h28.43.025,ImageRatingTask_S4,2021.1.4,Win32,60.09615385,,,,,,,,,
,,,,,,,,,,,,0,7,7,7,1,last,5,21,Female,R,Donders,2021-07-11_13h28.43.025,ImageRatingTask_S4,2021.1.4,Win32,60.09615385,,,,,,,,,
,,,,,,,,,,,,,,,,,,5,21,Female,R,Donders,2021-07-11_13h28.43.025,ImageRatingTask_S4,2021.1.4,Win32,60.09615385,0,24,24,16,1,DreamStudyImages_rs1000x750g/Mammals/Animals_211_h.jpg,,,
,,5,5.3581,5,0.326,8,2.9925,1,0.7899,3,1.0116,0,0,0,0,1,main,5,21,Female,R,Donders,2021-07-11_13h28.43.025,ImageRatingTask_S4,2021.1.4,Win32,60.09615385,,,,,,,,,
,,,,,,,,,,,,0,1,1,1,1,second,5,21,Female,R,Donders,2021-07-11_13h28.43.025,ImageRatingTask_S4,2021.1.4,Win32,60.09615385,,,,,,,,,
,,,,,,,,,,,,0,2,2,2,1,third,5,21,Female,R,Donders,2021-07-11_13h28.43.025,ImageRatingTask_S4,2021.1.4,Win32,60.09615385,,,,,,,,,
,,,,,,,,,,,,0,3,3,3,1,fourth,5,21,Female,R,Donders,2021-07-11_13h28.43.025,ImageRatingTask_S4,2021.1.4,Win32,60.09615385,,,,,,,,,
,,,,,,,,,,,,0,4,4,4,1,fifth,5,21,Female,R,Donders,2021-07-11_13h28.43.025,ImageRatingTask_S4,2021.1.4,Win32,60.09615385,,,,,,,,,
,,,,,,,,,,,,0,5,5,5,1,sixth,5,21,Female,R,Donders,2021-07-11_13h28.43.025,ImageRatingTask_S4,2021.1.4,Win32,60.09615385,,,,,,,,,
,,,,,,,,,,,,0,6,6,6,1,seventh,5,21,Female,R,Donders,2021-07-11_13h28.43.025,ImageRatingTask_S4,2021.1.4,Win32,60.09615385,,,,,,,,,
,,,,,,,,,,,,0,7,7,7,1,last,5,21,Female,R,Donders,2021-07-11_13h28.43.025,ImageRatingTask_S4,2021.1.4,Win32,60.09615385,,,,,,,,,
,,,,,,,,,,,,,,,,,,5,21,Female,R,Donders,2021-07-11_13h28.43.025,ImageRatingTask_S4,2021.1.4,Win32,60.09615385,0,25,25,87,1,DreamStudyImages_rs1000x750g/Mammals/Animals_192_h.jpg,,,
,,5,2.0377,5,0.1033,7,1.7711,1,0.9509,3,0.5675,0,0,0,0,1,main,5,21,Female,R,Donders,2021-07-11_13h28.43.025,ImageRatingTask_S4,2021.1.4,Win32,60.09615385,,,,,,,,,
,,,,,,,,,,,,0,1,1,1,1,second,5,21,Female,R,Donders,2021-07-11_13h28.43.025,ImageRatingTask_S4,2021.1.4,Win32,60.09615385,,,,,,,,,
,,,,,,,,,,,,0,2,2,2,1,third,5,21,Female,R,Donders,2021-07-11_13h28.43.025,ImageRatingTask_S4,2021.1.4,Win32,60.09615385,,,,,,,,,
,,,,,,,,,,,,0,3,3,3,1,fourth,5,21,Female,R,Donders,2021-07-11_13h28.43.025,ImageRatingTask_S4,2021.1.4,Win32,60.09615385,,,,,,,,,
,,,,,,,,,,,,0,4,4,4,1,fifth,5,21,Female,R,Donders,2021-07-11_13h28.43.025,ImageRatingTask_S4,2021.1.4,Win32,60.09615385,,,,,,,,,
,,,,,,,,,,,,0,5,5,5,1,sixth,5,21,Female,R,Donders,2021-07-11_13h28.43.025,ImageRatingTask_S4,2021.1.4,Win32,60.09615385,,,,,,,,,
,,,,,,,,,,,,0,6,6,6,1,seventh,5,21,Female,R,Donders,2021-07-11_13h28.43.025,ImageRatingTask_S4,2021.1.4,Win32,60.09615385,,,,,,,,,
,,,,,,,,,,,,0,7,7,7,1,last,5,21,Female,R,Donders,2021-07-11_13h28.43.025,ImageRatingTask_S4,2021.1.4,Win32,60.09615385,,,,,,,,,
,,,,,,,,,,,,,,,,,,5,21,Female,R,Donders,2021-07-11_13h28.43.025,ImageRatingTask_S4,2021.1.4,Win32,60.09615385,0,26,26,147,1,DreamStudyImages_rs1000x750g/Children/IAPS2387_children13.jpg,,,
,,7,3.3733,4,1.6161,7,2.718,1,0.7399,5,0.695,0,0,0,0,1,main,5,21,Female,R,Donders,2021-07-11_13h28.43.025,ImageRatingTask_S4,2021.1.4,Win32,60.09615385,,,,,,,,,
,,,,,,,,,,,,0,1,1,1,1,second,5,21,Female,R,Donders,2021-07-11_13h28.43.025,ImageRatingTask_S4,2021.1.4,Win32,60.09615385,,,,,,,,,
,,,,,,,,,,,,0,2,2,2,1,third,5,21,Female,R,Donders,2021-07-11_13h28.43.025,ImageRatingTask_S4,2021.1.4,Win32,60.09615385,,,,,,,,,
,,,,,,,,,,,,0,3,3,3,1,fourth,5,21,Female,R,Donders,2021-07-11_13h28.43.025,ImageRatingTask_S4,2021.1.4,Win32,60.09615385,,,,,,,,,
,,,,,,,,,,,,0,4,4,4,1,fifth,5,21,Female,R,Donders,2021-07-11_13h28.43.025,ImageRatingTask_S4,2021.1.4,Win32,60.09615385,,,,,,,,,
,,,,,,,,,,,,0,5,5,5,1,sixth,5,21,Female,R,Donders,2021-07-11_13h28.43.025,ImageRatingTask_S4,2021.1.4,Win32,60.09615385,,,,,,,,,
,,,,,,,,,,,,0,6,6,6,1,seventh,5,21,Female,R,Donders,2021-07-11_13h28.43.025,ImageRatingTask_S4,2021.1.4,Win32,60.09615385,,,,,,,,,
,,,,,,,,,,,,0,7,7,7,1,last,5,21,Female,R,Donders,2021-07-11_13h28.43.025,ImageRatingTask_S4,2021.1.4,Win32,60.09615385,,,,,,,,,
,,,,,,,,,,,,,,,,,,5,21,Female,R,Donders,2021-07-11_13h28.43.025,ImageRatingTask_S4,2021.1.4,Win32,60.09615385,0,27,27,132,1,DreamStudyImages_rs1000x750g/Food/IAPS7350_pizza.jpg,,,
,,5,8.6788,5,23.9869,7,5.4914,1,3.7098,7,1.2578,0,0,0,0,1,main,5,21,Female,R,Donders,2021-07-11_13h28.43.025,ImageRatingTask_S4,2021.1.4,Win32,60.09615385,,,,,,,,,
,,,,,,,,,,,,0,1,1,1,1,second,5,21,Female,R,Donders,2021-07-11_13h28.43.025,ImageRatingTask_S4,2021.1.4,Win32,60.09615385,,,,,,,,,
,,,,,,,,,,,,0,2,2,2,1,third,5,21,Female,R,Donders,2021-07-11_13h28.43.025,ImageRatingTask_S4,2021.1.4,Win32,60.09615385,,,,,,,,,
,,,,,,,,,,,,0,3,3,3,1,fourth,5,21,Female,R,Donders,2021-07-11_13h28.43.025,ImageRatingTask_S4,2021.1.4,Win32,60.09615385,,,,,,,,,
,,,,,,,,,,,,0,4,4,4,1,fifth,5,21,Female,R,Donders,2021-07-11_13h28.43.025,ImageRatingTask_S4,2021.1.4,Win32,60.09615385,,,,,,,,,
,,,,,,,,,,,,0,5,5,5,1,sixth,5,21,Female,R,Donders,2021-07-11_13h28.43.025,ImageRatingTask_S4,2021.1.4,Win32,60.09615385,,,,,,,,,
,,,,,,,,,,,,0,6,6,6,1,seventh,5,21,Female,R,Donders,2021-07-11_13h28.43.025,ImageRatingTask_S4,2021.1.4,Win32,60.09615385,,,,,,,,,
,,,,,,,,,,,,0,7,7,7,1,last,5,21,Female,R,Donders,2021-07-11_13h28.43.025,ImageRatingTask_S4,2021.1.4,Win32,60.09615385,,,,,,,,,
,,,,,,,,,,,,,,,,,,5,21,Female,R,Donders,2021-07-11_13h28.43.025,ImageRatingTask_S4,2021.1.4,Win32,60.09615385,0,28,28,57,1,DreamStudyImages_rs1000x750g/Vehicles/5450.jpg,,,
,,5,3.1025,5,0.0776,7,2.1844,1,1.3423,6,0.5856,0,0,0,0,1,main,5,21,Female,R,Donders,2021-07-11_13h28.43.025,ImageRatingTask_S4,2021.1.4,Win32,60.09615385,,,,,,,,,
,,,,,,,,,,,,0,1,1,1,1,second,5,21,Female,R,Donders,2021-07-11_13h28.43.025,ImageRatingTask_S4,2021.1.4,Win32,60.09615385,,,,,,,,,
,,,,,,,,,,,,0,2,2,2,1,third,5,21,Female,R,Donders,2021-07-11_13h28.43.025,ImageRatingTask_S4,2021.1.4,Win32,60.09615385,,,,,,,,,
,,,,,,,,,,,,0,3,3,3,1,fourth,5,21,Female,R,Donders,2021-07-11_13h28.43.025,ImageRatingTask_S4,2021.1.4,Win32,60.09615385,,,,,,,,,
,,,,,,,,,,,,0,4,4,4,1,fifth,5,21,Female,R,Donders,2021-07-11_13h28.43.025,ImageRatingTask_S4,2021.1.4,Win32,60.09615385,,,,,,,,,
,,,,,,,,,,,,0,5,5,5,1,sixth,5,21,Female,R,Donders,2021-07-11_13h28.43.025,ImageRatingTask_S4,2021.1.4,Win32,60.09615385,,,,,,,,,
,,,,,,,,,,,,0,6,6,6,1,seventh,5,21,Female,R,Donders,2021-07-11_13h28.43.025,ImageRatingTask_S4,2021.1.4,Win32,60.09615385,,,,,,,,,
,,,,,,,,,,,,0,7,7,7,1,last,5,21,Female,R,Donders,2021-07-11_13h28.43.025,ImageRatingTask_S4,2021.1.4,Win32,60.09615385,,,,,,,,,
,,,,,,,,,,,,,,,,,,5,21,Female,R,Donders,2021-07-11_13h28.43.025,ImageRatingTask_S4,2021.1.4,Win32,60.09615385,0,29,29,114,1,DreamStudyImages_rs1000x750g/Houses/Objects_234_h.jpg,,,
,,3,9.4621,5,1.5721,7,8.4291,1,1.2868,7,0.0609,0,0,0,0,1,main,5,21,Female,R,Donders,2021-07-11_13h28.43.025,ImageRatingTask_S4,2021.1.4,Win32,60.09615385,,,,,,,,,
,,,,,,,,,,,,0,1,1,1,1,second,5,21,Female,R,Donders,2021-07-11_13h28.43.025,ImageRatingTask_S4,2021.1.4,Win32,60.09615385,,,,,,,,,
,,,,,,,,,,,,0,2,2,2,1,third,5,21,Female,R,Donders,2021-07-11_13h28.43.025,ImageRatingTask_S4,2021.1.4,Win32,60.09615385,,,,,,,,,
,,,,,,,,,,,,0,3,3,3,1,fourth,5,21,Female,R,Donders,2021-07-11_13h28.43.025,ImageRatingTask_S4,2021.1.4,Win32,60.09615385,,,,,,,,,
,,,,,,,,,,,,0,4,4,4,1,fifth,5,21,Female,R,Donders,2021-07-11_13h28.43.025,ImageRatingTask_S4,2021.1.4,Win32,60.09615385,,,,,,,,,
,,,,,,,,,,,,0,5,5,5,1,sixth,5,21,Female,R,Donders,2021-07-11_13h28.43.025,ImageRatingTask_S4,2021.1.4,Win32,60.09615385,,,,,,,,,
,,,,,,,,,,,,0,6,6,6,1,seventh,5,21,Female,R,Donders,2021-07-11_13h28.43.025,ImageRatingTask_S4,2021.1.4,Win32,60.09615385,,,,,,,,,
,,,,,,,,,,,,0,7,7,7,1,last,5,21,Female,R,Donders,2021-07-11_13h28.43.025,ImageRatingTask_S4,2021.1.4,Win32,60.09615385,,,,,,,,,
,,,,,,,,,,,,,,,,,,5,21,Female,R,Donders,2021-07-11_13h28.43.025,ImageRatingTask_S4,2021.1.4,Win32,60.09615385,0,30,30,155,1,DreamStudyImages_rs1000x750g/Vehicles/Car crash 1.jpg,,,
,,8,3.0797,3,1.5152,6,1.569,1,1.4337,5,0.7447,0,0,0,0,1,main,5,21,Female,R,Donders,2021-07-11_13h28.43.025,ImageRatingTask_S4,2021.1.4,Win32,60.09615385,,,,,,,,,
,,,,,,,,,,,,0,1,1,1,1,second,5,21,Female,R,Donders,2021-07-11_13h28.43.025,ImageRatingTask_S4,2021.1.4,Win32,60.09615385,,,,,,,,,
,,,,,,,,,,,,0,2,2,2,1,third,5,21,Female,R,Donders,2021-07-11_13h28.43.025,ImageRatingTask_S4,2021.1.4,Win32,60.09615385,,,,,,,,,
,,,,,,,,,,,,0,3,3,3,1,fourth,5,21,Female,R,Donders,2021-07-11_13h28.43.025,ImageRatingTask_S4,2021.1.4,Win32,60.09615385,,,,,,,,,
,,,,,,,,,,,,0,4,4,4,1,fifth,5,21,Female,R,Donders,2021-07-11_13h28.43.025,ImageRatingTask_S4,2021.1.4,Win32,60.09615385,,,,,,,,,
,,,,,,,,,,,,0,5,5,5,1,sixth,5,21,Female,R,Donders,2021-07-11_13h28.43.025,ImageRatingTask_S4,2021.1.4,Win32,60.09615385,,,,,,,,,
,,,,,,,,,,,,0,6,6,6,1,seventh,5,21,Female,R,Donders,2021-07-11_13h28.43.025,ImageRatingTask_S4,2021.1.4,Win32,60.09615385,,,,,,,,,
,,,,,,,,,,,,0,7,7,7,1,last,5,21,Female,R,Donders,2021-07-11_13h28.43.025,ImageRatingTask_S4,2021.1.4,Win32,60.09615385,,,,,,,,,
,,,,,,,,,,,,,,,,,,5,21,Female,R,Donders,2021-07-11_13h28.43.025,ImageRatingTask_S4,2021.1.4,Win32,60.09615385,0,31,31,150,1,DreamStudyImages_rs1000x750g/Food/Wedding 4.jpg,,,
,,9,1.7812,1,1.7721,6,3.7738,1,0.5447,8,0.5209,0,0,0,0,1,main,5,21,Female,R,Donders,2021-07-11_13h28.43.025,ImageRatingTask_S4,2021.1.4,Win32,60.09615385,,,,,,,,,
,,,,,,,,,,,,0,1,1,1,1,second,5,21,Female,R,Donders,2021-07-11_13h28.43.025,ImageRatingTask_S4,2021.1.4,Win32,60.09615385,,,,,,,,,
,,,,,,,,,,,,0,2,2,2,1,third,5,21,Female,R,Donders,2021-07-11_13h28.43.025,ImageRatingTask_S4,2021.1.4,Win32,60.09615385,,,,,,,,,
,,,,,,,,,,,,0,3,3,3,1,fourth,5,21,Female,R,Donders,2021-07-11_13h28.43.025,ImageRatingTask_S4,2021.1.4,Win32,60.09615385,,,,,,,,,
,,,,,,,,,,,,0,4,4,4,1,fifth,5,21,Female,R,Donders,2021-07-11_13h28.43.025,ImageRatingTask_S4,2021.1.4,Win32,60.09615385,,,,,,,,,
,,,,,,,,,,,,0,5,5,5,1,sixth,5,21,Female,R,Donders,2021-07-11_13h28.43.025,ImageRatingTask_S4,2021.1.4,Win32,60.09615385,,,,,,,,,
,,,,,,,,,,,,0,6,6,6,1,seventh,5,21,Female,R,Donders,2021-07-11_13h28.43.025,ImageRatingTask_S4,2021.1.4,Win32,60.09615385,,,,,,,,,
,,,,,,,,,,,,0,7,7,7,1,last,5,21,Female,R,Donders,2021-07-11_13h28.43.025,ImageRatingTask_S4,2021.1.4,Win32,60.09615385,,,,,,,,,
,,,,,,,,,,,,,,,,,,5,21,Female,R,Donders,2021-07-11_13h28.43.025,ImageRatingTask_S4,2021.1.4,Win32,60.09615385,0,32,32,26,1,DreamStudyImages_rs1000x750g/Water/5210.jpg,,,
,,5,2.084,5,0.0916,7,1.2955,1,1.2626,6,0.5894,0,0,0,0,1,main,5,21,Female,R,Donders,2021-07-11_13h28.43.025,ImageRatingTask_S4,2021.1.4,Win32,60.09615385,,,,,,,,,
,,,,,,,,,,,,0,1,1,1,1,second,5,21,Female,R,Donders,2021-07-11_13h28.43.025,ImageRatingTask_S4,2021.1.4,Win32,60.09615385,,,,,,,,,
,,,,,,,,,,,,0,2,2,2,1,third,5,21,Female,R,Donders,2021-07-11_13h28.43.025,ImageRatingTask_S4,2021.1.4,Win32,60.09615385,,,,,,,,,
,,,,,,,,,,,,0,3,3,3,1,fourth,5,21,Female,R,Donders,2021-07-11_13h28.43.025,ImageRatingTask_S4,2021.1.4,Win32,60.09615385,,,,,,,,,
,,,,,,,,,,,,0,4,4,4,1,fifth,5,21,Female,R,Donders,2021-07-11_13h28.43.025,ImageRatingTask_S4,2021.1.4,Win32,60.09615385,,,,,,,,,
,,,,,,,,,,,,0,5,5,5,1,sixth,5,21,Female,R,Donders,2021-07-11_13h28.43.025,ImageRatingTask_S4,2021.1.4,Win32,60.09615385,,,,,,,,,
,,,,,,,,,,,,0,6,6,6,1,seventh,5,21,Female,R,Donders,2021-07-11_13h28.43.025,ImageRatingTask_S4,2021.1.4,Win32,60.09615385,,,,,,,,,
,,,,,,,,,,,,0,7,7,7,1,last,5,21,Female,R,Donders,2021-07-11_13h28.43.025,ImageRatingTask_S4,2021.1.4,Win32,60.09615385,,,,,,,,,
,,,,,,,,,,,,,,,,,,5,21,Female,R,Donders,2021-07-11_13h28.43.025,ImageRatingTask_S4,2021.1.4,Win32,60.09615385,0,33,33,64,1,DreamStudyImages_rs1000x750g/Houses/Landscapes_079_v.jpg,,,
,,5,2.3573,5,0.081,6,1.4368,1,0.7062,3,0.6374,0,0,0,0,1,main,5,21,Female,R,Donders,2021-07-11_13h28.43.025,ImageRatingTask_S4,2021.1.4,Win32,60.09615385,,,,,,,,,
,,,,,,,,,,,,0,1,1,1,1,second,5,21,Female,R,Donders,2021-07-11_13h28.43.025,ImageRatingTask_S4,2021.1.4,Win32,60.09615385,,,,,,,,,
,,,,,,,,,,,,0,2,2,2,1,third,5,21,Female,R,Donders,2021-07-11_13h28.43.025,ImageRatingTask_S4,2021.1.4,Win32,60.09615385,,,,,,,,,
,,,,,,,,,,,,0,3,3,3,1,fourth,5,21,Female,R,Donders,2021-07-11_13h28.43.025,ImageRatingTask_S4,2021.1.4,Win32,60.09615385,,,,,,,,,
,,,,,,,,,,,,0,4,4,4,1,fifth,5,21,Female,R,Donders,2021-07-11_13h28.43.025,ImageRatingTask_S4,2021.1.4,Win32,60.09615385,,,,,,,,,
,,,,,,,,,,,,0,5,5,5,1,sixth,5,21,Female,R,Donders,2021-07-11_13h28.43.025,ImageRatingTask_S4,2021.1.4,Win32,60.09615385,,,,,,,,,
,,,,,,,,,,,,0,6,6,6,1,seventh,5,21,Female,R,Donders,2021-07-11_13h28.43.025,ImageRatingTask_S4,2021.1.4,Win32,60.09615385,,,,,,,,,
,,,,,,,,,,,,0,7,7,7,1,last,5,21,Female,R,Donders,2021-07-11_13h28.43.025,ImageRatingTask_S4,2021.1.4,Win32,60.09615385,,,,,,,,,
,,,,,,,,,,,,,,,,,,5,21,Female,R,Donders,2021-07-11_13h28.43.025,ImageRatingTask_S4,2021.1.4,Win32,60.09615385,0,34,34,127,1,DreamStudyImages_rs1000x750g/Mammals/IAPS1670_cow.jpg,,,
,,4,3.9648,6,1.741,7,2.0768,1,0.5948,3,0.6255,0,0,0,0,1,main,5,21,Female,R,Donders,2021-07-11_13h28.43.025,ImageRatingTask_S4,2021.1.4,Win32,60.09615385,,,,,,,,,
,,,,,,,,,,,,0,1,1,1,1,second,5,21,Female,R,Donders,2021-07-11_13h28.43.025,ImageRatingTask_S4,2021.1.4,Win32,60.09615385,,,,,,,,,
,,,,,,,,,,,,0,2,2,2,1,third,5,21,Female,R,Donders,2021-07-11_13h28.43.025,ImageRatingTask_S4,2021.1.4,Win32,60.09615385,,,,,,,,,
,,,,,,,,,,,,0,3,3,3,1,fourth,5,21,Female,R,Donders,2021-07-11_13h28.43.025,ImageRatingTask_S4,2021.1.4,Win32,60.09615385,,,,,,,,,
,,,,,,,,,,,,0,4,4,4,1,fifth,5,21,Female,R,Donders,2021-07-11_13h28.43.025,ImageRatingTask_S4,2021.1.4,Win32,60.09615385,,,,,,,,,
,,,,,,,,,,,,0,5,5,5,1,sixth,5,21,Female,R,Donders,2021-07-11_13h28.43.025,ImageRatingTask_S4,2021.1.4,Win32,60.09615385,,,,,,,,,
,,,,,,,,,,,,0,6,6,6,1,seventh,5,21,Female,R,Donders,2021-07-11_13h28.43.025,ImageRatingTask_S4,2021.1.4,Win32,60.09615385,,,,,,,,,
,,,,,,,,,,,,0,7,7,7,1,last,5,21,Female,R,Donders,2021-07-11_13h28.43.025,ImageRatingTask_S4,2021.1.4,Win32,60.09615385,,,,,,,,,
,,,,,,,,,,,,,,,,,,5,21,Female,R,Donders,2021-07-11_13h28.43.025,ImageRatingTask_S4,2021.1.4,Win32,60.09615385,0,35,35,52,1,DreamStudyImages_rs1000x750g/Mammals/Animals_078_h.jpg,,,
,,5,1.8217,5,0.0643,9,1.4195,1,0.8966,6,0.5947,0,0,0,0,1,main,5,21,Female,R,Donders,2021-07-11_13h28.43.025,ImageRatingTask_S4,2021.1.4,Win32,60.09615385,,,,,,,,,
,,,,,,,,,,,,0,1,1,1,1,second,5,21,Female,R,Donders,2021-07-11_13h28.43.025,ImageRatingTask_S4,2021.1.4,Win32,60.09615385,,,,,,,,,
,,,,,,,,,,,,0,2,2,2,1,third,5,21,Female,R,Donders,2021-07-11_13h28.43.025,ImageRatingTask_S4,2021.1.4,Win32,60.09615385,,,,,,,,,
,,,,,,,,,,,,0,3,3,3,1,fourth,5,21,Female,R,Donders,2021-07-11_13h28.43.025,ImageRatingTask_S4,2021.1.4,Win32,60.09615385,,,,,,,,,
,,,,,,,,,,,,0,4,4,4,1,fifth,5,21,Female,R,Donders,2021-07-11_13h28.43.025,ImageRatingTask_S4,2021.1.4,Win32,60.09615385,,,,,,,,,
,,,,,,,,,,,,0,5,5,5,1,sixth,5,21,Female,R,Donders,2021-07-11_13h28.43.025,ImageRatingTask_S4,2021.1.4,Win32,60.09615385,,,,,,,,,
,,,,,,,,,,,,0,6,6,6,1,seventh,5,21,Female,R,Donders,2021-07-11_13h28.43.025,ImageRatingTask_S4,2021.1.4,Win32,60.09615385,,,,,,,,,
,,,,,,,,,,,,0,7,7,7,1,last,5,21,Female,R,Donders,2021-07-11_13h28.43.025,ImageRatingTask_S4,2021.1.4,Win32,60.09615385,,,,,,,,,
,,,,,,,,,,,,,,,,,,5,21,Female,R,Donders,2021-07-11_13h28.43.025,ImageRatingTask_S4,2021.1.4,Win32,60.09615385,0,36,36,95,1,DreamStudyImages_rs1000x750g/Houses/Landscapes_042_h.jpg,,,
,,5,1.9021,5,0.539,7,1.9763,1,0.8684,2,0.2275,0,0,0,0,1,main,5,21,Female,R,Donders,2021-07-11_13h28.43.025,ImageRatingTask_S4,2021.1.4,Win32,60.09615385,,,,,,,,,
,,,,,,,,,,,,0,1,1,1,1,second,5,21,Female,R,Donders,2021-07-11_13h28.43.025,ImageRatingTask_S4,2021.1.4,Win32,60.09615385,,,,,,,,,
,,,,,,,,,,,,0,2,2,2,1,third,5,21,Female,R,Donders,2021-07-11_13h28.43.025,ImageRatingTask_S4,2021.1.4,Win32,60.09615385,,,,,,,,,
,,,,,,,,,,,,0,3,3,3,1,fourth,5,21,Female,R,Donders,2021-07-11_13h28.43.025,ImageRatingTask_S4,2021.1.4,Win32,60.09615385,,,,,,,,,
,,,,,,,,,,,,0,4,4,4,1,fifth,5,21,Female,R,Donders,2021-07-11_13h28.43.025,ImageRatingTask_S4,2021.1.4,Win32,60.09615385,,,,,,,,,
,,,,,,,,,,,,0,5,5,5,1,sixth,5,21,Female,R,Donders,2021-07-11_13h28.43.025,ImageRatingTask_S4,2021.1.4,Win32,60.09615385,,,,,,,,,
,,,,,,,,,,,,0,6,6,6,1,seventh,5,21,Female,R,Donders,2021-07-11_13h28.43.025,ImageRatingTask_S4,2021.1.4,Win32,60.09615385,,,,,,,,,
,,,,,,,,,,,,0,7,7,7,1,last,5,21,Female,R,Donders,2021-07-11_13h28.43.025,ImageRatingTask_S4,2021.1.4,Win32,60.09615385,,,,,,,,,
,,,,,,,,,,,,,,,,,,5,21,Female,R,Donders,2021-07-11_13h28.43.025,ImageRatingTask_S4,2021.1.4,Win32,60.09615385,0,37,37,101,1,DreamStudyImages_rs1000x750g/Children/Sad face 9.jpg,,,
,,5,5.204,5,0.0749,8,3.2406,1,0.5382,5,2.3753,0,0,0,0,1,main,5,21,Female,R,Donders,2021-07-11_13h28.43.025,ImageRatingTask_S4,2021.1.4,Win32,60.09615385,,,,,,,,,
,,,,,,,,,,,,0,1,1,1,1,second,5,21,Female,R,Donders,2021-07-11_13h28.43.025,ImageRatingTask_S4,2021.1.4,Win32,60.09615385,,,,,,,,,
,,,,,,,,,,,,0,2,2,2,1,third,5,21,Female,R,Donders,2021-07-11_13h28.43.025,ImageRatingTask_S4,2021.1.4,Win32,60.09615385,,,,,,,,,
,,,,,,,,,,,,0,3,3,3,1,fourth,5,21,Female,R,Donders,2021-07-11_13h28.43.025,ImageRatingTask_S4,2021.1.4,Win32,60.09615385,,,,,,,,,
,,,,,,,,,,,,0,4,4,4,1,fifth,5,21,Female,R,Donders,2021-07-11_13h28.43.025,ImageRatingTask_S4,2021.1.4,Win32,60.09615385,,,,,,,,,
,,,,,,,,,,,,0,5,5,5,1,sixth,5,21,Female,R,Donders,2021-07-11_13h28.43.025,ImageRatingTask_S4,2021.1.4,Win32,60.09615385,,,,,,,,,
,,,,,,,,,,,,0,6,6,6,1,seventh,5,21,Female,R,Donders,2021-07-11_13h28.43.025,ImageRatingTask_S4,2021.1.4,Win32,60.09615385,,,,,,,,,
,,,,,,,,,,,,0,7,7,7,1,last,5,21,Female,R,Donders,2021-07-11_13h28.43.025,ImageRatingTask_S4,2021.1.4,Win32,60.09615385,,,,,,,,,
,,,,,,,,,,,,,,,,,,5,21,Female,R,Donders,2021-07-11_13h28.43.025,ImageRatingTask_S4,2021.1.4,Win32,60.09615385,0,38,38,23,1,DreamStudyImages_rs1000x750g/Food/Objects_019_h.jpg,,,
,,5,1.5298,5,0.0762,7,1.7549,1,0.7416,2,0.218,0,0,0,0,1,main,5,21,Female,R,Donders,2021-07-11_13h28.43.025,ImageRatingTask_S4,2021.1.4,Win32,60.09615385,,,,,,,,,
,,,,,,,,,,,,0,1,1,1,1,second,5,21,Female,R,Donders,2021-07-11_13h28.43.025,ImageRatingTask_S4,2021.1.4,Win32,60.09615385,,,,,,,,,
,,,,,,,,,,,,0,2,2,2,1,third,5,21,Female,R,Donders,2021-07-11_13h28.43.025,ImageRatingTask_S4,2021.1.4,Win32,60.09615385,,,,,,,,,
,,,,,,,,,,,,0,3,3,3,1,fourth,5,21,Female,R,Donders,2021-07-11_13h28.43.025,ImageRatingTask_S4,2021.1.4,Win32,60.09615385,,,,,,,,,
,,,,,,,,,,,,0,4,4,4,1,fifth,5,21,Female,R,Donders,2021-07-11_13h28.43.025,ImageRatingTask_S4,2021.1.4,Win32,60.09615385,,,,,,,,,
,,,,,,,,,,,,0,5,5,5,1,sixth,5,21,Female,R,Donders,2021-07-11_13h28.43.025,ImageRatingTask_S4,2021.1.4,Win32,60.09615385,,,,,,,,,
,,,,,,,,,,,,0,6,6,6,1,seventh,5,21,Female,R,Donders,2021-07-11_13h28.43.025,ImageRatingTask_S4,2021.1.4,Win32,60.09615385,,,,,,,,,
,,,,,,,,,,,,0,7,7,7,1,last,5,21,Female,R,Donders,2021-07-11_13h28.43.025,ImageRatingTask_S4,2021.1.4,Win32,60.09615385,,,,,,,,,
,,,,,,,,,,,,,,,,,,5,21,Female,R,Donders,2021-07-11_13h28.43.025,ImageRatingTask_S4,2021.1.4,Win32,60.09615385,0,39,39,117,1,DreamStudyImages_rs1000x750g/Children/Faces_082_v.jpg,,,
,,5,1.7551,5,0.0924,7,1.5528,1,1.3066,7,0.3012,0,0,0,0,1,main,5,21,Female,R,Donders,2021-07-11_13h28.43.025,ImageRatingTask_S4,2021.1.4,Win32,60.09615385,,,,,,,,,
,,,,,,,,,,,,0,1,1,1,1,second,5,21,Female,R,Donders,2021-07-11_13h28.43.025,ImageRatingTask_S4,2021.1.4,Win32,60.09615385,,,,,,,,,
,,,,,,,,,,,,0,2,2,2,1,third,5,21,Female,R,Donders,2021-07-11_13h28.43.025,ImageRatingTask_S4,2021.1.4,Win32,60.09615385,,,,,,,,,
,,,,,,,,,,,,0,3,3,3,1,fourth,5,21,Female,R,Donders,2021-07-11_13h28.43.025,ImageRatingTask_S4,2021.1.4,Win32,60.09615385,,,,,,,,,
,,,,,,,,,,,,0,4,4,4,1,fifth,5,21,Female,R,Donders,2021-07-11_13h28.43.025,ImageRatingTask_S4,2021.1.4,Win32,60.09615385,,,,,,,,,
,,,,,,,,,,,,0,5,5,5,1,sixth,5,21,Female,R,Donders,2021-07-11_13h28.43.025,ImageRatingTask_S4,2021.1.4,Win32,60.09615385,,,,,,,,,
,,,,,,,,,,,,0,6,6,6,1,seventh,5,21,Female,R,Donders,2021-07-11_13h28.43.025,ImageRatingTask_S4,2021.1.4,Win32,60.09615385,,,,,,,,,
,,,,,,,,,,,,0,7,7,7,1,last,5,21,Female,R,Donders,2021-07-11_13h28.43.025,ImageRatingTask_S4,2021.1.4,Win32,60.09615385,,,,,,,,,
,,,,,,,,,,,,,,,,,,5,21,Female,R,Donders,2021-07-11_13h28.43.025,ImageRatingTask_S4,2021.1.4,Win32,60.09615385,0,40,40,115,1,DreamStudyImages_rs1000x750g/Vehicles/Objects_250_h.jpg,,,
,,7,16.0108,4,1.593,8,1.3116,1,0.617,5,0.8233,0,0,0,0,1,main,5,21,Female,R,Donders,2021-07-11_13h28.43.025,ImageRatingTask_S4,2021.1.4,Win32,60.09615385,,,,,,,,,
,,,,,,,,,,,,0,1,1,1,1,second,5,21,Female,R,Donders,2021-07-11_13h28.43.025,ImageRatingTask_S4,2021.1.4,Win32,60.09615385,,,,,,,,,
,,,,,,,,,,,,0,2,2,2,1,third,5,21,Female,R,Donders,2021-07-11_13h28.43.025,ImageRatingTask_S4,2021.1.4,Win32,60.09615385,,,,,,,,,
,,,,,,,,,,,,0,3,3,3,1,fourth,5,21,Female,R,Donders,2021-07-11_13h28.43.025,ImageRatingTask_S4,2021.1.4,Win32,60.09615385,,,,,,,,,
,,,,,,,,,,,,0,4,4,4,1,fifth,5,21,Female,R,Donders,2021-07-11_13h28.43.025,ImageRatingTask_S4,2021.1.4,Win32,60.09615385,,,,,,,,,
,,,,,,,,,,,,0,5,5,5,1,sixth,5,21,Female,R,Donders,2021-07-11_13h28.43.025,ImageRatingTask_S4,2021.1.4,Win32,60.09615385,,,,,,,,,
,,,,,,,,,,,,0,6,6,6,1,seventh,5,21,Female,R,Donders,2021-07-11_13h28.43.025,ImageRatingTask_S4,2021.1.4,Win32,60.09615385,,,,,,,,,
,,,,,,,,,,,,0,7,7,7,1,last,5,21,Female,R,Donders,2021-07-11_13h28.43.025,ImageRatingTask_S4,2021.1.4,Win32,60.09615385,,,,,,,,,
,,,,,,,,,,,,,,,,,,5,21,Female,R,Donders,2021-07-11_13h28.43.025,ImageRatingTask_S4,2021.1.4,Win32,60.09615385,0,41,41,10,1,DreamStudyImages_rs1000x750g/Food/Objects_027_h.jpg,,,
,,7,2.5244,4,0.8778,8,1.977,1,0.6918,7,0.4057,0,0,0,0,1,main,5,21,Female,R,Donders,2021-07-11_13h28.43.025,ImageRatingTask_S4,2021.1.4,Win32,60.09615385,,,,,,,,,
,,,,,,,,,,,,0,1,1,1,1,second,5,21,Female,R,Donders,2021-07-11_13h28.43.025,ImageRatingTask_S4,2021.1.4,Win32,60.09615385,,,,,,,,,
,,,,,,,,,,,,0,2,2,2,1,third,5,21,Female,R,Donders,2021-07-11_13h28.43.025,ImageRatingTask_S4,2021.1.4,Win32,60.09615385,,,,,,,,,
,,,,,,,,,,,,0,3,3,3,1,fourth,5,21,Female,R,Donders,2021-07-11_13h28.43.025,ImageRatingTask_S4,2021.1.4,Win32,60.09615385,,,,,,,,,
,,,,,,,,,,,,0,4,4,4,1,fifth,5,21,Female,R,Donders,2021-07-11_13h28.43.025,ImageRatingTask_S4,2021.1.4,Win32,60.09615385,,,,,,,,,
,,,,,,,,,,,,0,5,5,5,1,sixth,5,21,Female,R,Donders,2021-07-11_13h28.43.025,ImageRatingTask_S4,2021.1.4,Win32,60.09615385,,,,,,,,,
,,,,,,,,,,,,0,6,6,6,1,seventh,5,21,Female,R,Donders,2021-07-11_13h28.43.025,ImageRatingTask_S4,2021.1.4,Win32,60.09615385,,,,,,,,,
,,,,,,,,,,,,0,7,7,7,1,last,5,21,Female,R,Donders,2021-07-11_13h28.43.025,ImageRatingTask_S4,2021.1.4,Win32,60.09615385,,,,,,,,,
,,,,,,,,,,,,,,,,,,5,21,Female,R,Donders,2021-07-11_13h28.43.025,ImageRatingTask_S4,2021.1.4,Win32,60.09615385,0,42,42,77,1,DreamStudyImages_rs1000x750g/Vehicles/Traffic 1.jpg,,,
,,5,2.276,5,0.2587,8,1.4727,1,1.0872,7,0.3691,0,0,0,0,1,main,5,21,Female,R,Donders,2021-07-11_13h28.43.025,ImageRatingTask_S4,2021.1.4,Win32,60.09615385,,,,,,,,,
,,,,,,,,,,,,0,1,1,1,1,second,5,21,Female,R,Donders,2021-07-11_13h28.43.025,ImageRatingTask_S4,2021.1.4,Win32,60.09615385,,,,,,,,,
,,,,,,,,,,,,0,2,2,2,1,third,5,21,Female,R,Donders,2021-07-11_13h28.43.025,ImageRatingTask_S4,2021.1.4,Win32,60.09615385,,,,,,,,,
,,,,,,,,,,,,0,3,3,3,1,fourth,5,21,Female,R,Donders,2021-07-11_13h28.43.025,ImageRatingTask_S4,2021.1.4,Win32,60.09615385,,,,,,,,,
,,,,,,,,,,,,0,4,4,4,1,fifth,5,21,Female,R,Donders,2021-07-11_13h28.43.025,ImageRatingTask_S4,2021.1.4,Win32,60.09615385,,,,,,,,,
,,,,,,,,,,,,0,5,5,5,1,sixth,5,21,Female,R,Donders,2021-07-11_13h28.43.025,ImageRatingTask_S4,2021.1.4,Win32,60.09615385,,,,,,,,,
,,,,,,,,,,,,0,6,6,6,1,seventh,5,21,Female,R,Donders,2021-07-11_13h28.43.025,ImageRatingTask_S4,2021.1.4,Win32,60.09615385,,,,,,,,,
,,,,,,,,,,,,0,7,7,7,1,last,5,21,Female,R,Donders,2021-07-11_13h28.43.025,ImageRatingTask_S4,2021.1.4,Win32,60.09615385,,,,,,,,,
,,,,,,,,,,,,,,,,,,5,21,Female,R,Donders,2021-07-11_13h28.43.025,ImageRatingTask_S4,2021.1.4,Win32,60.09615385,0,43,43,128,1,DreamStudyImages_rs1000x750g/Vehicles/IAPS7140_bus.jpg,,,
,,5,1.4679,5,0.8584,7,1.5639,1,0.6939,2,0.3337,0,0,0,0,1,main,5,21,Female,R,Donders,2021-07-11_13h28.43.025,ImageRatingTask_S4,2021.1.4,Win32,60.09615385,,,,,,,,,
,,,,,,,,,,,,0,1,1,1,1,second,5,21,Female,R,Donders,2021-07-11_13h28.43.025,ImageRatingTask_S4,2021.1.4,Win32,60.09615385,,,,,,,,,
,,,,,,,,,,,,0,2,2,2,1,third,5,21,Female,R,Donders,2021-07-11_13h28.43.025,ImageRatingTask_S4,2021.1.4,Win32,60.09615385,,,,,,,,,
,,,,,,,,,,,,0,3,3,3,1,fourth,5,21,Female,R,Donders,2021-07-11_13h28.43.025,ImageRatingTask_S4,2021.1.4,Win32,60.09615385,,,,,,,,,
,,,,,,,,,,,,0,4,4,4,1,fifth,5,21,Female,R,Donders,2021-07-11_13h28.43.025,ImageRatingTask_S4,2021.1.4,Win32,60.09615385,,,,,,,,,
,,,,,,,,,,,,0,5,5,5,1,sixth,5,21,Female,R,Donders,2021-07-11_13h28.43.025,ImageRatingTask_S4,2021.1.4,Win32,60.09615385,,,,,,,,,
,,,,,,,,,,,,0,6,6,6,1,seventh,5,21,Female,R,Donders,2021-07-11_13h28.43.025,ImageRatingTask_S4,2021.1.4,Win32,60.09615385,,,,,,,,,
,,,,,,,,,,,,0,7,7,7,1,last,5,21,Female,R,Donders,2021-07-11_13h28.43.025,ImageRatingTask_S4,2021.1.4,Win32,60.09615385,,,,,,,,,
,,,,,,,,,,,,,,,,,,5,21,Female,R,Donders,2021-07-11_13h28.43.025,ImageRatingTask_S4,2021.1.4,Win32,60.09615385,0,44,44,105,1,DreamStudyImages_rs1000x750g/Children/IAPS2075_baby10.jpg,,,
,,5,1.9018,5,0.4853,7,2.4811,1,0.4128,5,1.6107,0,0,0,0,1,main,5,21,Female,R,Donders,2021-07-11_13h28.43.025,ImageRatingTask_S4,2021.1.4,Win32,60.09615385,,,,,,,,,
,,,,,,,,,,,,0,1,1,1,1,second,5,21,Female,R,Donders,2021-07-11_13h28.43.025,ImageRatingTask_S4,2021.1.4,Win32,60.09615385,,,,,,,,,
,,,,,,,,,,,,0,2,2,2,1,third,5,21,Female,R,Donders,2021-07-11_13h28.43.025,ImageRatingTask_S4,2021.1.4,Win32,60.09615385,,,,,,,,,
,,,,,,,,,,,,0,3,3,3,1,fourth,5,21,Female,R,Donders,2021-07-11_13h28.43.025,ImageRatingTask_S4,2021.1.4,Win32,60.09615385,,,,,,,,,
,,,,,,,,,,,,0,4,4,4,1,fifth,5,21,Female,R,Donders,2021-07-11_13h28.43.025,ImageRatingTask_S4,2021.1.4,Win32,60.09615385,,,,,,,,,
,,,,,,,,,,,,0,5,5,5,1,sixth,5,21,Female,R,Donders,2021-07-11_13h28.43.025,ImageRatingTask_S4,2021.1.4,Win32,60.09615385,,,,,,,,,
,,,,,,,,,,,,0,6,6,6,1,seventh,5,21,Female,R,Donders,2021-07-11_13h28.43.025,ImageRatingTask_S4,2021.1.4,Win32,60.09615385,,,,,,,,,
,,,,,,,,,,,,0,7,7,7,1,last,5,21,Female,R,Donders,2021-07-11_13h28.43.025,ImageRatingTask_S4,2021.1.4,Win32,60.09615385,,,,,,,,,
,,,,,,,,,,,,,,,,,,5,21,Female,R,Donders,2021-07-11_13h28.43.025,ImageRatingTask_S4,2021.1.4,Win32,60.09615385,0,45,45,85,1,DreamStudyImages_rs1000x750g/Food/Objects_013_h.jpg,,,
,,8,1.8313,3,0.8707,8,2.0178,1,0.8229,3,0.9368,0,0,0,0,1,main,5,21,Female,R,Donders,2021-07-11_13h28.43.025,ImageRatingTask_S4,2021.1.4,Win32,60.09615385,,,,,,,,,
,,,,,,,,,,,,0,1,1,1,1,second,5,21,Female,R,Donders,2021-07-11_13h28.43.025,ImageRatingTask_S4,2021.1.4,Win32,60.09615385,,,,,,,,,
,,,,,,,,,,,,0,2,2,2,1,third,5,21,Female,R,Donders,2021-07-11_13h28.43.025,ImageRatingTask_S4,2021.1.4,Win32,60.09615385,,,,,,,,,
,,,,,,,,,,,,0,3,3,3,1,fourth,5,21,Female,R,Donders,2021-07-11_13h28.43.025,ImageRatingTask_S4,2021.1.4,Win32,60.09615385,,,,,,,,,
,,,,,,,,,,,,0,4,4,4,1,fifth,5,21,Female,R,Donders,2021-07-11_13h28.43.025,ImageRatingTask_S4,2021.1.4,Win32,60.09615385,,,,,,,,,
,,,,,,,,,,,,0,5,5,5,1,sixth,5,21,Female,R,Donders,2021-07-11_13h28.43.025,ImageRatingTask_S4,2021.1.4,Win32,60.09615385,,,,,,,,,
,,,,,,,,,,,,0,6,6,6,1,seventh,5,21,Female,R,Donders,2021-07-11_13h28.43.025,ImageRatingTask_S4,2021.1.4,Win32,60.09615385,,,,,,,,,
,,,,,,,,,,,,0,7,7,7,1,last,5,21,Female,R,Donders,2021-07-11_13h28.43.025,ImageRatingTask_S4,2021.1.4,Win32,60.09615385,,,,,,,,,
,,,,,,,,,,,,,,,,,,5,21,Female,R,Donders,2021-07-11_13h28.43.025,ImageRatingTask_S4,2021.1.4,Win32,60.09615385,0,46,46,27,1,DreamStudyImages_rs1000x750g/Mammals/Animals_118_h.jpg,,,
,,9,1.1989,2,2.0512,7,1.8635,1,1.2763,8,0.262,0,0,0,0,1,main,5,21,Female,R,Donders,2021-07-11_13h28.43.025,ImageRatingTask_S4,2021.1.4,Win32,60.09615385,,,,,,,,,
,,,,,,,,,,,,0,1,1,1,1,second,5,21,Female,R,Donders,2021-07-11_13h28.43.025,ImageRatingTask_S4,2021.1.4,Win32,60.09615385,,,,,,,,,
,,,,,,,,,,,,0,2,2,2,1,third,5,21,Female,R,Donders,2021-07-11_13h28.43.025,ImageRatingTask_S4,2021.1.4,Win32,60.09615385,,,,,,,,,
,,,,,,,,,,,,0,3,3,3,1,fourth,5,21,Female,R,Donders,2021-07-11_13h28.43.025,ImageRatingTask_S4,2021.1.4,Win32,60.09615385,,,,,,,,,
,,,,,,,,,,,,0,4,4,4,1,fifth,5,21,Female,R,Donders,2021-07-11_13h28.43.025,ImageRatingTask_S4,2021.1.4,Win32,60.09615385,,,,,,,,,
,,,,,,,,,,,,0,5,5,5,1,sixth,5,21,Female,R,Donders,2021-07-11_13h28.43.025,ImageRatingTask_S4,2021.1.4,Win32,60.09615385,,,,,,,,,
,,,,,,,,,,,,0,6,6,6,1,seventh,5,21,Female,R,Donders,2021-07-11_13h28.43.025,ImageRatingTask_S4,2021.1.4,Win32,60.09615385,,,,,,,,,
,,,,,,,,,,,,0,7,7,7,1,last,5,21,Female,R,Donders,2021-07-11_13h28.43.025,ImageRatingTask_S4,2021.1.4,Win32,60.09615385,,,,,,,,,
,,,,,,,,,,,,,,,,,,5,21,Female,R,Donders,2021-07-11_13h28.43.025,ImageRatingTask_S4,2021.1.4,Win32,60.09615385,0,47,47,140,1,DreamStudyImages_rs1000x750g/Water/Lightning 1.jpg,,,
,,5,8.518,5,0.0533,7,1.4223,1,2.1143,6,0.5903,0,0,0,0,1,main,5,21,Female,R,Donders,2021-07-11_13h28.43.025,ImageRatingTask_S4,2021.1.4,Win32,60.09615385,,,,,,,,,
,,,,,,,,,,,,0,1,1,1,1,second,5,21,Female,R,Donders,2021-07-11_13h28.43.025,ImageRatingTask_S4,2021.1.4,Win32,60.09615385,,,,,,,,,
,,,,,,,,,,,,0,2,2,2,1,third,5,21,Female,R,Donders,2021-07-11_13h28.43.025,ImageRatingTask_S4,2021.1.4,Win32,60.09615385,,,,,,,,,
,,,,,,,,,,,,0,3,3,3,1,fourth,5,21,Female,R,Donders,2021-07-11_13h28.43.025,ImageRatingTask_S4,2021.1.4,Win32,60.09615385,,,,,,,,,
,,,,,,,,,,,,0,4,4,4,1,fifth,5,21,Female,R,Donders,2021-07-11_13h28.43.025,ImageRatingTask_S4,2021.1.4,Win32,60.09615385,,,,,,,,,
,,,,,,,,,,,,0,5,5,5,1,sixth,5,21,Female,R,Donders,2021-07-11_13h28.43.025,ImageRatingTask_S4,2021.1.4,Win32,60.09615385,,,,,,,,,
,,,,,,,,,,,,0,6,6,6,1,seventh,5,21,Female,R,Donders,2021-07-11_13h28.43.025,ImageRatingTask_S4,2021.1.4,Win32,60.09615385,,,,,,,,,
,,,,,,,,,,,,0,7,7,7,1,last,5,21,Female,R,Donders,2021-07-11_13h28.43.025,ImageRatingTask_S4,2021.1.4,Win32,60.09615385,,,,,,,,,
,,,,,,,,,,,,,,,,,,5,21,Female,R,Donders,2021-07-11_13h28.43.025,ImageRatingTask_S4,2021.1.4,Win32,60.09615385,0,48,48,92,1,DreamStudyImages_rs1000x750g/Houses/Objects_116_v.jpg,,,
,,8,1.7307,3,1.4588,8,1.5765,1,1.018,8,0.7958,0,0,0,0,1,main,5,21,Female,R,Donders,2021-07-11_13h28.43.025,ImageRatingTask_S4,2021.1.4,Win32,60.09615385,,,,,,,,,
,,,,,,,,,,,,0,1,1,1,1,second,5,21,Female,R,Donders,2021-07-11_13h28.43.025,ImageRatingTask_S4,2021.1.4,Win32,60.09615385,,,,,,,,,
,,,,,,,,,,,,0,2,2,2,1,third,5,21,Female,R,Donders,2021-07-11_13h28.43.025,ImageRatingTask_S4,2021.1.4,Win32,60.09615385,,,,,,,,,
,,,,,,,,,,,,0,3,3,3,1,fourth,5,21,Female,R,Donders,2021-07-11_13h28.43.025,ImageRatingTask_S4,2021.1.4,Win32,60.09615385,,,,,,,,,
,,,,,,,,,,,,0,4,4,4,1,fifth,5,21,Female,R,Donders,2021-07-11_13h28.43.025,ImageRatingTask_S4,2021.1.4,Win32,60.09615385,,,,,,,,,
,,,,,,,,,,,,0,5,5,5,1,sixth,5,21,Female,R,Donders,2021-07-11_13h28.43.025,ImageRatingTask_S4,2021.1.4,Win32,60.09615385,,,,,,,,,
,,,,,,,,,,,,0,6,6,6,1,seventh,5,21,Female,R,Donders,2021-07-11_13h28.43.025,ImageRatingTask_S4,2021.1.4,Win32,60.09615385,,,,,,,,,
,,,,,,,,,,,,0,7,7,7,1,last,5,21,Female,R,Donders,2021-07-11_13h28.43.025,ImageRatingTask_S4,2021.1.4,Win32,60.09615385,,,,,,,,,
,,,,,,,,,,,,,,,,,,5,21,Female,R,Donders,2021-07-11_13h28.43.025,ImageRatingTask_S4,2021.1.4,Win32,60.09615385,0,49,49,54,1,DreamStudyImages_rs1000x750g/Water/Landscapes_154_h.jpg,,,
,,5,4.8388,5,0.4893,7,1.7916,1,2.486,8,0.2119,0,0,0,0,1,main,5,21,Female,R,Donders,2021-07-11_13h28.43.025,ImageRatingTask_S4,2021.1.4,Win32,60.09615385,,,,,,,,,
,,,,,,,,,,,,0,1,1,1,1,second,5,21,Female,R,Donders,2021-07-11_13h28.43.025,ImageRatingTask_S4,2021.1.4,Win32,60.09615385,,,,,,,,,
,,,,,,,,,,,,0,2,2,2,1,third,5,21,Female,R,Donders,2021-07-11_13h28.43.025,ImageRatingTask_S4,2021.1.4,Win32,60.09615385,,,,,,,,,
,,,,,,,,,,,,0,3,3,3,1,fourth,5,21,Female,R,Donders,2021-07-11_13h28.43.025,ImageRatingTask_S4,2021.1.4,Win32,60.09615385,,,,,,,,,
,,,,,,,,,,,,0,4,4,4,1,fifth,5,21,Female,R,Donders,2021-07-11_13h28.43.025,ImageRatingTask_S4,2021.1.4,Win32,60.09615385,,,,,,,,,
,,,,,,,,,,,,0,5,5,5,1,sixth,5,21,Female,R,Donders,2021-07-11_13h28.43.025,ImageRatingTask_S4,2021.1.4,Win32,60.09615385,,,,,,,,,
,,,,,,,,,,,,0,6,6,6,1,seventh,5,21,Female,R,Donders,2021-07-11_13h28.43.025,ImageRatingTask_S4,2021.1.4,Win32,60.09615385,,,,,,,,,
,,,,,,,,,,,,0,7,7,7,1,last,5,21,Female,R,Donders,2021-07-11_13h28.43.025,ImageRatingTask_S4,2021.1.4,Win32,60.09615385,,,,,,,,,
,,,,,,,,,,,,,,,,,,5,21,Female,R,Donders,2021-07-11_13h28.43.025,ImageRatingTask_S4,2021.1.4,Win32,60.09615385,0,50,50,70,1,DreamStudyImages_rs1000x750g/Water/Landscapes_109_h.jpg,,,
,,4,4.7659,4,0.8086,7,3.0726,1,0.4528,2,0.3346,0,0,0,0,1,main,5,21,Female,R,Donders,2021-07-11_13h28.43.025,ImageRatingTask_S4,2021.1.4,Win32,60.09615385,,,,,,,,,
,,,,,,,,,,,,0,1,1,1,1,second,5,21,Female,R,Donders,2021-07-11_13h28.43.025,ImageRatingTask_S4,2021.1.4,Win32,60.09615385,,,,,,,,,
,,,,,,,,,,,,0,2,2,2,1,third,5,21,Female,R,Donders,2021-07-11_13h28.43.025,ImageRatingTask_S4,2021.1.4,Win32,60.09615385,,,,,,,,,
,,,,,,,,,,,,0,3,3,3,1,fourth,5,21,Female,R,Donders,2021-07-11_13h28.43.025,ImageRatingTask_S4,2021.1.4,Win32,60.09615385,,,,,,,,,
,,,,,,,,,,,,0,4,4,4,1,fifth,5,21,Female,R,Donders,2021-07-11_13h28.43.025,ImageRatingTask_S4,2021.1.4,Win32,60.09615385,,,,,,,,,
,,,,,,,,,,,,0,5,5,5,1,sixth,5,21,Female,R,Donders,2021-07-11_13h28.43.025,ImageRatingTask_S4,2021.1.4,Win32,60.09615385,,,,,,,,,
,,,,,,,,,,,,0,6,6,6,1,seventh,5,21,Female,R,Donders,2021-07-11_13h28.43.025,ImageRatingTask_S4,2021.1.4,Win32,60.09615385,,,,,,,,,
,,,,,,,,,,,,0,7,7,7,1,last,5,21,Female,R,Donders,2021-07-11_13h28.43.025,ImageRatingTask_S4,2021.1.4,Win32,60.09615385,,,,,,,,,
,,,,,,,,,,,,,,,,,,5,21,Female,R,Donders,2021-07-11_13h28.43.025,ImageRatingTask_S4,2021.1.4,Win32,60.09615385,0,51,51,112,1,DreamStudyImages_rs1000x750g/Children/Faces_008_h.jpg,,,
,,4,3.588,5,1.2917,7,1.8655,1,0.6944,5,1.0971,0,0,0,0,1,main,5,21,Female,R,Donders,2021-07-11_13h28.43.025,ImageRatingTask_S4,2021.1.4,Win32,60.09615385,,,,,,,,,
,,,,,,,,,,,,0,1,1,1,1,second,5,21,Female,R,Donders,2021-07-11_13h28.43.025,ImageRatingTask_S4,2021.1.4,Win32,60.09615385,,,,,,,,,
,,,,,,,,,,,,0,2,2,2,1,third,5,21,Female,R,Donders,2021-07-11_13h28.43.025,ImageRatingTask_S4,2021.1.4,Win32,60.09615385,,,,,,,,,
,,,,,,,,,,,,0,3,3,3,1,fourth,5,21,Female,R,Donders,2021-07-11_13h28.43.025,ImageRatingTask_S4,2021.1.4,Win32,60.09615385,,,,,,,,,
,,,,,,,,,,,,0,4,4,4,1,fifth,5,21,Female,R,Donders,2021-07-11_13h28.43.025,ImageRatingTask_S4,2021.1.4,Win32,60.09615385,,,,,,,,,
,,,,,,,,,,,,0,5,5,5,1,sixth,5,21,Female,R,Donders,2021-07-11_13h28.43.025,ImageRatingTask_S4,2021.1.4,Win32,60.09615385,,,,,,,,,
,,,,,,,,,,,,0,6,6,6,1,seventh,5,21,Female,R,Donders,2021-07-11_13h28.43.025,ImageRatingTask_S4,2021.1.4,Win32,60.09615385,,,,,,,,,
,,,,,,,,,,,,0,7,7,7,1,last,5,21,Female,R,Donders,2021-07-11_13h28.43.025,ImageRatingTask_S4,2021.1.4,Win32,60.09615385,,,,,,,,,
,,,,,,,,,,,,,,,,,,5,21,Female,R,Donders,2021-07-11_13h28.43.025,ImageRatingTask_S4,2021.1.4,Win32,60.09615385,0,52,52,36,1,DreamStudyImages_rs1000x750g/Food/IAPS7477_sushi.jpg,,,
,,5,3.01,5,0.1404,7,1.5222,1,0.6057,3,1.0677,0,0,0,0,1,main,5,21,Female,R,Donders,2021-07-11_13h28.43.025,ImageRatingTask_S4,2021.1.4,Win32,60.09615385,,,,,,,,,
,,,,,,,,,,,,0,1,1,1,1,second,5,21,Female,R,Donders,2021-07-11_13h28.43.025,ImageRatingTask_S4,2021.1.4,Win32,60.09615385,,,,,,,,,
,,,,,,,,,,,,0,2,2,2,1,third,5,21,Female,R,Donders,2021-07-11_13h28.43.025,ImageRatingTask_S4,2021.1.4,Win32,60.09615385,,,,,,,,,
,,,,,,,,,,,,0,3,3,3,1,fourth,5,21,Female,R,Donders,2021-07-11_13h28.43.025,ImageRatingTask_S4,2021.1.4,Win32,60.09615385,,,,,,,,,
,,,,,,,,,,,,0,4,4,4,1,fifth,5,21,Female,R,Donders,2021-07-11_13h28.43.025,ImageRatingTask_S4,2021.1.4,Win32,60.09615385,,,,,,,,,
,,,,,,,,,,,,0,5,5,5,1,sixth,5,21,Female,R,Donders,2021-07-11_13h28.43.025,ImageRatingTask_S4,2021.1.4,Win32,60.09615385,,,,,,,,,
,,,,,,,,,,,,0,6,6,6,1,seventh,5,21,Female,R,Donders,2021-07-11_13h28.43.025,ImageRatingTask_S4,2021.1.4,Win32,60.09615385,,,,,,,,,
,,,,,,,,,,,,0,7,7,7,1,last,5,21,Female,R,Donders,2021-07-11_13h28.43.025,ImageRatingTask_S4,2021.1.4,Win32,60.09615385,,,,,,,,,
,,,,,,,,,,,,,,,,,,5,21,Female,R,Donders,2021-07-11_13h28.43.025,ImageRatingTask_S4,2021.1.4,Win32,60.09615385,0,53,53,158,1,DreamStudyImages_rs1000x750g/Mammals/IAPS1310_bigcat.jpg,,,
,,5,2.9609,5,0.1299,8,9.5653,1,1.2707,3,0.7563,0,0,0,0,1,main,5,21,Female,R,Donders,2021-07-11_13h28.43.025,ImageRatingTask_S4,2021.1.4,Win32,60.09615385,,,,,,,,,
,,,,,,,,,,,,0,1,1,1,1,second,5,21,Female,R,Donders,2021-07-11_13h28.43.025,ImageRatingTask_S4,2021.1.4,Win32,60.09615385,,,,,,,,,
,,,,,,,,,,,,0,2,2,2,1,third,5,21,Female,R,Donders,2021-07-11_13h28.43.025,ImageRatingTask_S4,2021.1.4,Win32,60.09615385,,,,,,,,,
,,,,,,,,,,,,0,3,3,3,1,fourth,5,21,Female,R,Donders,2021-07-11_13h28.43.025,ImageRatingTask_S4,2021.1.4,Win32,60.09615385,,,,,,,,,
,,,,,,,,,,,,0,4,4,4,1,fifth,5,21,Female,R,Donders,2021-07-11_13h28.43.025,ImageRatingTask_S4,2021.1.4,Win32,60.09615385,,,,,,,,,
,,,,,,,,,,,,0,5,5,5,1,sixth,5,21,Female,R,Donders,2021-07-11_13h28.43.025,ImageRatingTask_S4,2021.1.4,Win32,60.09615385,,,,,,,,,
,,,,,,,,,,,,0,6,6,6,1,seventh,5,21,Female,R,Donders,2021-07-11_13h28.43.025,ImageRatingTask_S4,2021.1.4,Win32,60.09615385,,,,,,,,,
,,,,,,,,,,,,0,7,7,7,1,last,5,21,Female,R,Donders,2021-07-11_13h28.43.025,ImageRatingTask_S4,2021.1.4,Win32,60.09615385,,,,,,,,,
,,,,,,,,,,,,,,,,,,5,21,Female,R,Donders,2021-07-11_13h28.43.025,ImageRatingTask_S4,2021.1.4,Win32,60.09615385,0,54,54,86,1,DreamStudyImages_rs1000x750g/Mammals/Animals_076_v.jpg,,,
,,8,4.4556,3,2.0068,7,1.9119,1,1.0383,8,0.9104,0,0,0,0,1,main,5,21,Female,R,Donders,2021-07-11_13h28.43.025,ImageRatingTask_S4,2021.1.4,Win32,60.09615385,,,,,,,,,
,,,,,,,,,,,,0,1,1,1,1,second,5,21,Female,R,Donders,2021-07-11_13h28.43.025,ImageRatingTask_S4,2021.1.4,Win32,60.09615385,,,,,,,,,
,,,,,,,,,,,,0,2,2,2,1,third,5,21,Female,R,Donders,2021-07-11_13h28.43.025,ImageRatingTask_S4,2021.1.4,Win32,60.09615385,,,,,,,,,
,,,,,,,,,,,,0,3,3,3,1,fourth,5,21,Female,R,Donders,2021-07-11_13h28.43.025,ImageRatingTask_S4,2021.1.4,Win32,60.09615385,,,,,,,,,
,,,,,,,,,,,,0,4,4,4,1,fifth,5,21,Female,R,Donders,2021-07-11_13h28.43.025,ImageRatingTask_S4,2021.1.4,Win32,60.09615385,,,,,,,,,
,,,,,,,,,,,,0,5,5,5,1,sixth,5,21,Female,R,Donders,2021-07-11_13h28.43.025,ImageRatingTask_S4,2021.1.4,Win32,60.09615385,,,,,,,,,
,,,,,,,,,,,,0,6,6,6,1,seventh,5,21,Female,R,Donders,2021-07-11_13h28.43.025,ImageRatingTask_S4,2021.1.4,Win32,60.09615385,,,,,,,,,
,,,,,,,,,,,,0,7,7,7,1,last,5,21,Female,R,Donders,2021-07-11_13h28.43.025,ImageRatingTask_S4,2021.1.4,Win32,60.09615385,,,,,,,,,
,,,,,,,,,,,,,,,,,,5,21,Female,R,Donders,2021-07-11_13h28.43.025,ImageRatingTask_S4,2021.1.4,Win32,60.09615385,0,55,55,110,1,DreamStudyImages_rs1000x750g/Water/Lake 13.jpg,,,
,,7,3.0826,3,2.0746,7,4.507,1,0.6025,8,0.4153,0,0,0,0,1,main,5,21,Female,R,Donders,2021-07-11_13h28.43.025,ImageRatingTask_S4,2021.1.4,Win32,60.09615385,,,,,,,,,
,,,,,,,,,,,,0,1,1,1,1,second,5,21,Female,R,Donders,2021-07-11_13h28.43.025,ImageRatingTask_S4,2021.1.4,Win32,60.09615385,,,,,,,,,
,,,,,,,,,,,,0,2,2,2,1,third,5,21,Female,R,Donders,2021-07-11_13h28.43.025,ImageRatingTask_S4,2021.1.4,Win32,60.09615385,,,,,,,,,
,,,,,,,,,,,,0,3,3,3,1,fourth,5,21,Female,R,Donders,2021-07-11_13h28.43.025,ImageRatingTask_S4,2021.1.4,Win32,60.09615385,,,,,,,,,
,,,,,,,,,,,,0,4,4,4,1,fifth,5,21,Female,R,Donders,2021-07-11_13h28.43.025,ImageRatingTask_S4,2021.1.4,Win32,60.09615385,,,,,,,,,
,,,,,,,,,,,,0,5,5,5,1,sixth,5,21,Female,R,Donders,2021-07-11_13h28.43.025,ImageRatingTask_S4,2021.1.4,Win32,60.09615385,,,,,,,,,
,,,,,,,,,,,,0,6,6,6,1,seventh,5,21,Female,R,Donders,2021-07-11_13h28.43.025,ImageRatingTask_S4,2021.1.4,Win32,60.09615385,,,,,,,,,
,,,,,,,,,,,,0,7,7,7,1,last,5,21,Female,R,Donders,2021-07-11_13h28.43.025,ImageRatingTask_S4,2021.1.4,Win32,60.09615385,,,,,,,,,
,,,,,,,,,,,,,,,,,,5,21,Female,R,Donders,2021-07-11_13h28.43.025,ImageRatingTask_S4,2021.1.4,Win32,60.09615385,0,56,56,79,1,DreamStudyImages_rs1000x750g/Water/97.jpg,,,
,,1,2.0995,7,1.853,7,1.7586,1,0.9112,7,1.0684,0,0,0,0,1,main,5,21,Female,R,Donders,2021-07-11_13h28.43.025,ImageRatingTask_S4,2021.1.4,Win32,60.09615385,,,,,,,,,
,,,,,,,,,,,,0,1,1,1,1,second,5,21,Female,R,Donders,2021-07-11_13h28.43.025,ImageRatingTask_S4,2021.1.4,Win32,60.09615385,,,,,,,,,
,,,,,,,,,,,,0,2,2,2,1,third,5,21,Female,R,Donders,2021-07-11_13h28.43.025,ImageRatingTask_S4,2021.1.4,Win32,60.09615385,,,,,,,,,
,,,,,,,,,,,,0,3,3,3,1,fourth,5,21,Female,R,Donders,2021-07-11_13h28.43.025,ImageRatingTask_S4,2021.1.4,Win32,60.09615385,,,,,,,,,
,,,,,,,,,,,,0,4,4,4,1,fifth,5,21,Female,R,Donders,2021-07-11_13h28.43.025,ImageRatingTask_S4,2021.1.4,Win32,60.09615385,,,,,,,,,
,,,,,,,,,,,,0,5,5,5,1,sixth,5,21,Female,R,Donders,2021-07-11_13h28.43.025,ImageRatingTask_S4,2021.1.4,Win32,60.09615385,,,,,,,,,
,,,,,,,,,,,,0,6,6,6,1,seventh,5,21,Female,R,Donders,2021-07-11_13h28.43.025,ImageRatingTask_S4,2021.1.4,Win32,60.09615385,,,,,,,,,
,,,,,,,,,,,,0,7,7,7,1,last,5,21,Female,R,Donders,2021-07-11_13h28.43.025,ImageRatingTask_S4,2021.1.4,Win32,60.09615385,,,,,,,,,
,,,,,,,,,,,,,,,,,,5,21,Female,R,Donders,2021-07-11_13h28.43.025,ImageRatingTask_S4,2021.1.4,Win32,60.09615385,0,57,57,8,1,DreamStudyImages_rs1000x750g/Vehicles/9610.jpg,,,
,,5,4.1997,5,0.1721,7,2.2049,1,0.6348,6,0.7134,0,0,0,0,1,main,5,21,Female,R,Donders,2021-07-11_13h28.43.025,ImageRatingTask_S4,2021.1.4,Win32,60.09615385,,,,,,,,,
,,,,,,,,,,,,0,1,1,1,1,second,5,21,Female,R,Donders,2021-07-11_13h28.43.025,ImageRatingTask_S4,2021.1.4,Win32,60.09615385,,,,,,,,,
,,,,,,,,,,,,0,2,2,2,1,third,5,21,Female,R,Donders,2021-07-11_13h28.43.025,ImageRatingTask_S4,2021.1.4,Win32,60.09615385,,,,,,,,,
,,,,,,,,,,,,0,3,3,3,1,fourth,5,21,Female,R,Donders,2021-07-11_13h28.43.025,ImageRatingTask_S4,2021.1.4,Win32,60.09615385,,,,,,,,,
,,,,,,,,,,,,0,4,4,4,1,fifth,5,21,Female,R,Donders,2021-07-11_13h28.43.025,ImageRatingTask_S4,2021.1.4,Win32,60.09615385,,,,,,,,,
,,,,,,,,,,,,0,5,5,5,1,sixth,5,21,Female,R,Donders,2021-07-11_13h28.43.025,ImageRatingTask_S4,2021.1.4,Win32,60.09615385,,,,,,,,,
,,,,,,,,,,,,0,6,6,6,1,seventh,5,21,Female,R,Donders,2021-07-11_13h28.43.025,ImageRatingTask_S4,2021.1.4,Win32,60.09615385,,,,,,,,,
,,,,,,,,,,,,0,7,7,7,1,last,5,21,Female,R,Donders,2021-07-11_13h28.43.025,ImageRatingTask_S4,2021.1.4,Win32,60.09615385,,,,,,,,,
,,,,,,,,,,,,,,,,,,5,21,Female,R,Donders,2021-07-11_13h28.43.025,ImageRatingTask_S4,2021.1.4,Win32,60.09615385,0,58,58,136,1,DreamStudyImages_rs1000x750g/Houses/Landscapes_049_h.jpg,,,
,,5,1.3911,5,0.4954,8,1.0649,1,0.6364,6,0.9626,0,0,0,0,1,main,5,21,Female,R,Donders,2021-07-11_13h28.43.025,ImageRatingTask_S4,2021.1.4,Win32,60.09615385,,,,,,,,,
,,,,,,,,,,,,0,1,1,1,1,second,5,21,Female,R,Donders,2021-07-11_13h28.43.025,ImageRatingTask_S4,2021.1.4,Win32,60.09615385,,,,,,,,,
,,,,,,,,,,,,0,2,2,2,1,third,5,21,Female,R,Donders,2021-07-11_13h28.43.025,ImageRatingTask_S4,2021.1.4,Win32,60.09615385,,,,,,,,,
,,,,,,,,,,,,0,3,3,3,1,fourth,5,21,Female,R,Donders,2021-07-11_13h28.43.025,ImageRatingTask_S4,2021.1.4,Win32,60.09615385,,,,,,,,,
,,,,,,,,,,,,0,4,4,4,1,fifth,5,21,Female,R,Donders,2021-07-11_13h28.43.025,ImageRatingTask_S4,2021.1.4,Win32,60.09615385,,,,,,,,,
,,,,,,,,,,,,0,5,5,5,1,sixth,5,21,Female,R,Donders,2021-07-11_13h28.43.025,ImageRatingTask_S4,2021.1.4,Win32,60.09615385,,,,,,,,,
,,,,,,,,,,,,0,6,6,6,1,seventh,5,21,Female,R,Donders,2021-07-11_13h28.43.025,ImageRatingTask_S4,2021.1.4,Win32,60.09615385,,,,,,,,,
,,,,,,,,,,,,0,7,7,7,1,last,5,21,Female,R,Donders,2021-07-11_13h28.43.025,ImageRatingTask_S4,2021.1.4,Win32,60.09615385,,,,,,,,,
,,,,,,,,,,,,,,,,,,5,21,Female,R,Donders,2021-07-11_13h28.43.025,ImageRatingTask_S4,2021.1.4,Win32,60.09615385,0,59,59,141,1,DreamStudyImages_rs1000x750g/Houses/snowchalet.jpg,,,
,,4,2.6059,7,1.1733,8,2.1359,1,0.8897,3,0.7549,0,0,0,0,1,main,5,21,Female,R,Donders,2021-07-11_13h28.43.025,ImageRatingTask_S4,2021.1.4,Win32,60.09615385,,,,,,,,,
,,,,,,,,,,,,0,1,1,1,1,second,5,21,Female,R,Donders,2021-07-11_13h28.43.025,ImageRatingTask_S4,2021.1.4,Win32,60.09615385,,,,,,,,,
,,,,,,,,,,,,0,2,2,2,1,third,5,21,Female,R,Donders,2021-07-11_13h28.43.025,ImageRatingTask_S4,2021.1.4,Win32,60.09615385,,,,,,,,,
,,,,,,,,,,,,0,3,3,3,1,fourth,5,21,Female,R,Donders,2021-07-11_13h28.43.025,ImageRatingTask_S4,2021.1.4,Win32,60.09615385,,,,,,,,,
,,,,,,,,,,,,0,4,4,4,1,fifth,5,21,Female,R,Donders,2021-07-11_13h28.43.025,ImageRatingTask_S4,2021.1.4,Win32,60.09615385,,,,,,,,,
,,,,,,,,,,,,0,5,5,5,1,sixth,5,21,Female,R,Donders,2021-07-11_13h28.43.025,ImageRatingTask_S4,2021.1.4,Win32,60.09615385,,,,,,,,,
,,,,,,,,,,,,0,6,6,6,1,seventh,5,21,Female,R,Donders,2021-07-11_13h28.43.025,ImageRatingTask_S4,2021.1.4,Win32,60.09615385,,,,,,,,,
,,,,,,,,,,,,0,7,7,7,1,last,5,21,Female,R,Donders,2021-07-11_13h28.43.025,ImageRatingTask_S4,2021.1.4,Win32,60.09615385,,,,,,,,,
,,,,,,,,,,,,,,,,,,5,21,Female,R,Donders,2021-07-11_13h28.43.025,ImageRatingTask_S4,2021.1.4,Win32,60.09615385,0,60,60,83,1,DreamStudyImages_rs1000x750g/Mammals/IAPS1505_dog7.jpg,,,
,,2,1.6648,7,1.2234,7,3.2692,1,0.9564,5,1.1763,0,0,0,0,1,main,5,21,Female,R,Donders,2021-07-11_13h28.43.025,ImageRatingTask_S4,2021.1.4,Win32,60.09615385,,,,,,,,,
,,,,,,,,,,,,0,1,1,1,1,second,5,21,Female,R,Donders,2021-07-11_13h28.43.025,ImageRatingTask_S4,2021.1.4,Win32,60.09615385,,,,,,,,,
,,,,,,,,,,,,0,2,2,2,1,third,5,21,Female,R,Donders,2021-07-11_13h28.43.025,ImageRatingTask_S4,2021.1.4,Win32,60.09615385,,,,,,,,,
,,,,,,,,,,,,0,3,3,3,1,fourth,5,21,Female,R,Donders,2021-07-11_13h28.43.025,ImageRatingTask_S4,2021.1.4,Win32,60.09615385,,,,,,,,,
,,,,,,,,,,,,0,4,4,4,1,fifth,5,21,Female,R,Donders,2021-07-11_13h28.43.025,ImageRatingTask_S4,2021.1.4,Win32,60.09615385,,,,,,,,,
,,,,,,,,,,,,0,5,5,5,1,sixth,5,21,Female,R,Donders,2021-07-11_13h28.43.025,ImageRatingTask_S4,2021.1.4,Win32,60.09615385,,,,,,,,,
,,,,,,,,,,,,0,6,6,6,1,seventh,5,21,Female,R,Donders,2021-07-11_13h28.43.025,ImageRatingTask_S4,2021.1.4,Win32,60.09615385,,,,,,,,,
,,,,,,,,,,,,0,7,7,7,1,last,5,21,Female,R,Donders,2021-07-11_13h28.43.025,ImageRatingTask_S4,2021.1.4,Win32,60.09615385,,,,,,,,,
,,,,,,,,,,,,,,,,,,5,21,Female,R,Donders,2021-07-11_13h28.43.025,ImageRatingTask_S4,2021.1.4,Win32,60.09615385,0,61,61,154,1,DreamStudyImages_rs1000x750g/Food/food_neg.jpg,,,
,,5,3.6786,5,0.0534,9,1.5039,1,3.1981,5,0.6424,0,0,0,0,1,main,5,21,Female,R,Donders,2021-07-11_13h28.43.025,ImageRatingTask_S4,2021.1.4,Win32,60.09615385,,,,,,,,,
,,,,,,,,,,,,0,1,1,1,1,second,5,21,Female,R,Donders,2021-07-11_13h28.43.025,ImageRatingTask_S4,2021.1.4,Win32,60.09615385,,,,,,,,,
,,,,,,,,,,,,0,2,2,2,1,third,5,21,Female,R,Donders,2021-07-11_13h28.43.025,ImageRatingTask_S4,2021.1.4,Win32,60.09615385,,,,,,,,,
,,,,,,,,,,,,0,3,3,3,1,fourth,5,21,Female,R,Donders,2021-07-11_13h28.43.025,ImageRatingTask_S4,2021.1.4,Win32,60.09615385,,,,,,,,,
,,,,,,,,,,,,0,4,4,4,1,fifth,5,21,Female,R,Donders,2021-07-11_13h28.43.025,ImageRatingTask_S4,2021.1.4,Win32,60.09615385,,,,,,,,,
,,,,,,,,,,,,0,5,5,5,1,sixth,5,21,Female,R,Donders,2021-07-11_13h28.43.025,ImageRatingTask_S4,2021.1.4,Win32,60.09615385,,,,,,,,,
,,,,,,,,,,,,0,6,6,6,1,seventh,5,21,Female,R,Donders,2021-07-11_13h28.43.025,ImageRatingTask_S4,2021.1.4,Win32,60.09615385,,,,,,,,,
,,,,,,,,,,,,0,7,7,7,1,last,5,21,Female,R,Donders,2021-07-11_13h28.43.025,ImageRatingTask_S4,2021.1.4,Win32,60.09615385,,,,,,,,,
,,,,,,,,,,,,,,,,,,5,21,Female,R,Donders,2021-07-11_13h28.43.025,ImageRatingTask_S4,2021.1.4,Win32,60.09615385,0,62,62,73,1,DreamStudyImages_rs1000x750g/Food/Objects_018_h.jpg,,,
,,7,16.1821,3,1.2737,8,2.4582,1,1.2265,5,0.4531,0,0,0,0,1,main,5,21,Female,R,Donders,2021-07-11_13h28.43.025,ImageRatingTask_S4,2021.1.4,Win32,60.09615385,,,,,,,,,
,,,,,,,,,,,,0,1,1,1,1,second,5,21,Female,R,Donders,2021-07-11_13h28.43.025,ImageRatingTask_S4,2021.1.4,Win32,60.09615385,,,,,,,,,
,,,,,,,,,,,,0,2,2,2,1,third,5,21,Female,R,Donders,2021-07-11_13h28.43.025,ImageRatingTask_S4,2021.1.4,Win32,60.09615385,,,,,,,,,
,,,,,,,,,,,,0,3,3,3,1,fourth,5,21,Female,R,Donders,2021-07-11_13h28.43.025,ImageRatingTask_S4,2021.1.4,Win32,60.09615385,,,,,,,,,
,,,,,,,,,,,,0,4,4,4,1,fifth,5,21,Female,R,Donders,2021-07-11_13h28.43.025,ImageRatingTask_S4,2021.1.4,Win32,60.09615385,,,,,,,,,
,,,,,,,,,,,,0,5,5,5,1,sixth,5,21,Female,R,Donders,2021-07-11_13h28.43.025,ImageRatingTask_S4,2021.1.4,Win32,60.09615385,,,,,,,,,
,,,,,,,,,,,,0,6,6,6,1,seventh,5,21,Female,R,Donders,2021-07-11_13h28.43.025,ImageRatingTask_S4,2021.1.4,Win32,60.09615385,,,,,,,,,
,,,,,,,,,,,,0,7,7,7,1,last,5,21,Female,R,Donders,2021-07-11_13h28.43.025,ImageRatingTask_S4,2021.1.4,Win32,60.09615385,,,,,,,,,
,,,,,,,,,,,,,,,,,,5,21,Female,R,Donders,2021-07-11_13h28.43.025,ImageRatingTask_S4,2021.1.4,Win32,60.09615385,0,63,63,6,1,DreamStudyImages_rs1000x750g/Food/Objects_097_h.jpg,,,
,,2,5.4178,6,2.4985,7,1.4743,1,0.6519,6,0.5815,0,0,0,0,1,main,5,21,Female,R,Donders,2021-07-11_13h28.43.025,ImageRatingTask_S4,2021.1.4,Win32,60.09615385,,,,,,,,,
,,,,,,,,,,,,0,1,1,1,1,second,5,21,Female,R,Donders,2021-07-11_13h28.43.025,ImageRatingTask_S4,2021.1.4,Win32,60.09615385,,,,,,,,,
,,,,,,,,,,,,0,2,2,2,1,third,5,21,Female,R,Donders,2021-07-11_13h28.43.025,ImageRatingTask_S4,2021.1.4,Win32,60.09615385,,,,,,,,,
,,,,,,,,,,,,0,3,3,3,1,fourth,5,21,Female,R,Donders,2021-07-11_13h28.43.025,ImageRatingTask_S4,2021.1.4,Win32,60.09615385,,,,,,,,,
,,,,,,,,,,,,0,4,4,4,1,fifth,5,21,Female,R,Donders,2021-07-11_13h28.43.025,ImageRatingTask_S4,2021.1.4,Win32,60.09615385,,,,,,,,,
,,,,,,,,,,,,0,5,5,5,1,sixth,5,21,Female,R,Donders,2021-07-11_13h28.43.025,ImageRatingTask_S4,2021.1.4,Win32,60.09615385,,,,,,,,,
,,,,,,,,,,,,0,6,6,6,1,seventh,5,21,Female,R,Donders,2021-07-11_13h28.43.025,ImageRatingTask_S4,2021.1.4,Win32,60.09615385,,,,,,,,,
,,,,,,,,,,,,0,7,7,7,1,last,5,21,Female,R,Donders,2021-07-11_13h28.43.025,ImageRatingTask_S4,2021.1.4,Win32,60.09615385,,,,,,,,,
,,,,,,,,,,,,,,,,,,5,21,Female,R,Donders,2021-07-11_13h28.43.025,ImageRatingTask_S4,2021.1.4,Win32,60.09615385,0,64,64,62,1,DreamStudyImages_rs1000x750g/Houses/9470.jpg,,,
,,5,2.0572,5,0.1797,7,1.7363,1,1.3545,6,0.4541,0,0,0,0,1,main,5,21,Female,R,Donders,2021-07-11_13h28.43.025,ImageRatingTask_S4,2021.1.4,Win32,60.09615385,,,,,,,,,
,,,,,,,,,,,,0,1,1,1,1,second,5,21,Female,R,Donders,2021-07-11_13h28.43.025,ImageRatingTask_S4,2021.1.4,Win32,60.09615385,,,,,,,,,
,,,,,,,,,,,,0,2,2,2,1,third,5,21,Female,R,Donders,2021-07-11_13h28.43.025,ImageRatingTask_S4,2021.1.4,Win32,60.09615385,,,,,,,,,
,,,,,,,,,,,,0,3,3,3,1,fourth,5,21,Female,R,Donders,2021-07-11_13h28.43.025,ImageRatingTask_S4,2021.1.4,Win32,60.09615385,,,,,,,,,
,,,,,,,,,,,,0,4,4,4,1,fifth,5,21,Female,R,Donders,2021-07-11_13h28.43.025,ImageRatingTask_S4,2021.1.4,Win32,60.09615385,,,,,,,,,
,,,,,,,,,,,,0,5,5,5,1,sixth,5,21,Female,R,Donders,2021-07-11_13h28.43.025,ImageRatingTask_S4,2021.1.4,Win32,60.09615385,,,,,,,,,
,,,,,,,,,,,,0,6,6,6,1,seventh,5,21,Female,R,Donders,2021-07-11_13h28.43.025,ImageRatingTask_S4,2021.1.4,Win32,60.09615385,,,,,,,,,
,,,,,,,,,,,,0,7,7,7,1,last,5,21,Female,R,Donders,2021-07-11_13h28.43.025,ImageRatingTask_S4,2021.1.4,Win32,60.09615385,,,,,,,,,
,,,,,,,,,,,,,,,,,,5,21,Female,R,Donders,2021-07-11_13h28.43.025,ImageRatingTask_S4,2021.1.4,Win32,60.09615385,0,65,65,47,1,DreamStudyImages_rs1000x750g/Houses/IAPS7504_staircases.jpg,,,
,,7,1.7427,3,1.2664,8,1.7727,1,1.1378,3,0.4121,0,0,0,0,1,main,5,21,Female,R,Donders,2021-07-11_13h28.43.025,ImageRatingTask_S4,2021.1.4,Win32,60.09615385,,,,,,,,,
,,,,,,,,,,,,0,1,1,1,1,second,5,21,Female,R,Donders,2021-07-11_13h28.43.025,ImageRatingTask_S4,2021.1.4,Win32,60.09615385,,,,,,,,,
,,,,,,,,,,,,0,2,2,2,1,third,5,21,Female,R,Donders,2021-07-11_13h28.43.025,ImageRatingTask_S4,2021.1.4,Win32,60.09615385,,,,,,,,,
,,,,,,,,,,,,0,3,3,3,1,fourth,5,21,Female,R,Donders,2021-07-11_13h28.43.025,ImageRatingTask_S4,2021.1.4,Win32,60.09615385,,,,,,,,,
,,,,,,,,,,,,0,4,4,4,1,fifth,5,21,Female,R,Donders,2021-07-11_13h28.43.025,ImageRatingTask_S4,2021.1.4,Win32,60.09615385,,,,,,,,,
,,,,,,,,,,,,0,5,5,5,1,sixth,5,21,Female,R,Donders,2021-07-11_13h28.43.025,ImageRatingTask_S4,2021.1.4,Win32,60.09615385,,,,,,,,,
,,,,,,,,,,,,0,6,6,6,1,seventh,5,21,Female,R,Donders,2021-07-11_13h28.43.025,ImageRatingTask_S4,2021.1.4,Win32,60.09615385,,,,,,,,,
,,,,,,,,,,,,0,7,7,7,1,last,5,21,Female,R,Donders,2021-07-11_13h28.43.025,ImageRatingTask_S4,2021.1.4,Win32,60.09615385,,,,,,,,,
,,,,,,,,,,,,,,,,,,5,21,Female,R,Donders,2021-07-11_13h28.43.025,ImageRatingTask_S4,2021.1.4,Win32,60.09615385,0,66,66,35,1,DreamStudyImages_rs1000x750g/Mammals/Lion 4.jpg,,,
,,6,2.7056,4,1.1902,8,1.4691,1,0.8115,6,0.4562,0,0,0,0,1,main,5,21,Female,R,Donders,2021-07-11_13h28.43.025,ImageRatingTask_S4,2021.1.4,Win32,60.09615385,,,,,,,,,
,,,,,,,,,,,,0,1,1,1,1,second,5,21,Female,R,Donders,2021-07-11_13h28.43.025,ImageRatingTask_S4,2021.1.4,Win32,60.09615385,,,,,,,,,
,,,,,,,,,,,,0,2,2,2,1,third,5,21,Female,R,Donders,2021-07-11_13h28.43.025,ImageRatingTask_S4,2021.1.4,Win32,60.09615385,,,,,,,,,
,,,,,,,,,,,,0,3,3,3,1,fourth,5,21,Female,R,Donders,2021-07-11_13h28.43.025,ImageRatingTask_S4,2021.1.4,Win32,60.09615385,,,,,,,,,
,,,,,,,,,,,,0,4,4,4,1,fifth,5,21,Female,R,Donders,2021-07-11_13h28.43.025,ImageRatingTask_S4,2021.1.4,Win32,60.09615385,,,,,,,,,
,,,,,,,,,,,,0,5,5,5,1,sixth,5,21,Female,R,Donders,2021-07-11_13h28.43.025,ImageRatingTask_S4,2021.1.4,Win32,60.09615385,,,,,,,,,
,,,,,,,,,,,,0,6,6,6,1,seventh,5,21,Female,R,Donders,2021-07-11_13h28.43.025,ImageRatingTask_S4,2021.1.4,Win32,60.09615385,,,,,,,,,
,,,,,,,,,,,,0,7,7,7,1,last,5,21,Female,R,Donders,2021-07-11_13h28.43.025,ImageRatingTask_S4,2021.1.4,Win32,60.09615385,,,,,,,,,
,,,,,,,,,,,,,,,,,,5,21,Female,R,Donders,2021-07-11_13h28.43.025,ImageRatingTask_S4,2021.1.4,Win32,60.09615385,0,67,67,106,1,DreamStudyImages_rs1000x750g/Houses/Landscapes_090_h_CROPPED.jpg,,,
,,5,2.4242,5,0.2099,8,2.1254,1,1.2288,6,0.89,0,0,0,0,1,main,5,21,Female,R,Donders,2021-07-11_13h28.43.025,ImageRatingTask_S4,2021.1.4,Win32,60.09615385,,,,,,,,,
,,,,,,,,,,,,0,1,1,1,1,second,5,21,Female,R,Donders,2021-07-11_13h28.43.025,ImageRatingTask_S4,2021.1.4,Win32,60.09615385,,,,,,,,,
,,,,,,,,,,,,0,2,2,2,1,third,5,21,Female,R,Donders,2021-07-11_13h28.43.025,ImageRatingTask_S4,2021.1.4,Win32,60.09615385,,,,,,,,,
,,,,,,,,,,,,0,3,3,3,1,fourth,5,21,Female,R,Donders,2021-07-11_13h28.43.025,ImageRatingTask_S4,2021.1.4,Win32,60.09615385,,,,,,,,,
,,,,,,,,,,,,0,4,4,4,1,fifth,5,21,Female,R,Donders,2021-07-11_13h28.43.025,ImageRatingTask_S4,2021.1.4,Win32,60.09615385,,,,,,,,,
,,,,,,,,,,,,0,5,5,5,1,sixth,5,21,Female,R,Donders,2021-07-11_13h28.43.025,ImageRatingTask_S4,2021.1.4,Win32,60.09615385,,,,,,,,,
,,,,,,,,,,,,0,6,6,6,1,seventh,5,21,Female,R,Donders,2021-07-11_13h28.43.025,ImageRatingTask_S4,2021.1.4,Win32,60.09615385,,,,,,,,,
,,,,,,,,,,,,0,7,7,7,1,last,5,21,Female,R,Donders,2021-07-11_13h28.43.025,ImageRatingTask_S4,2021.1.4,Win32,60.09615385,,,,,,,,,
,,,,,,,,,,,,,,,,,,5,21,Female,R,Donders,2021-07-11_13h28.43.025,ImageRatingTask_S4,2021.1.4,Win32,60.09615385,0,68,68,42,1,DreamStudyImages_rs1000x750g/Houses/Landscapes_038_h.jpg,,,
,,8,1.0459,2,1.9323,7,1.8413,1,0.7962,8,0.4449,0,0,0,0,1,main,5,21,Female,R,Donders,2021-07-11_13h28.43.025,ImageRatingTask_S4,2021.1.4,Win32,60.09615385,,,,,,,,,
,,,,,,,,,,,,0,1,1,1,1,second,5,21,Female,R,Donders,2021-07-11_13h28.43.025,ImageRatingTask_S4,2021.1.4,Win32,60.09615385,,,,,,,,,
,,,,,,,,,,,,0,2,2,2,1,third,5,21,Female,R,Donders,2021-07-11_13h28.43.025,ImageRatingTask_S4,2021.1.4,Win32,60.09615385,,,,,,,,,
,,,,,,,,,,,,0,3,3,3,1,fourth,5,21,Female,R,Donders,2021-07-11_13h28.43.025,ImageRatingTask_S4,2021.1.4,Win32,60.09615385,,,,,,,,,
,,,,,,,,,,,,0,4,4,4,1,fifth,5,21,Female,R,Donders,2021-07-11_13h28.43.025,ImageRatingTask_S4,2021.1.4,Win32,60.09615385,,,,,,,,,
,,,,,,,,,,,,0,5,5,5,1,sixth,5,21,Female,R,Donders,2021-07-11_13h28.43.025,ImageRatingTask_S4,2021.1.4,Win32,60.09615385,,,,,,,,,
,,,,,,,,,,,,0,6,6,6,1,seventh,5,21,Female,R,Donders,2021-07-11_13h28.43.025,ImageRatingTask_S4,2021.1.4,Win32,60.09615385,,,,,,,,,
,,,,,,,,,,,,0,7,7,7,1,last,5,21,Female,R,Donders,2021-07-11_13h28.43.025,ImageRatingTask_S4,2021.1.4,Win32,60.09615385,,,,,,,,,
,,,,,,,,,,,,,,,,,,5,21,Female,R,Donders,2021-07-11_13h28.43.025,ImageRatingTask_S4,2021.1.4,Win32,60.09615385,0,69,69,20,1,DreamStudyImages_rs1000x750g/Water/Sunset 4.jpg,,,
,,5,2.061,5,1.3126,7,1.3259,1,0.5481,2,0.3094,0,0,0,0,1,main,5,21,Female,R,Donders,2021-07-11_13h28.43.025,ImageRatingTask_S4,2021.1.4,Win32,60.09615385,,,,,,,,,
,,,,,,,,,,,,0,1,1,1,1,second,5,21,Female,R,Donders,2021-07-11_13h28.43.025,ImageRatingTask_S4,2021.1.4,Win32,60.09615385,,,,,,,,,
,,,,,,,,,,,,0,2,2,2,1,third,5,21,Female,R,Donders,2021-07-11_13h28.43.025,ImageRatingTask_S4,2021.1.4,Win32,60.09615385,,,,,,,,,
,,,,,,,,,,,,0,3,3,3,1,fourth,5,21,Female,R,Donders,2021-07-11_13h28.43.025,ImageRatingTask_S4,2021.1.4,Win32,60.09615385,,,,,,,,,
,,,,,,,,,,,,0,4,4,4,1,fifth,5,21,Female,R,Donders,2021-07-11_13h28.43.025,ImageRatingTask_S4,2021.1.4,Win32,60.09615385,,,,,,,,,
,,,,,,,,,,,,0,5,5,5,1,sixth,5,21,Female,R,Donders,2021-07-11_13h28.43.025,ImageRatingTask_S4,2021.1.4,Win32,60.09615385,,,,,,,,,
,,,,,,,,,,,,0,6,6,6,1,seventh,5,21,Female,R,Donders,2021-07-11_13h28.43.025,ImageRatingTask_S4,2021.1.4,Win32,60.09615385,,,,,,,,,
,,,,,,,,,,,,0,7,7,7,1,last,5,21,Female,R,Donders,2021-07-11_13h28.43.025,ImageRatingTask_S4,2021.1.4,Win32,60.09615385,,,,,,,,,
,,,,,,,,,,,,,,,,,,5,21,Female,R,Donders,2021-07-11_13h28.43.025,ImageRatingTask_S4,2021.1.4,Win32,60.09615385,0,70,70,120,1,DreamStudyImages_rs1000x750g/Children/Children 1.jpg,,,
,,5,2.9725,5,0.7842,5,1.4224,1,0.8054,6,0.7839,0,0,0,0,1,main,5,21,Female,R,Donders,2021-07-11_13h28.43.025,ImageRatingTask_S4,2021.1.4,Win32,60.09615385,,,,,,,,,
,,,,,,,,,,,,0,1,1,1,1,second,5,21,Female,R,Donders,2021-07-11_13h28.43.025,ImageRatingTask_S4,2021.1.4,Win32,60.09615385,,,,,,,,,
,,,,,,,,,,,,0,2,2,2,1,third,5,21,Female,R,Donders,2021-07-11_13h28.43.025,ImageRatingTask_S4,2021.1.4,Win32,60.09615385,,,,,,,,,
,,,,,,,,,,,,0,3,3,3,1,fourth,5,21,Female,R,Donders,2021-07-11_13h28.43.025,ImageRatingTask_S4,2021.1.4,Win32,60.09615385,,,,,,,,,
,,,,,,,,,,,,0,4,4,4,1,fifth,5,21,Female,R,Donders,2021-07-11_13h28.43.025,ImageRatingTask_S4,2021.1.4,Win32,60.09615385,,,,,,,,,
,,,,,,,,,,,,0,5,5,5,1,sixth,5,21,Female,R,Donders,2021-07-11_13h28.43.025,ImageRatingTask_S4,2021.1.4,Win32,60.09615385,,,,,,,,,
,,,,,,,,,,,,0,6,6,6,1,seventh,5,21,Female,R,Donders,2021-07-11_13h28.43.025,ImageRatingTask_S4,2021.1.4,Win32,60.09615385,,,,,,,,,
,,,,,,,,,,,,0,7,7,7,1,last,5,21,Female,R,Donders,2021-07-11_13h28.43.025,ImageRatingTask_S4,2021.1.4,Win32,60.09615385,,,,,,,,,
,,,,,,,,,,,,,,,,,,5,21,Female,R,Donders,2021-07-11_13h28.43.025,ImageRatingTask_S4,2021.1.4,Win32,60.09615385,0,71,71,146,1,DreamStudyImages_rs1000x750g/Houses/IAPS5994_hotels_CROPPED.jpg,,,
,,5,3.9151,5,0.2001,5,1.5868,1,0.4722,2,0.2968,0,0,0,0,1,main,5,21,Female,R,Donders,2021-07-11_13h28.43.025,ImageRatingTask_S4,2021.1.4,Win32,60.09615385,,,,,,,,,
,,,,,,,,,,,,0,1,1,1,1,second,5,21,Female,R,Donders,2021-07-11_13h28.43.025,ImageRatingTask_S4,2021.1.4,Win32,60.09615385,,,,,,,,,
,,,,,,,,,,,,0,2,2,2,1,third,5,21,Female,R,Donders,2021-07-11_13h28.43.025,ImageRatingTask_S4,2021.1.4,Win32,60.09615385,,,,,,,,,
,,,,,,,,,,,,0,3,3,3,1,fourth,5,21,Female,R,Donders,2021-07-11_13h28.43.025,ImageRatingTask_S4,2021.1.4,Win32,60.09615385,,,,,,,,,
,,,,,,,,,,,,0,4,4,4,1,fifth,5,21,Female,R,Donders,2021-07-11_13h28.43.025,ImageRatingTask_S4,2021.1.4,Win32,60.09615385,,,,,,,,,
,,,,,,,,,,,,0,5,5,5,1,sixth,5,21,Female,R,Donders,2021-07-11_13h28.43.025,ImageRatingTask_S4,2021.1.4,Win32,60.09615385,,,,,,,,,
,,,,,,,,,,,,0,6,6,6,1,seventh,5,21,Female,R,Donders,2021-07-11_13h28.43.025,ImageRatingTask_S4,2021.1.4,Win32,60.09615385,,,,,,,,,
,,,,,,,,,,,,0,7,7,7,1,last,5,21,Female,R,Donders,2021-07-11_13h28.43.025,ImageRatingTask_S4,2021.1.4,Win32,60.09615385,,,,,,,,,
,,,,,,,,,,,,,,,,,,5,21,Female,R,Donders,2021-07-11_13h28.43.025,ImageRatingTask_S4,2021.1.4,Win32,60.09615385,0,72,72,58,1,DreamStudyImages_rs1000x750g/Children/IAPS3300_baby25.jpg,,,
,,5,1.3768,5,0.3514,8,1.9807,1,0.727,6,0.7417,0,0,0,0,1,main,5,21,Female,R,Donders,2021-07-11_13h28.43.025,ImageRatingTask_S4,2021.1.4,Win32,60.09615385,,,,,,,,,
,,,,,,,,,,,,0,1,1,1,1,second,5,21,Female,R,Donders,2021-07-11_13h28.43.025,ImageRatingTask_S4,2021.1.4,Win32,60.09615385,,,,,,,,,
,,,,,,,,,,,,0,2,2,2,1,third,5,21,Female,R,Donders,2021-07-11_13h28.43.025,ImageRatingTask_S4,2021.1.4,Win32,60.09615385,,,,,,,,,
,,,,,,,,,,,,0,3,3,3,1,fourth,5,21,Female,R,Donders,2021-07-11_13h28.43.025,ImageRatingTask_S4,2021.1.4,Win32,60.09615385,,,,,,,,,
,,,,,,,,,,,,0,4,4,4,1,fifth,5,21,Female,R,Donders,2021-07-11_13h28.43.025,ImageRatingTask_S4,2021.1.4,Win32,60.09615385,,,,,,,,,
,,,,,,,,,,,,0,5,5,5,1,sixth,5,21,Female,R,Donders,2021-07-11_13h28.43.025,ImageRatingTask_S4,2021.1.4,Win32,60.09615385,,,,,,,,,
,,,,,,,,,,,,0,6,6,6,1,seventh,5,21,Female,R,Donders,2021-07-11_13h28.43.025,ImageRatingTask_S4,2021.1.4,Win32,60.09615385,,,,,,,,,
,,,,,,,,,,,,0,7,7,7,1,last,5,21,Female,R,Donders,2021-07-11_13h28.43.025,ImageRatingTask_S4,2021.1.4,Win32,60.09615385,,,,,,,,,
,,,,,,,,,,,,,,,,,,5,21,Female,R,Donders,2021-07-11_13h28.43.025,ImageRatingTask_S4,2021.1.4,Win32,60.09615385,0,73,73,134,1,DreamStudyImages_rs1000x750g/Houses/Landscapes_027_v.jpg,,,
,,9,1.3079,1,1.3215,8,2.1875,1,1.0086,3,2.4617,0,0,0,0,1,main,5,21,Female,R,Donders,2021-07-11_13h28.43.025,ImageRatingTask_S4,2021.1.4,Win32,60.09615385,,,,,,,,,
,,,,,,,,,,,,0,1,1,1,1,second,5,21,Female,R,Donders,2021-07-11_13h28.43.025,ImageRatingTask_S4,2021.1.4,Win32,60.09615385,,,,,,,,,
,,,,,,,,,,,,0,2,2,2,1,third,5,21,Female,R,Donders,2021-07-11_13h28.43.025,ImageRatingTask_S4,2021.1.4,Win32,60.09615385,,,,,,,,,
,,,,,,,,,,,,0,3,3,3,1,fourth,5,21,Female,R,Donders,2021-07-11_13h28.43.025,ImageRatingTask_S4,2021.1.4,Win32,60.09615385,,,,,,,,,
,,,,,,,,,,,,0,4,4,4,1,fifth,5,21,Female,R,Donders,2021-07-11_13h28.43.025,ImageRatingTask_S4,2021.1.4,Win32,60.09615385,,,,,,,,,
,,,,,,,,,,,,0,5,5,5,1,sixth,5,21,Female,R,Donders,2021-07-11_13h28.43.025,ImageRatingTask_S4,2021.1.4,Win32,60.09615385,,,,,,,,,
,,,,,,,,,,,,0,6,6,6,1,seventh,5,21,Female,R,Donders,2021-07-11_13h28.43.025,ImageRatingTask_S4,2021.1.4,Win32,60.09615385,,,,,,,,,
,,,,,,,,,,,,0,7,7,7,1,last,5,21,Female,R,Donders,2021-07-11_13h28.43.025,ImageRatingTask_S4,2021.1.4,Win32,60.09615385,,,,,,,,,
,,,,,,,,,,,,,,,,,,5,21,Female,R,Donders,2021-07-11_13h28.43.025,ImageRatingTask_S4,2021.1.4,Win32,60.09615385,0,74,74,96,1,DreamStudyImages_rs1000x750g/Mammals/1440.jpg,,,
,,5,6.0461,5,0.853,6,3.2516,1,0.9224,2,0.501,0,0,0,0,1,main,5,21,Female,R,Donders,2021-07-11_13h28.43.025,ImageRatingTask_S4,2021.1.4,Win32,60.09615385,,,,,,,,,
,,,,,,,,,,,,0,1,1,1,1,second,5,21,Female,R,Donders,2021-07-11_13h28.43.025,ImageRatingTask_S4,2021.1.4,Win32,60.09615385,,,,,,,,,
,,,,,,,,,,,,0,2,2,2,1,third,5,21,Female,R,Donders,2021-07-11_13h28.43.025,ImageRatingTask_S4,2021.1.4,Win32,60.09615385,,,,,,,,,
,,,,,,,,,,,,0,3,3,3,1,fourth,5,21,Female,R,Donders,2021-07-11_13h28.43.025,ImageRatingTask_S4,2021.1.4,Win32,60.09615385,,,,,,,,,
,,,,,,,,,,,,0,4,4,4,1,fifth,5,21,Female,R,Donders,2021-07-11_13h28.43.025,ImageRatingTask_S4,2021.1.4,Win32,60.09615385,,,,,,,,,
,,,,,,,,,,,,0,5,5,5,1,sixth,5,21,Female,R,Donders,2021-07-11_13h28.43.025,ImageRatingTask_S4,2021.1.4,Win32,60.09615385,,,,,,,,,
,,,,,,,,,,,,0,6,6,6,1,seventh,5,21,Female,R,Donders,2021-07-11_13h28.43.025,ImageRatingTask_S4,2021.1.4,Win32,60.09615385,,,,,,,,,
,,,,,,,,,,,,0,7,7,7,1,last,5,21,Female,R,Donders,2021-07-11_13h28.43.025,ImageRatingTask_S4,2021.1.4,Win32,60.09615385,,,,,,,,,
,,,,,,,,,,,,,,,,,,5,21,Female,R,Donders,2021-07-11_13h28.43.025,ImageRatingTask_S4,2021.1.4,Win32,60.09615385,0,75,75,97,1,DreamStudyImages_rs1000x750g/Children/IAPS2080_baby11.jpg,,,
,,5,1.7172,5,0.1259,7,2.1349,1,0.4707,7,1.7004,0,0,0,0,1,main,5,21,Female,R,Donders,2021-07-11_13h28.43.025,ImageRatingTask_S4,2021.1.4,Win32,60.09615385,,,,,,,,,
,,,,,,,,,,,,0,1,1,1,1,second,5,21,Female,R,Donders,2021-07-11_13h28.43.025,ImageRatingTask_S4,2021.1.4,Win32,60.09615385,,,,,,,,,
,,,,,,,,,,,,0,2,2,2,1,third,5,21,Female,R,Donders,2021-07-11_13h28.43.025,ImageRatingTask_S4,2021.1.4,Win32,60.09615385,,,,,,,,,
,,,,,,,,,,,,0,3,3,3,1,fourth,5,21,Female,R,Donders,2021-07-11_13h28.43.025,ImageRatingTask_S4,2021.1.4,Win32,60.09615385,,,,,,,,,
,,,,,,,,,,,,0,4,4,4,1,fifth,5,21,Female,R,Donders,2021-07-11_13h28.43.025,ImageRatingTask_S4,2021.1.4,Win32,60.09615385,,,,,,,,,
,,,,,,,,,,,,0,5,5,5,1,sixth,5,21,Female,R,Donders,2021-07-11_13h28.43.025,ImageRatingTask_S4,2021.1.4,Win32,60.09615385,,,,,,,,,
,,,,,,,,,,,,0,6,6,6,1,seventh,5,21,Female,R,Donders,2021-07-11_13h28.43.025,ImageRatingTask_S4,2021.1.4,Win32,60.09615385,,,,,,,,,
,,,,,,,,,,,,0,7,7,7,1,last,5,21,Female,R,Donders,2021-07-11_13h28.43.025,ImageRatingTask_S4,2021.1.4,Win32,60.09615385,,,,,,,,,
,,,,,,,,,,,,,,,,,,5,21,Female,R,Donders,2021-07-11_13h28.43.025,ImageRatingTask_S4,2021.1.4,Win32,60.09615385,0,76,76,12,1,DreamStudyImages_rs1000x750g/Vehicles/Objects_279_h.jpg,,,
,,2,3.0223,6,2.2015,7,2.6879,1,0.6757,6,0.7733,0,0,0,0,1,main,5,21,Female,R,Donders,2021-07-11_13h28.43.025,ImageRatingTask_S4,2021.1.4,Win32,60.09615385,,,,,,,,,
,,,,,,,,,,,,0,1,1,1,1,second,5,21,Female,R,Donders,2021-07-11_13h28.43.025,ImageRatingTask_S4,2021.1.4,Win32,60.09615385,,,,,,,,,
,,,,,,,,,,,,0,2,2,2,1,third,5,21,Female,R,Donders,2021-07-11_13h28.43.025,ImageRatingTask_S4,2021.1.4,Win32,60.09615385,,,,,,,,,
,,,,,,,,,,,,0,3,3,3,1,fourth,5,21,Female,R,Donders,2021-07-11_13h28.43.025,ImageRatingTask_S4,2021.1.4,Win32,60.09615385,,,,,,,,,
,,,,,,,,,,,,0,4,4,4,1,fifth,5,21,Female,R,Donders,2021-07-11_13h28.43.025,ImageRatingTask_S4,2021.1.4,Win32,60.09615385,,,,,,,,,
,,,,,,,,,,,,0,5,5,5,1,sixth,5,21,Female,R,Donders,2021-07-11_13h28.43.025,ImageRatingTask_S4,2021.1.4,Win32,60.09615385,,,,,,,,,
,,,,,,,,,,,,0,6,6,6,1,seventh,5,21,Female,R,Donders,2021-07-11_13h28.43.025,ImageRatingTask_S4,2021.1.4,Win32,60.09615385,,,,,,,,,
,,,,,,,,,,,,0,7,7,7,1,last,5,21,Female,R,Donders,2021-07-11_13h28.43.025,ImageRatingTask_S4,2021.1.4,Win32,60.09615385,,,,,,,,,
,,,,,,,,,,,,,,,,,,5,21,Female,R,Donders,2021-07-11_13h28.43.025,ImageRatingTask_S4,2021.1.4,Win32,60.09615385,0,77,77,72,1,DreamStudyImages_rs1000x750g/Vehicles/IAPS9911_carcrash8.jpg,,,
,,5,5.2425,5,0.4554,8,2.0451,1,0.7274,5,0.8269,0,0,0,0,1,main,5,21,Female,R,Donders,2021-07-11_13h28.43.025,ImageRatingTask_S4,2021.1.4,Win32,60.09615385,,,,,,,,,
,,,,,,,,,,,,0,1,1,1,1,second,5,21,Female,R,Donders,2021-07-11_13h28.43.025,ImageRatingTask_S4,2021.1.4,Win32,60.09615385,,,,,,,,,
,,,,,,,,,,,,0,2,2,2,1,third,5,21,Female,R,Donders,2021-07-11_13h28.43.025,ImageRatingTask_S4,2021.1.4,Win32,60.09615385,,,,,,,,,
,,,,,,,,,,,,0,3,3,3,1,fourth,5,21,Female,R,Donders,2021-07-11_13h28.43.025,ImageRatingTask_S4,2021.1.4,Win32,60.09615385,,,,,,,,,
,,,,,,,,,,,,0,4,4,4,1,fifth,5,21,Female,R,Donders,2021-07-11_13h28.43.025,ImageRatingTask_S4,2021.1.4,Win32,60.09615385,,,,,,,,,
,,,,,,,,,,,,0,5,5,5,1,sixth,5,21,Female,R,Donders,2021-07-11_13h28.43.025,ImageRatingTask_S4,2021.1.4,Win32,60.09615385,,,,,,,,,
,,,,,,,,,,,,0,6,6,6,1,seventh,5,21,Female,R,Donders,2021-07-11_13h28.43.025,ImageRatingTask_S4,2021.1.4,Win32,60.09615385,,,,,,,,,
,,,,,,,,,,,,0,7,7,7,1,last,5,21,Female,R,Donders,2021-07-11_13h28.43.025,ImageRatingTask_S4,2021.1.4,Win32,60.09615385,,,,,,,,,
,,,,,,,,,,,,,,,,,,5,21,Female,R,Donders,2021-07-11_13h28.43.025,ImageRatingTask_S4,2021.1.4,Win32,60.09615385,0,78,78,59,1,DreamStudyImages_rs1000x750g/Food/Objects_098_v.jpg,,,
,,8,6.4304,1,0.7917,9,2.0238,1,0.8775,8,0.4224,0,0,0,0,1,main,5,21,Female,R,Donders,2021-07-11_13h28.43.025,ImageRatingTask_S4,2021.1.4,Win32,60.09615385,,,,,,,,,
,,,,,,,,,,,,0,1,1,1,1,second,5,21,Female,R,Donders,2021-07-11_13h28.43.025,ImageRatingTask_S4,2021.1.4,Win32,60.09615385,,,,,,,,,
,,,,,,,,,,,,0,2,2,2,1,third,5,21,Female,R,Donders,2021-07-11_13h28.43.025,ImageRatingTask_S4,2021.1.4,Win32,60.09615385,,,,,,,,,
,,,,,,,,,,,,0,3,3,3,1,fourth,5,21,Female,R,Donders,2021-07-11_13h28.43.025,ImageRatingTask_S4,2021.1.4,Win32,60.09615385,,,,,,,,,
,,,,,,,,,,,,0,4,4,4,1,fifth,5,21,Female,R,Donders,2021-07-11_13h28.43.025,ImageRatingTask_S4,2021.1.4,Win32,60.09615385,,,,,,,,,
,,,,,,,,,,,,0,5,5,5,1,sixth,5,21,Female,R,Donders,2021-07-11_13h28.43.025,ImageRatingTask_S4,2021.1.4,Win32,60.09615385,,,,,,,,,
