slider_pre.response,slider_pre.rt,key_val.keys,key_val.rt,key_aro.keys,key_aro.rt,key_qual.keys,key_qual.rt,key_ncat.keys,key_ncat.rt,key_cats.keys,key_cats.rt,ncat_order.thisRepN,ncat_order.thisTrialN,ncat_order.thisN,ncat_order.thisIndex,ncat_order.ran,cond_cat,participant,age,gender,handedness (L/R),site (IMT/Donders),date,expName,psychopyVersion,OS,frameRate,img_trials.thisRepN,img_trials.thisTrialN,img_trials.thisN,img_trials.thisIndex,img_trials.ran,filename,slider_post.response,slider_post.rt,textbox_openfb.text
3,10.7155,3,6.4037,5,0.9672,8,1.5127,1,2.8851,8,0.7463,0,0,0,0,1,main,5,21,female,R,Donders,2021-07-08_13h39.22.270,ImageRatingTask_S3,2021.1.4,Win32,60.09976561,,,,,,,,,
,,,,,,,,,,,,0,1,1,1,1,second,5,21,female,R,Donders,2021-07-08_13h39.22.270,ImageRatingTask_S3,2021.1.4,Win32,60.09976561,,,,,,,,,
,,,,,,,,,,,,0,2,2,2,1,third,5,21,female,R,Donders,2021-07-08_13h39.22.270,ImageRatingTask_S3,2021.1.4,Win32,60.09976561,,,,,,,,,
,,,,,,,,,,,,0,3,3,3,1,fourth,5,21,female,R,Donders,2021-07-08_13h39.22.270,ImageRatingTask_S3,2021.1.4,Win32,60.09976561,,,,,,,,,
,,,,,,,,,,,,0,4,4,4,1,fifth,5,21,female,R,Donders,2021-07-08_13h39.22.270,ImageRatingTask_S3,2021.1.4,Win32,60.09976561,,,,,,,,,
,,,,,,,,,,,,0,5,5,5,1,sixth,5,21,female,R,Donders,2021-07-08_13h39.22.270,ImageRatingTask_S3,2021.1.4,Win32,60.09976561,,,,,,,,,
,,,,,,,,,,,,0,6,6,6,1,seventh,5,21,female,R,Donders,2021-07-08_13h39.22.270,ImageRatingTask_S3,2021.1.4,Win32,60.09976561,,,,,,,,,
,,,,,,,,,,,,0,7,7,7,1,last,5,21,female,R,Donders,2021-07-08_13h39.22.270,ImageRatingTask_S3,2021.1.4,Win32,60.09976561,,,,,,,,,
,,,,,,,,,,,,,,,,,,5,21,female,R,Donders,2021-07-08_13h39.22.270,ImageRatingTask_S3,2021.1.4,Win32,60.09976561,0,0,0,102,1,DreamStudyImages_rs1000x750g/Water/Landscapes_111_h.jpg,,,
,,4,3.1055,5,0.6447,7,1.903,1,0.8067,6,2.3795,0,0,0,0,1,main,5,21,female,R,Donders,2021-07-08_13h39.22.270,ImageRatingTask_S3,2021.1.4,Win32,60.09976561,,,,,,,,,
,,,,,,,,,,,,0,1,1,1,1,second,5,21,female,R,Donders,2021-07-08_13h39.22.270,ImageRatingTask_S3,2021.1.4,Win32,60.09976561,,,,,,,,,
,,,,,,,,,,,,0,2,2,2,1,third,5,21,female,R,Donders,2021-07-08_13h39.22.270,ImageRatingTask_S3,2021.1.4,Win32,60.09976561,,,,,,,,,
,,,,,,,,,,,,0,3,3,3,1,fourth,5,21,female,R,Donders,2021-07-08_13h39.22.270,ImageRatingTask_S3,2021.1.4,Win32,60.09976561,,,,,,,,,
,,,,,,,,,,,,0,4,4,4,1,fifth,5,21,female,R,Donders,2021-07-08_13h39.22.270,ImageRatingTask_S3,2021.1.4,Win32,60.09976561,,,,,,,,,
,,,,,,,,,,,,0,5,5,5,1,sixth,5,21,female,R,Donders,2021-07-08_13h39.22.270,ImageRatingTask_S3,2021.1.4,Win32,60.09976561,,,,,,,,,
,,,,,,,,,,,,0,6,6,6,1,seventh,5,21,female,R,Donders,2021-07-08_13h39.22.270,ImageRatingTask_S3,2021.1.4,Win32,60.09976561,,,,,,,,,
,,,,,,,,,,,,0,7,7,7,1,last,5,21,female,R,Donders,2021-07-08_13h39.22.270,ImageRatingTask_S3,2021.1.4,Win32,60.09976561,,,,,,,,,
,,,,,,,,,,,,,,,,,,5,21,female,R,Donders,2021-07-08_13h39.22.270,ImageRatingTask_S3,2021.1.4,Win32,60.09976561,0,1,1,49,1,DreamStudyImages_rs1000x750g/Houses/NDPS111_houses8_CROPPED.jpg,,,
,,4,3.3625,5,0.9472,7,1.4932,1,1.3547,3,0.2357,0,0,0,0,1,main,5,21,female,R,Donders,2021-07-08_13h39.22.270,ImageRatingTask_S3,2021.1.4,Win32,60.09976561,,,,,,,,,
,,,,,,,,,,,,0,1,1,1,1,second,5,21,female,R,Donders,2021-07-08_13h39.22.270,ImageRatingTask_S3,2021.1.4,Win32,60.09976561,,,,,,,,,
,,,,,,,,,,,,0,2,2,2,1,third,5,21,female,R,Donders,2021-07-08_13h39.22.270,ImageRatingTask_S3,2021.1.4,Win32,60.09976561,,,,,,,,,
,,,,,,,,,,,,0,3,3,3,1,fourth,5,21,female,R,Donders,2021-07-08_13h39.22.270,ImageRatingTask_S3,2021.1.4,Win32,60.09976561,,,,,,,,,
,,,,,,,,,,,,0,4,4,4,1,fifth,5,21,female,R,Donders,2021-07-08_13h39.22.270,ImageRatingTask_S3,2021.1.4,Win32,60.09976561,,,,,,,,,
,,,,,,,,,,,,0,5,5,5,1,sixth,5,21,female,R,Donders,2021-07-08_13h39.22.270,ImageRatingTask_S3,2021.1.4,Win32,60.09976561,,,,,,,,,
,,,,,,,,,,,,0,6,6,6,1,seventh,5,21,female,R,Donders,2021-07-08_13h39.22.270,ImageRatingTask_S3,2021.1.4,Win32,60.09976561,,,,,,,,,
,,,,,,,,,,,,0,7,7,7,1,last,5,21,female,R,Donders,2021-07-08_13h39.22.270,ImageRatingTask_S3,2021.1.4,Win32,60.09976561,,,,,,,,,
,,,,,,,,,,,,,,,,,,5,21,female,R,Donders,2021-07-08_13h39.22.270,ImageRatingTask_S3,2021.1.4,Win32,60.09976561,0,2,2,56,1,DreamStudyImages_rs1000x750g/Mammals/Bear 2.jpg,,,
,,5,2.7354,5,0.2461,8,1.8906,1,1.161,7,0.3574,0,0,0,0,1,main,5,21,female,R,Donders,2021-07-08_13h39.22.270,ImageRatingTask_S3,2021.1.4,Win32,60.09976561,,,,,,,,,
,,,,,,,,,,,,0,1,1,1,1,second,5,21,female,R,Donders,2021-07-08_13h39.22.270,ImageRatingTask_S3,2021.1.4,Win32,60.09976561,,,,,,,,,
,,,,,,,,,,,,0,2,2,2,1,third,5,21,female,R,Donders,2021-07-08_13h39.22.270,ImageRatingTask_S3,2021.1.4,Win32,60.09976561,,,,,,,,,
,,,,,,,,,,,,0,3,3,3,1,fourth,5,21,female,R,Donders,2021-07-08_13h39.22.270,ImageRatingTask_S3,2021.1.4,Win32,60.09976561,,,,,,,,,
,,,,,,,,,,,,0,4,4,4,1,fifth,5,21,female,R,Donders,2021-07-08_13h39.22.270,ImageRatingTask_S3,2021.1.4,Win32,60.09976561,,,,,,,,,
,,,,,,,,,,,,0,5,5,5,1,sixth,5,21,female,R,Donders,2021-07-08_13h39.22.270,ImageRatingTask_S3,2021.1.4,Win32,60.09976561,,,,,,,,,
,,,,,,,,,,,,0,6,6,6,1,seventh,5,21,female,R,Donders,2021-07-08_13h39.22.270,ImageRatingTask_S3,2021.1.4,Win32,60.09976561,,,,,,,,,
,,,,,,,,,,,,0,7,7,7,1,last,5,21,female,R,Donders,2021-07-08_13h39.22.270,ImageRatingTask_S3,2021.1.4,Win32,60.09976561,,,,,,,,,
,,,,,,,,,,,,,,,,,,5,21,female,R,Donders,2021-07-08_13h39.22.270,ImageRatingTask_S3,2021.1.4,Win32,60.09976561,0,3,3,8,1,DreamStudyImages_rs1000x750g/Vehicles/monstertruck.jpg,,,
,,2,4.058,5,2.097,7,2.0614,1,1.3539,6,1.2655,0,0,0,0,1,main,5,21,female,R,Donders,2021-07-08_13h39.22.270,ImageRatingTask_S3,2021.1.4,Win32,60.09976561,,,,,,,,,
,,,,,,,,,,,,0,1,1,1,1,second,5,21,female,R,Donders,2021-07-08_13h39.22.270,ImageRatingTask_S3,2021.1.4,Win32,60.09976561,,,,,,,,,
,,,,,,,,,,,,0,2,2,2,1,third,5,21,female,R,Donders,2021-07-08_13h39.22.270,ImageRatingTask_S3,2021.1.4,Win32,60.09976561,,,,,,,,,
,,,,,,,,,,,,0,3,3,3,1,fourth,5,21,female,R,Donders,2021-07-08_13h39.22.270,ImageRatingTask_S3,2021.1.4,Win32,60.09976561,,,,,,,,,
,,,,,,,,,,,,0,4,4,4,1,fifth,5,21,female,R,Donders,2021-07-08_13h39.22.270,ImageRatingTask_S3,2021.1.4,Win32,60.09976561,,,,,,,,,
,,,,,,,,,,,,0,5,5,5,1,sixth,5,21,female,R,Donders,2021-07-08_13h39.22.270,ImageRatingTask_S3,2021.1.4,Win32,60.09976561,,,,,,,,,
,,,,,,,,,,,,0,6,6,6,1,seventh,5,21,female,R,Donders,2021-07-08_13h39.22.270,ImageRatingTask_S3,2021.1.4,Win32,60.09976561,,,,,,,,,
,,,,,,,,,,,,0,7,7,7,1,last,5,21,female,R,Donders,2021-07-08_13h39.22.270,ImageRatingTask_S3,2021.1.4,Win32,60.09976561,,,,,,,,,
,,,,,,,,,,,,,,,,,,5,21,female,R,Donders,2021-07-08_13h39.22.270,ImageRatingTask_S3,2021.1.4,Win32,60.09976561,0,4,4,79,1,DreamStudyImages_rs1000x750g/Houses/IAPS9471_burntbuilding.jpg,,,
,,4,4.6451,3,1.5441,7,17.1734,1,1.9658,6,0.3583,0,0,0,0,1,main,5,21,female,R,Donders,2021-07-08_13h39.22.270,ImageRatingTask_S3,2021.1.4,Win32,60.09976561,,,,,,,,,
,,,,,,,,,,,,0,1,1,1,1,second,5,21,female,R,Donders,2021-07-08_13h39.22.270,ImageRatingTask_S3,2021.1.4,Win32,60.09976561,,,,,,,,,
,,,,,,,,,,,,0,2,2,2,1,third,5,21,female,R,Donders,2021-07-08_13h39.22.270,ImageRatingTask_S3,2021.1.4,Win32,60.09976561,,,,,,,,,
,,,,,,,,,,,,0,3,3,3,1,fourth,5,21,female,R,Donders,2021-07-08_13h39.22.270,ImageRatingTask_S3,2021.1.4,Win32,60.09976561,,,,,,,,,
,,,,,,,,,,,,0,4,4,4,1,fifth,5,21,female,R,Donders,2021-07-08_13h39.22.270,ImageRatingTask_S3,2021.1.4,Win32,60.09976561,,,,,,,,,
,,,,,,,,,,,,0,5,5,5,1,sixth,5,21,female,R,Donders,2021-07-08_13h39.22.270,ImageRatingTask_S3,2021.1.4,Win32,60.09976561,,,,,,,,,
,,,,,,,,,,,,0,6,6,6,1,seventh,5,21,female,R,Donders,2021-07-08_13h39.22.270,ImageRatingTask_S3,2021.1.4,Win32,60.09976561,,,,,,,,,
,,,,,,,,,,,,0,7,7,7,1,last,5,21,female,R,Donders,2021-07-08_13h39.22.270,ImageRatingTask_S3,2021.1.4,Win32,60.09976561,,,,,,,,,
,,,,,,,,,,,,,,,,,,5,21,female,R,Donders,2021-07-08_13h39.22.270,ImageRatingTask_S3,2021.1.4,Win32,60.09976561,0,5,5,27,1,DreamStudyImages_rs1000x750g/Houses/Objects_193_v.jpg,,,
,,5,3.0212,5,0.3186,7,1.7012,1,0.6601,5,0.7842,0,0,0,0,1,main,5,21,female,R,Donders,2021-07-08_13h39.22.270,ImageRatingTask_S3,2021.1.4,Win32,60.09976561,,,,,,,,,
,,,,,,,,,,,,0,1,1,1,1,second,5,21,female,R,Donders,2021-07-08_13h39.22.270,ImageRatingTask_S3,2021.1.4,Win32,60.09976561,,,,,,,,,
,,,,,,,,,,,,0,2,2,2,1,third,5,21,female,R,Donders,2021-07-08_13h39.22.270,ImageRatingTask_S3,2021.1.4,Win32,60.09976561,,,,,,,,,
,,,,,,,,,,,,0,3,3,3,1,fourth,5,21,female,R,Donders,2021-07-08_13h39.22.270,ImageRatingTask_S3,2021.1.4,Win32,60.09976561,,,,,,,,,
,,,,,,,,,,,,0,4,4,4,1,fifth,5,21,female,R,Donders,2021-07-08_13h39.22.270,ImageRatingTask_S3,2021.1.4,Win32,60.09976561,,,,,,,,,
,,,,,,,,,,,,0,5,5,5,1,sixth,5,21,female,R,Donders,2021-07-08_13h39.22.270,ImageRatingTask_S3,2021.1.4,Win32,60.09976561,,,,,,,,,
,,,,,,,,,,,,0,6,6,6,1,seventh,5,21,female,R,Donders,2021-07-08_13h39.22.270,ImageRatingTask_S3,2021.1.4,Win32,60.09976561,,,,,,,,,
,,,,,,,,,,,,0,7,7,7,1,last,5,21,female,R,Donders,2021-07-08_13h39.22.270,ImageRatingTask_S3,2021.1.4,Win32,60.09976561,,,,,,,,,
,,,,,,,,,,,,,,,,,,5,21,female,R,Donders,2021-07-08_13h39.22.270,ImageRatingTask_S3,2021.1.4,Win32,60.09976561,0,6,6,151,1,DreamStudyImages_rs1000x750g/Food/IAPS7480_pasta.jpg,,,
,,7,2.2882,4,1.3031,7,1.8716,1,1.8421,3,0.2988,0,0,0,0,1,main,5,21,female,R,Donders,2021-07-08_13h39.22.270,ImageRatingTask_S3,2021.1.4,Win32,60.09976561,,,,,,,,,
,,,,,,,,,,,,0,1,1,1,1,second,5,21,female,R,Donders,2021-07-08_13h39.22.270,ImageRatingTask_S3,2021.1.4,Win32,60.09976561,,,,,,,,,
,,,,,,,,,,,,0,2,2,2,1,third,5,21,female,R,Donders,2021-07-08_13h39.22.270,ImageRatingTask_S3,2021.1.4,Win32,60.09976561,,,,,,,,,
,,,,,,,,,,,,0,3,3,3,1,fourth,5,21,female,R,Donders,2021-07-08_13h39.22.270,ImageRatingTask_S3,2021.1.4,Win32,60.09976561,,,,,,,,,
,,,,,,,,,,,,0,4,4,4,1,fifth,5,21,female,R,Donders,2021-07-08_13h39.22.270,ImageRatingTask_S3,2021.1.4,Win32,60.09976561,,,,,,,,,
,,,,,,,,,,,,0,5,5,5,1,sixth,5,21,female,R,Donders,2021-07-08_13h39.22.270,ImageRatingTask_S3,2021.1.4,Win32,60.09976561,,,,,,,,,
,,,,,,,,,,,,0,6,6,6,1,seventh,5,21,female,R,Donders,2021-07-08_13h39.22.270,ImageRatingTask_S3,2021.1.4,Win32,60.09976561,,,,,,,,,
,,,,,,,,,,,,0,7,7,7,1,last,5,21,female,R,Donders,2021-07-08_13h39.22.270,ImageRatingTask_S3,2021.1.4,Win32,60.09976561,,,,,,,,,
,,,,,,,,,,,,,,,,,,5,21,female,R,Donders,2021-07-08_13h39.22.270,ImageRatingTask_S3,2021.1.4,Win32,60.09976561,0,7,7,59,1,DreamStudyImages_rs1000x750g/Mammals/Animals_190_h.jpg,,,
,,6,3.1227,4,1.5389,8,1.5215,1,2.2539,5,0.3956,0,0,0,0,1,main,5,21,female,R,Donders,2021-07-08_13h39.22.270,ImageRatingTask_S3,2021.1.4,Win32,60.09976561,,,,,,,,,
,,,,,,,,,,,,0,1,1,1,1,second,5,21,female,R,Donders,2021-07-08_13h39.22.270,ImageRatingTask_S3,2021.1.4,Win32,60.09976561,,,,,,,,,
,,,,,,,,,,,,0,2,2,2,1,third,5,21,female,R,Donders,2021-07-08_13h39.22.270,ImageRatingTask_S3,2021.1.4,Win32,60.09976561,,,,,,,,,
,,,,,,,,,,,,0,3,3,3,1,fourth,5,21,female,R,Donders,2021-07-08_13h39.22.270,ImageRatingTask_S3,2021.1.4,Win32,60.09976561,,,,,,,,,
,,,,,,,,,,,,0,4,4,4,1,fifth,5,21,female,R,Donders,2021-07-08_13h39.22.270,ImageRatingTask_S3,2021.1.4,Win32,60.09976561,,,,,,,,,
,,,,,,,,,,,,0,5,5,5,1,sixth,5,21,female,R,Donders,2021-07-08_13h39.22.270,ImageRatingTask_S3,2021.1.4,Win32,60.09976561,,,,,,,,,
,,,,,,,,,,,,0,6,6,6,1,seventh,5,21,female,R,Donders,2021-07-08_13h39.22.270,ImageRatingTask_S3,2021.1.4,Win32,60.09976561,,,,,,,,,
,,,,,,,,,,,,0,7,7,7,1,last,5,21,female,R,Donders,2021-07-08_13h39.22.270,ImageRatingTask_S3,2021.1.4,Win32,60.09976561,,,,,,,,,
,,,,,,,,,,,,,,,,,,5,21,female,R,Donders,2021-07-08_13h39.22.270,ImageRatingTask_S3,2021.1.4,Win32,60.09976561,0,8,8,108,1,DreamStudyImages_rs1000x750g/Food/IAPS7365_mincedmeat.jpg,,,
,,5,3.4217,5,0.0693,8,1.2596,1,0.9549,7,0.9633,0,0,0,0,1,main,5,21,female,R,Donders,2021-07-08_13h39.22.270,ImageRatingTask_S3,2021.1.4,Win32,60.09976561,,,,,,,,,
,,,,,,,,,,,,0,1,1,1,1,second,5,21,female,R,Donders,2021-07-08_13h39.22.270,ImageRatingTask_S3,2021.1.4,Win32,60.09976561,,,,,,,,,
,,,,,,,,,,,,0,2,2,2,1,third,5,21,female,R,Donders,2021-07-08_13h39.22.270,ImageRatingTask_S3,2021.1.4,Win32,60.09976561,,,,,,,,,
,,,,,,,,,,,,0,3,3,3,1,fourth,5,21,female,R,Donders,2021-07-08_13h39.22.270,ImageRatingTask_S3,2021.1.4,Win32,60.09976561,,,,,,,,,
,,,,,,,,,,,,0,4,4,4,1,fifth,5,21,female,R,Donders,2021-07-08_13h39.22.270,ImageRatingTask_S3,2021.1.4,Win32,60.09976561,,,,,,,,,
,,,,,,,,,,,,0,5,5,5,1,sixth,5,21,female,R,Donders,2021-07-08_13h39.22.270,ImageRatingTask_S3,2021.1.4,Win32,60.09976561,,,,,,,,,
,,,,,,,,,,,,0,6,6,6,1,seventh,5,21,female,R,Donders,2021-07-08_13h39.22.270,ImageRatingTask_S3,2021.1.4,Win32,60.09976561,,,,,,,,,
,,,,,,,,,,,,0,7,7,7,1,last,5,21,female,R,Donders,2021-07-08_13h39.22.270,ImageRatingTask_S3,2021.1.4,Win32,60.09976561,,,,,,,,,
,,,,,,,,,,,,,,,,,,5,21,female,R,Donders,2021-07-08_13h39.22.270,ImageRatingTask_S3,2021.1.4,Win32,60.09976561,0,9,9,22,1,DreamStudyImages_rs1000x750g/Vehicles/Objects_281_h.jpg,,,
,,5,6.2787,5,0.1699,8,1.2572,1,0.5758,6,2.154,0,0,0,0,1,main,5,21,female,R,Donders,2021-07-08_13h39.22.270,ImageRatingTask_S3,2021.1.4,Win32,60.09976561,,,,,,,,,
,,,,,,,,,,,,0,1,1,1,1,second,5,21,female,R,Donders,2021-07-08_13h39.22.270,ImageRatingTask_S3,2021.1.4,Win32,60.09976561,,,,,,,,,
,,,,,,,,,,,,0,2,2,2,1,third,5,21,female,R,Donders,2021-07-08_13h39.22.270,ImageRatingTask_S3,2021.1.4,Win32,60.09976561,,,,,,,,,
,,,,,,,,,,,,0,3,3,3,1,fourth,5,21,female,R,Donders,2021-07-08_13h39.22.270,ImageRatingTask_S3,2021.1.4,Win32,60.09976561,,,,,,,,,
,,,,,,,,,,,,0,4,4,4,1,fifth,5,21,female,R,Donders,2021-07-08_13h39.22.270,ImageRatingTask_S3,2021.1.4,Win32,60.09976561,,,,,,,,,
,,,,,,,,,,,,0,5,5,5,1,sixth,5,21,female,R,Donders,2021-07-08_13h39.22.270,ImageRatingTask_S3,2021.1.4,Win32,60.09976561,,,,,,,,,
,,,,,,,,,,,,0,6,6,6,1,seventh,5,21,female,R,Donders,2021-07-08_13h39.22.270,ImageRatingTask_S3,2021.1.4,Win32,60.09976561,,,,,,,,,
,,,,,,,,,,,,0,7,7,7,1,last,5,21,female,R,Donders,2021-07-08_13h39.22.270,ImageRatingTask_S3,2021.1.4,Win32,60.09976561,,,,,,,,,
,,,,,,,,,,,,,,,,,,5,21,female,R,Donders,2021-07-08_13h39.22.270,ImageRatingTask_S3,2021.1.4,Win32,60.09976561,0,10,10,95,1,DreamStudyImages_rs1000x750g/Houses/Skyscraper 1.jpg,,,
,,4,2.7167,6,1.7507,8,1.5926,1,0.7389,5,0.9296,0,0,0,0,1,main,5,21,female,R,Donders,2021-07-08_13h39.22.270,ImageRatingTask_S3,2021.1.4,Win32,60.09976561,,,,,,,,,
,,,,,,,,,,,,0,1,1,1,1,second,5,21,female,R,Donders,2021-07-08_13h39.22.270,ImageRatingTask_S3,2021.1.4,Win32,60.09976561,,,,,,,,,
,,,,,,,,,,,,0,2,2,2,1,third,5,21,female,R,Donders,2021-07-08_13h39.22.270,ImageRatingTask_S3,2021.1.4,Win32,60.09976561,,,,,,,,,
,,,,,,,,,,,,0,3,3,3,1,fourth,5,21,female,R,Donders,2021-07-08_13h39.22.270,ImageRatingTask_S3,2021.1.4,Win32,60.09976561,,,,,,,,,
,,,,,,,,,,,,0,4,4,4,1,fifth,5,21,female,R,Donders,2021-07-08_13h39.22.270,ImageRatingTask_S3,2021.1.4,Win32,60.09976561,,,,,,,,,
,,,,,,,,,,,,0,5,5,5,1,sixth,5,21,female,R,Donders,2021-07-08_13h39.22.270,ImageRatingTask_S3,2021.1.4,Win32,60.09976561,,,,,,,,,
,,,,,,,,,,,,0,6,6,6,1,seventh,5,21,female,R,Donders,2021-07-08_13h39.22.270,ImageRatingTask_S3,2021.1.4,Win32,60.09976561,,,,,,,,,
,,,,,,,,,,,,0,7,7,7,1,last,5,21,female,R,Donders,2021-07-08_13h39.22.270,ImageRatingTask_S3,2021.1.4,Win32,60.09976561,,,,,,,,,
,,,,,,,,,,,,,,,,,,5,21,female,R,Donders,2021-07-08_13h39.22.270,ImageRatingTask_S3,2021.1.4,Win32,60.09976561,0,11,11,90,1,DreamStudyImages_rs1000x750g/Food/Food 2.jpg,,,
,,6,2.5405,6,1.4039,8,1.4407,1,1.5543,3,0.0697,0,0,0,0,1,main,5,21,female,R,Donders,2021-07-08_13h39.22.270,ImageRatingTask_S3,2021.1.4,Win32,60.09976561,,,,,,,,,
,,,,,,,,,,,,0,1,1,1,1,second,5,21,female,R,Donders,2021-07-08_13h39.22.270,ImageRatingTask_S3,2021.1.4,Win32,60.09976561,,,,,,,,,
,,,,,,,,,,,,0,2,2,2,1,third,5,21,female,R,Donders,2021-07-08_13h39.22.270,ImageRatingTask_S3,2021.1.4,Win32,60.09976561,,,,,,,,,
,,,,,,,,,,,,0,3,3,3,1,fourth,5,21,female,R,Donders,2021-07-08_13h39.22.270,ImageRatingTask_S3,2021.1.4,Win32,60.09976561,,,,,,,,,
,,,,,,,,,,,,0,4,4,4,1,fifth,5,21,female,R,Donders,2021-07-08_13h39.22.270,ImageRatingTask_S3,2021.1.4,Win32,60.09976561,,,,,,,,,
,,,,,,,,,,,,0,5,5,5,1,sixth,5,21,female,R,Donders,2021-07-08_13h39.22.270,ImageRatingTask_S3,2021.1.4,Win32,60.09976561,,,,,,,,,
,,,,,,,,,,,,0,6,6,6,1,seventh,5,21,female,R,Donders,2021-07-08_13h39.22.270,ImageRatingTask_S3,2021.1.4,Win32,60.09976561,,,,,,,,,
,,,,,,,,,,,,0,7,7,7,1,last,5,21,female,R,Donders,2021-07-08_13h39.22.270,ImageRatingTask_S3,2021.1.4,Win32,60.09976561,,,,,,,,,
,,,,,,,,,,,,,,,,,,5,21,female,R,Donders,2021-07-08_13h39.22.270,ImageRatingTask_S3,2021.1.4,Win32,60.09976561,0,12,12,14,1,DreamStudyImages_rs1000x750g/Mammals/Wolf 2.jpg,,,
,,5,1.9471,5,0.1795,8,1.0481,1,0.6811,2,0.4523,0,0,0,0,1,main,5,21,female,R,Donders,2021-07-08_13h39.22.270,ImageRatingTask_S3,2021.1.4,Win32,60.09976561,,,,,,,,,
,,,,,,,,,,,,0,1,1,1,1,second,5,21,female,R,Donders,2021-07-08_13h39.22.270,ImageRatingTask_S3,2021.1.4,Win32,60.09976561,,,,,,,,,
,,,,,,,,,,,,0,2,2,2,1,third,5,21,female,R,Donders,2021-07-08_13h39.22.270,ImageRatingTask_S3,2021.1.4,Win32,60.09976561,,,,,,,,,
,,,,,,,,,,,,0,3,3,3,1,fourth,5,21,female,R,Donders,2021-07-08_13h39.22.270,ImageRatingTask_S3,2021.1.4,Win32,60.09976561,,,,,,,,,
,,,,,,,,,,,,0,4,4,4,1,fifth,5,21,female,R,Donders,2021-07-08_13h39.22.270,ImageRatingTask_S3,2021.1.4,Win32,60.09976561,,,,,,,,,
,,,,,,,,,,,,0,5,5,5,1,sixth,5,21,female,R,Donders,2021-07-08_13h39.22.270,ImageRatingTask_S3,2021.1.4,Win32,60.09976561,,,,,,,,,
,,,,,,,,,,,,0,6,6,6,1,seventh,5,21,female,R,Donders,2021-07-08_13h39.22.270,ImageRatingTask_S3,2021.1.4,Win32,60.09976561,,,,,,,,,
,,,,,,,,,,,,0,7,7,7,1,last,5,21,female,R,Donders,2021-07-08_13h39.22.270,ImageRatingTask_S3,2021.1.4,Win32,60.09976561,,,,,,,,,
,,,,,,,,,,,,,,,,,,5,21,female,R,Donders,2021-07-08_13h39.22.270,ImageRatingTask_S3,2021.1.4,Win32,60.09976561,0,13,13,89,1,DreamStudyImages_rs1000x750g/Children/Faces_044_h.jpg,,,
,,5,1.7409,5,0.0835,8,1.6201,1,0.7585,2,0.2513,0,0,0,0,1,main,5,21,female,R,Donders,2021-07-08_13h39.22.270,ImageRatingTask_S3,2021.1.4,Win32,60.09976561,,,,,,,,,
,,,,,,,,,,,,0,1,1,1,1,second,5,21,female,R,Donders,2021-07-08_13h39.22.270,ImageRatingTask_S3,2021.1.4,Win32,60.09976561,,,,,,,,,
,,,,,,,,,,,,0,2,2,2,1,third,5,21,female,R,Donders,2021-07-08_13h39.22.270,ImageRatingTask_S3,2021.1.4,Win32,60.09976561,,,,,,,,,
,,,,,,,,,,,,0,3,3,3,1,fourth,5,21,female,R,Donders,2021-07-08_13h39.22.270,ImageRatingTask_S3,2021.1.4,Win32,60.09976561,,,,,,,,,
,,,,,,,,,,,,0,4,4,4,1,fifth,5,21,female,R,Donders,2021-07-08_13h39.22.270,ImageRatingTask_S3,2021.1.4,Win32,60.09976561,,,,,,,,,
,,,,,,,,,,,,0,5,5,5,1,sixth,5,21,female,R,Donders,2021-07-08_13h39.22.270,ImageRatingTask_S3,2021.1.4,Win32,60.09976561,,,,,,,,,
,,,,,,,,,,,,0,6,6,6,1,seventh,5,21,female,R,Donders,2021-07-08_13h39.22.270,ImageRatingTask_S3,2021.1.4,Win32,60.09976561,,,,,,,,,
,,,,,,,,,,,,0,7,7,7,1,last,5,21,female,R,Donders,2021-07-08_13h39.22.270,ImageRatingTask_S3,2021.1.4,Win32,60.09976561,,,,,,,,,
,,,,,,,,,,,,,,,,,,5,21,female,R,Donders,2021-07-08_13h39.22.270,ImageRatingTask_S3,2021.1.4,Win32,60.09976561,0,14,14,91,1,DreamStudyImages_rs1000x750g/Children/Faces_024_h.jpg,,,
,,5,2.0169,5,0.1023,8,1.6544,1,1.2128,7,0.3266,0,0,0,0,1,main,5,21,female,R,Donders,2021-07-08_13h39.22.270,ImageRatingTask_S3,2021.1.4,Win32,60.09976561,,,,,,,,,
,,,,,,,,,,,,0,1,1,1,1,second,5,21,female,R,Donders,2021-07-08_13h39.22.270,ImageRatingTask_S3,2021.1.4,Win32,60.09976561,,,,,,,,,
,,,,,,,,,,,,0,2,2,2,1,third,5,21,female,R,Donders,2021-07-08_13h39.22.270,ImageRatingTask_S3,2021.1.4,Win32,60.09976561,,,,,,,,,
,,,,,,,,,,,,0,3,3,3,1,fourth,5,21,female,R,Donders,2021-07-08_13h39.22.270,ImageRatingTask_S3,2021.1.4,Win32,60.09976561,,,,,,,,,
,,,,,,,,,,,,0,4,4,4,1,fifth,5,21,female,R,Donders,2021-07-08_13h39.22.270,ImageRatingTask_S3,2021.1.4,Win32,60.09976561,,,,,,,,,
,,,,,,,,,,,,0,5,5,5,1,sixth,5,21,female,R,Donders,2021-07-08_13h39.22.270,ImageRatingTask_S3,2021.1.4,Win32,60.09976561,,,,,,,,,
,,,,,,,,,,,,0,6,6,6,1,seventh,5,21,female,R,Donders,2021-07-08_13h39.22.270,ImageRatingTask_S3,2021.1.4,Win32,60.09976561,,,,,,,,,
,,,,,,,,,,,,0,7,7,7,1,last,5,21,female,R,Donders,2021-07-08_13h39.22.270,ImageRatingTask_S3,2021.1.4,Win32,60.09976561,,,,,,,,,
,,,,,,,,,,,,,,,,,,5,21,female,R,Donders,2021-07-08_13h39.22.270,ImageRatingTask_S3,2021.1.4,Win32,60.09976561,0,15,15,114,1,DreamStudyImages_rs1000x750g/Vehicles/quad.jpg,,,
,,4,2.232,5,0.5898,8,1.3713,1,2.1021,2,0.0389,0,0,0,0,1,main,5,21,female,R,Donders,2021-07-08_13h39.22.270,ImageRatingTask_S3,2021.1.4,Win32,60.09976561,,,,,,,,,
,,,,,,,,,,,,0,1,1,1,1,second,5,21,female,R,Donders,2021-07-08_13h39.22.270,ImageRatingTask_S3,2021.1.4,Win32,60.09976561,,,,,,,,,
,,,,,,,,,,,,0,2,2,2,1,third,5,21,female,R,Donders,2021-07-08_13h39.22.270,ImageRatingTask_S3,2021.1.4,Win32,60.09976561,,,,,,,,,
,,,,,,,,,,,,0,3,3,3,1,fourth,5,21,female,R,Donders,2021-07-08_13h39.22.270,ImageRatingTask_S3,2021.1.4,Win32,60.09976561,,,,,,,,,
,,,,,,,,,,,,0,4,4,4,1,fifth,5,21,female,R,Donders,2021-07-08_13h39.22.270,ImageRatingTask_S3,2021.1.4,Win32,60.09976561,,,,,,,,,
,,,,,,,,,,,,0,5,5,5,1,sixth,5,21,female,R,Donders,2021-07-08_13h39.22.270,ImageRatingTask_S3,2021.1.4,Win32,60.09976561,,,,,,,,,
,,,,,,,,,,,,0,6,6,6,1,seventh,5,21,female,R,Donders,2021-07-08_13h39.22.270,ImageRatingTask_S3,2021.1.4,Win32,60.09976561,,,,,,,,,
,,,,,,,,,,,,0,7,7,7,1,last,5,21,female,R,Donders,2021-07-08_13h39.22.270,ImageRatingTask_S3,2021.1.4,Win32,60.09976561,,,,,,,,,
,,,,,,,,,,,,,,,,,,5,21,female,R,Donders,2021-07-08_13h39.22.270,ImageRatingTask_S3,2021.1.4,Win32,60.09976561,0,16,16,92,1,DreamStudyImages_rs1000x750g/Children/Faces_038_h.jpg,,,
,,4,3.0018,5,0.8121,6,3.023,1,1.2856,6,1.9952,0,0,0,0,1,main,5,21,female,R,Donders,2021-07-08_13h39.22.270,ImageRatingTask_S3,2021.1.4,Win32,60.09976561,,,,,,,,,
,,,,,,,,,,,,0,1,1,1,1,second,5,21,female,R,Donders,2021-07-08_13h39.22.270,ImageRatingTask_S3,2021.1.4,Win32,60.09976561,,,,,,,,,
,,,,,,,,,,,,0,2,2,2,1,third,5,21,female,R,Donders,2021-07-08_13h39.22.270,ImageRatingTask_S3,2021.1.4,Win32,60.09976561,,,,,,,,,
,,,,,,,,,,,,0,3,3,3,1,fourth,5,21,female,R,Donders,2021-07-08_13h39.22.270,ImageRatingTask_S3,2021.1.4,Win32,60.09976561,,,,,,,,,
,,,,,,,,,,,,0,4,4,4,1,fifth,5,21,female,R,Donders,2021-07-08_13h39.22.270,ImageRatingTask_S3,2021.1.4,Win32,60.09976561,,,,,,,,,
,,,,,,,,,,,,0,5,5,5,1,sixth,5,21,female,R,Donders,2021-07-08_13h39.22.270,ImageRatingTask_S3,2021.1.4,Win32,60.09976561,,,,,,,,,
,,,,,,,,,,,,0,6,6,6,1,seventh,5,21,female,R,Donders,2021-07-08_13h39.22.270,ImageRatingTask_S3,2021.1.4,Win32,60.09976561,,,,,,,,,
,,,,,,,,,,,,0,7,7,7,1,last,5,21,female,R,Donders,2021-07-08_13h39.22.270,ImageRatingTask_S3,2021.1.4,Win32,60.09976561,,,,,,,,,
,,,,,,,,,,,,,,,,,,5,21,female,R,Donders,2021-07-08_13h39.22.270,ImageRatingTask_S3,2021.1.4,Win32,60.09976561,0,17,17,154,1,DreamStudyImages_rs1000x750g/Houses/Landscapes_003_v.jpg,,,
,,3,10.2206,5,1.5533,6,4.0645,1,1.5799,2,0.0135,0,0,0,0,1,main,5,21,female,R,Donders,2021-07-08_13h39.22.270,ImageRatingTask_S3,2021.1.4,Win32,60.09976561,,,,,,,,,
,,,,,,,,,,,,0,1,1,1,1,second,5,21,female,R,Donders,2021-07-08_13h39.22.270,ImageRatingTask_S3,2021.1.4,Win32,60.09976561,,,,,,,,,
,,,,,,,,,,,,0,2,2,2,1,third,5,21,female,R,Donders,2021-07-08_13h39.22.270,ImageRatingTask_S3,2021.1.4,Win32,60.09976561,,,,,,,,,
,,,,,,,,,,,,0,3,3,3,1,fourth,5,21,female,R,Donders,2021-07-08_13h39.22.270,ImageRatingTask_S3,2021.1.4,Win32,60.09976561,,,,,,,,,
,,,,,,,,,,,,0,4,4,4,1,fifth,5,21,female,R,Donders,2021-07-08_13h39.22.270,ImageRatingTask_S3,2021.1.4,Win32,60.09976561,,,,,,,,,
,,,,,,,,,,,,0,5,5,5,1,sixth,5,21,female,R,Donders,2021-07-08_13h39.22.270,ImageRatingTask_S3,2021.1.4,Win32,60.09976561,,,,,,,,,
,,,,,,,,,,,,0,6,6,6,1,seventh,5,21,female,R,Donders,2021-07-08_13h39.22.270,ImageRatingTask_S3,2021.1.4,Win32,60.09976561,,,,,,,,,
,,,,,,,,,,,,0,7,7,7,1,last,5,21,female,R,Donders,2021-07-08_13h39.22.270,ImageRatingTask_S3,2021.1.4,Win32,60.09976561,,,,,,,,,
,,,,,,,,,,,,,,,,,,5,21,female,R,Donders,2021-07-08_13h39.22.270,ImageRatingTask_S3,2021.1.4,Win32,60.09976561,0,18,18,35,1,DreamStudyImages_rs1000x750g/Children/IAPS9040_child8.jpg,,,
,,2,4.0071,6,1.9929,7,1.8535,1,1.4662,2,0.2637,0,0,0,0,1,main,5,21,female,R,Donders,2021-07-08_13h39.22.270,ImageRatingTask_S3,2021.1.4,Win32,60.09976561,,,,,,,,,
,,,,,,,,,,,,0,1,1,1,1,second,5,21,female,R,Donders,2021-07-08_13h39.22.270,ImageRatingTask_S3,2021.1.4,Win32,60.09976561,,,,,,,,,
,,,,,,,,,,,,0,2,2,2,1,third,5,21,female,R,Donders,2021-07-08_13h39.22.270,ImageRatingTask_S3,2021.1.4,Win32,60.09976561,,,,,,,,,
,,,,,,,,,,,,0,3,3,3,1,fourth,5,21,female,R,Donders,2021-07-08_13h39.22.270,ImageRatingTask_S3,2021.1.4,Win32,60.09976561,,,,,,,,,
,,,,,,,,,,,,0,4,4,4,1,fifth,5,21,female,R,Donders,2021-07-08_13h39.22.270,ImageRatingTask_S3,2021.1.4,Win32,60.09976561,,,,,,,,,
,,,,,,,,,,,,0,5,5,5,1,sixth,5,21,female,R,Donders,2021-07-08_13h39.22.270,ImageRatingTask_S3,2021.1.4,Win32,60.09976561,,,,,,,,,
,,,,,,,,,,,,0,6,6,6,1,seventh,5,21,female,R,Donders,2021-07-08_13h39.22.270,ImageRatingTask_S3,2021.1.4,Win32,60.09976561,,,,,,,,,
,,,,,,,,,,,,0,7,7,7,1,last,5,21,female,R,Donders,2021-07-08_13h39.22.270,ImageRatingTask_S3,2021.1.4,Win32,60.09976561,,,,,,,,,
,,,,,,,,,,,,,,,,,,5,21,female,R,Donders,2021-07-08_13h39.22.270,ImageRatingTask_S3,2021.1.4,Win32,60.09976561,0,19,19,73,1,DreamStudyImages_rs1000x750g/Mammals/Animals_013_h.jpg,,,
,,7,4.5706,5,1.2325,7,4.4483,1,0.9873,5,0.3669,0,0,0,0,1,main,5,21,female,R,Donders,2021-07-08_13h39.22.270,ImageRatingTask_S3,2021.1.4,Win32,60.09976561,,,,,,,,,
,,,,,,,,,,,,0,1,1,1,1,second,5,21,female,R,Donders,2021-07-08_13h39.22.270,ImageRatingTask_S3,2021.1.4,Win32,60.09976561,,,,,,,,,
,,,,,,,,,,,,0,2,2,2,1,third,5,21,female,R,Donders,2021-07-08_13h39.22.270,ImageRatingTask_S3,2021.1.4,Win32,60.09976561,,,,,,,,,
,,,,,,,,,,,,0,3,3,3,1,fourth,5,21,female,R,Donders,2021-07-08_13h39.22.270,ImageRatingTask_S3,2021.1.4,Win32,60.09976561,,,,,,,,,
,,,,,,,,,,,,0,4,4,4,1,fifth,5,21,female,R,Donders,2021-07-08_13h39.22.270,ImageRatingTask_S3,2021.1.4,Win32,60.09976561,,,,,,,,,
,,,,,,,,,,,,0,5,5,5,1,sixth,5,21,female,R,Donders,2021-07-08_13h39.22.270,ImageRatingTask_S3,2021.1.4,Win32,60.09976561,,,,,,,,,
,,,,,,,,,,,,0,6,6,6,1,seventh,5,21,female,R,Donders,2021-07-08_13h39.22.270,ImageRatingTask_S3,2021.1.4,Win32,60.09976561,,,,,,,,,
,,,,,,,,,,,,0,7,7,7,1,last,5,21,female,R,Donders,2021-07-08_13h39.22.270,ImageRatingTask_S3,2021.1.4,Win32,60.09976561,,,,,,,,,
,,,,,,,,,,,,,,,,,,5,21,female,R,Donders,2021-07-08_13h39.22.270,ImageRatingTask_S3,2021.1.4,Win32,60.09976561,0,20,20,66,1,DreamStudyImages_rs1000x750g/Food/Objects_040_v.jpg,,,
,,5,2.5997,5,0.0688,8,1.4068,1,0.7359,7,1.2365,0,0,0,0,1,main,5,21,female,R,Donders,2021-07-08_13h39.22.270,ImageRatingTask_S3,2021.1.4,Win32,60.09976561,,,,,,,,,
,,,,,,,,,,,,0,1,1,1,1,second,5,21,female,R,Donders,2021-07-08_13h39.22.270,ImageRatingTask_S3,2021.1.4,Win32,60.09976561,,,,,,,,,
,,,,,,,,,,,,0,2,2,2,1,third,5,21,female,R,Donders,2021-07-08_13h39.22.270,ImageRatingTask_S3,2021.1.4,Win32,60.09976561,,,,,,,,,
,,,,,,,,,,,,0,3,3,3,1,fourth,5,21,female,R,Donders,2021-07-08_13h39.22.270,ImageRatingTask_S3,2021.1.4,Win32,60.09976561,,,,,,,,,
,,,,,,,,,,,,0,4,4,4,1,fifth,5,21,female,R,Donders,2021-07-08_13h39.22.270,ImageRatingTask_S3,2021.1.4,Win32,60.09976561,,,,,,,,,
,,,,,,,,,,,,0,5,5,5,1,sixth,5,21,female,R,Donders,2021-07-08_13h39.22.270,ImageRatingTask_S3,2021.1.4,Win32,60.09976561,,,,,,,,,
,,,,,,,,,,,,0,6,6,6,1,seventh,5,21,female,R,Donders,2021-07-08_13h39.22.270,ImageRatingTask_S3,2021.1.4,Win32,60.09976561,,,,,,,,,
,,,,,,,,,,,,0,7,7,7,1,last,5,21,female,R,Donders,2021-07-08_13h39.22.270,ImageRatingTask_S3,2021.1.4,Win32,60.09976561,,,,,,,,,
,,,,,,,,,,,,,,,,,,5,21,female,R,Donders,2021-07-08_13h39.22.270,ImageRatingTask_S3,2021.1.4,Win32,60.09976561,0,21,21,45,1,DreamStudyImages_rs1000x750g/Vehicles/roadrailvehicle.jpg,,,
,,5,1.9502,5,0.0895,8,1.0637,1,0.9283,3,0.4688,0,0,0,0,1,main,5,21,female,R,Donders,2021-07-08_13h39.22.270,ImageRatingTask_S3,2021.1.4,Win32,60.09976561,,,,,,,,,
,,,,,,,,,,,,0,1,1,1,1,second,5,21,female,R,Donders,2021-07-08_13h39.22.270,ImageRatingTask_S3,2021.1.4,Win32,60.09976561,,,,,,,,,
,,,,,,,,,,,,0,2,2,2,1,third,5,21,female,R,Donders,2021-07-08_13h39.22.270,ImageRatingTask_S3,2021.1.4,Win32,60.09976561,,,,,,,,,
,,,,,,,,,,,,0,3,3,3,1,fourth,5,21,female,R,Donders,2021-07-08_13h39.22.270,ImageRatingTask_S3,2021.1.4,Win32,60.09976561,,,,,,,,,
,,,,,,,,,,,,0,4,4,4,1,fifth,5,21,female,R,Donders,2021-07-08_13h39.22.270,ImageRatingTask_S3,2021.1.4,Win32,60.09976561,,,,,,,,,
,,,,,,,,,,,,0,5,5,5,1,sixth,5,21,female,R,Donders,2021-07-08_13h39.22.270,ImageRatingTask_S3,2021.1.4,Win32,60.09976561,,,,,,,,,
,,,,,,,,,,,,0,6,6,6,1,seventh,5,21,female,R,Donders,2021-07-08_13h39.22.270,ImageRatingTask_S3,2021.1.4,Win32,60.09976561,,,,,,,,,
,,,,,,,,,,,,0,7,7,7,1,last,5,21,female,R,Donders,2021-07-08_13h39.22.270,ImageRatingTask_S3,2021.1.4,Win32,60.09976561,,,,,,,,,
,,,,,,,,,,,,,,,,,,5,21,female,R,Donders,2021-07-08_13h39.22.270,ImageRatingTask_S3,2021.1.4,Win32,60.09976561,0,22,22,69,1,DreamStudyImages_rs1000x750g/Mammals/Goat 1.jpg,,,
,,5,1.9024,5,0.0865,5,0.1472,1,2.9594,2,0.0726,0,0,0,0,1,main,5,21,female,R,Donders,2021-07-08_13h39.22.270,ImageRatingTask_S3,2021.1.4,Win32,60.09976561,,,,,,,,,
,,,,,,,,,,,,0,1,1,1,1,second,5,21,female,R,Donders,2021-07-08_13h39.22.270,ImageRatingTask_S3,2021.1.4,Win32,60.09976561,,,,,,,,,
,,,,,,,,,,,,0,2,2,2,1,third,5,21,female,R,Donders,2021-07-08_13h39.22.270,ImageRatingTask_S3,2021.1.4,Win32,60.09976561,,,,,,,,,
,,,,,,,,,,,,0,3,3,3,1,fourth,5,21,female,R,Donders,2021-07-08_13h39.22.270,ImageRatingTask_S3,2021.1.4,Win32,60.09976561,,,,,,,,,
,,,,,,,,,,,,0,4,4,4,1,fifth,5,21,female,R,Donders,2021-07-08_13h39.22.270,ImageRatingTask_S3,2021.1.4,Win32,60.09976561,,,,,,,,,
,,,,,,,,,,,,0,5,5,5,1,sixth,5,21,female,R,Donders,2021-07-08_13h39.22.270,ImageRatingTask_S3,2021.1.4,Win32,60.09976561,,,,,,,,,
,,,,,,,,,,,,0,6,6,6,1,seventh,5,21,female,R,Donders,2021-07-08_13h39.22.270,ImageRatingTask_S3,2021.1.4,Win32,60.09976561,,,,,,,,,
,,,,,,,,,,,,0,7,7,7,1,last,5,21,female,R,Donders,2021-07-08_13h39.22.270,ImageRatingTask_S3,2021.1.4,Win32,60.09976561,,,,,,,,,
,,,,,,,,,,,,,,,,,,5,21,female,R,Donders,2021-07-08_13h39.22.270,ImageRatingTask_S3,2021.1.4,Win32,60.09976561,0,23,23,133,1,DreamStudyImages_rs1000x750g/Children/People_037_h_CROPPED.jpg,,,
,,3,3.0826,5,1.4623,7,1.6206,1,0.6499,8,1.1696,0,0,0,0,1,main,5,21,female,R,Donders,2021-07-08_13h39.22.270,ImageRatingTask_S3,2021.1.4,Win32,60.09976561,,,,,,,,,
,,,,,,,,,,,,0,1,1,1,1,second,5,21,female,R,Donders,2021-07-08_13h39.22.270,ImageRatingTask_S3,2021.1.4,Win32,60.09976561,,,,,,,,,
,,,,,,,,,,,,0,2,2,2,1,third,5,21,female,R,Donders,2021-07-08_13h39.22.270,ImageRatingTask_S3,2021.1.4,Win32,60.09976561,,,,,,,,,
,,,,,,,,,,,,0,3,3,3,1,fourth,5,21,female,R,Donders,2021-07-08_13h39.22.270,ImageRatingTask_S3,2021.1.4,Win32,60.09976561,,,,,,,,,
,,,,,,,,,,,,0,4,4,4,1,fifth,5,21,female,R,Donders,2021-07-08_13h39.22.270,ImageRatingTask_S3,2021.1.4,Win32,60.09976561,,,,,,,,,
,,,,,,,,,,,,0,5,5,5,1,sixth,5,21,female,R,Donders,2021-07-08_13h39.22.270,ImageRatingTask_S3,2021.1.4,Win32,60.09976561,,,,,,,,,
,,,,,,,,,,,,0,6,6,6,1,seventh,5,21,female,R,Donders,2021-07-08_13h39.22.270,ImageRatingTask_S3,2021.1.4,Win32,60.09976561,,,,,,,,,
,,,,,,,,,,,,0,7,7,7,1,last,5,21,female,R,Donders,2021-07-08_13h39.22.270,ImageRatingTask_S3,2021.1.4,Win32,60.09976561,,,,,,,,,
,,,,,,,,,,,,,,,,,,5,21,female,R,Donders,2021-07-08_13h39.22.270,ImageRatingTask_S3,2021.1.4,Win32,60.09976561,0,24,24,99,1,DreamStudyImages_rs1000x750g/Water/NDPS124_swamp.jpg,,,
,,5,2.5415,5,0.0882,7,0.9637,1,0.9335,8,0.0677,0,0,0,0,1,main,5,21,female,R,Donders,2021-07-08_13h39.22.270,ImageRatingTask_S3,2021.1.4,Win32,60.09976561,,,,,,,,,
,,,,,,,,,,,,0,1,1,1,1,second,5,21,female,R,Donders,2021-07-08_13h39.22.270,ImageRatingTask_S3,2021.1.4,Win32,60.09976561,,,,,,,,,
,,,,,,,,,,,,0,2,2,2,1,third,5,21,female,R,Donders,2021-07-08_13h39.22.270,ImageRatingTask_S3,2021.1.4,Win32,60.09976561,,,,,,,,,
,,,,,,,,,,,,0,3,3,3,1,fourth,5,21,female,R,Donders,2021-07-08_13h39.22.270,ImageRatingTask_S3,2021.1.4,Win32,60.09976561,,,,,,,,,
,,,,,,,,,,,,0,4,4,4,1,fifth,5,21,female,R,Donders,2021-07-08_13h39.22.270,ImageRatingTask_S3,2021.1.4,Win32,60.09976561,,,,,,,,,
,,,,,,,,,,,,0,5,5,5,1,sixth,5,21,female,R,Donders,2021-07-08_13h39.22.270,ImageRatingTask_S3,2021.1.4,Win32,60.09976561,,,,,,,,,
,,,,,,,,,,,,0,6,6,6,1,seventh,5,21,female,R,Donders,2021-07-08_13h39.22.270,ImageRatingTask_S3,2021.1.4,Win32,60.09976561,,,,,,,,,
,,,,,,,,,,,,0,7,7,7,1,last,5,21,female,R,Donders,2021-07-08_13h39.22.270,ImageRatingTask_S3,2021.1.4,Win32,60.09976561,,,,,,,,,
,,,,,,,,,,,,,,,,,,5,21,female,R,Donders,2021-07-08_13h39.22.270,ImageRatingTask_S3,2021.1.4,Win32,60.09976561,0,25,25,135,1,DreamStudyImages_rs1000x750g/Water/landscapes_130_h.jpg,,,
,,4,2.1264,5,0.8949,7,6.3844,1,0.5687,2,0.0554,0,0,0,0,1,main,5,21,female,R,Donders,2021-07-08_13h39.22.270,ImageRatingTask_S3,2021.1.4,Win32,60.09976561,,,,,,,,,
,,,,,,,,,,,,0,1,1,1,1,second,5,21,female,R,Donders,2021-07-08_13h39.22.270,ImageRatingTask_S3,2021.1.4,Win32,60.09976561,,,,,,,,,
,,,,,,,,,,,,0,2,2,2,1,third,5,21,female,R,Donders,2021-07-08_13h39.22.270,ImageRatingTask_S3,2021.1.4,Win32,60.09976561,,,,,,,,,
,,,,,,,,,,,,0,3,3,3,1,fourth,5,21,female,R,Donders,2021-07-08_13h39.22.270,ImageRatingTask_S3,2021.1.4,Win32,60.09976561,,,,,,,,,
,,,,,,,,,,,,0,4,4,4,1,fifth,5,21,female,R,Donders,2021-07-08_13h39.22.270,ImageRatingTask_S3,2021.1.4,Win32,60.09976561,,,,,,,,,
,,,,,,,,,,,,0,5,5,5,1,sixth,5,21,female,R,Donders,2021-07-08_13h39.22.270,ImageRatingTask_S3,2021.1.4,Win32,60.09976561,,,,,,,,,
,,,,,,,,,,,,0,6,6,6,1,seventh,5,21,female,R,Donders,2021-07-08_13h39.22.270,ImageRatingTask_S3,2021.1.4,Win32,60.09976561,,,,,,,,,
,,,,,,,,,,,,0,7,7,7,1,last,5,21,female,R,Donders,2021-07-08_13h39.22.270,ImageRatingTask_S3,2021.1.4,Win32,60.09976561,,,,,,,,,
,,,,,,,,,,,,,,,,,,5,21,female,R,Donders,2021-07-08_13h39.22.270,ImageRatingTask_S3,2021.1.4,Win32,60.09976561,0,26,26,26,1,DreamStudyImages_rs1000x750g/Children/People_039_v.jpg,,,
,,5,3.2656,5,0.0901,8,1.2228,1,0.8916,7,0.3202,0,0,0,0,1,main,5,21,female,R,Donders,2021-07-08_13h39.22.270,ImageRatingTask_S3,2021.1.4,Win32,60.09976561,,,,,,,,,
,,,,,,,,,,,,0,1,1,1,1,second,5,21,female,R,Donders,2021-07-08_13h39.22.270,ImageRatingTask_S3,2021.1.4,Win32,60.09976561,,,,,,,,,
,,,,,,,,,,,,0,2,2,2,1,third,5,21,female,R,Donders,2021-07-08_13h39.22.270,ImageRatingTask_S3,2021.1.4,Win32,60.09976561,,,,,,,,,
,,,,,,,,,,,,0,3,3,3,1,fourth,5,21,female,R,Donders,2021-07-08_13h39.22.270,ImageRatingTask_S3,2021.1.4,Win32,60.09976561,,,,,,,,,
,,,,,,,,,,,,0,4,4,4,1,fifth,5,21,female,R,Donders,2021-07-08_13h39.22.270,ImageRatingTask_S3,2021.1.4,Win32,60.09976561,,,,,,,,,
,,,,,,,,,,,,0,5,5,5,1,sixth,5,21,female,R,Donders,2021-07-08_13h39.22.270,ImageRatingTask_S3,2021.1.4,Win32,60.09976561,,,,,,,,,
,,,,,,,,,,,,0,6,6,6,1,seventh,5,21,female,R,Donders,2021-07-08_13h39.22.270,ImageRatingTask_S3,2021.1.4,Win32,60.09976561,,,,,,,,,
,,,,,,,,,,,,0,7,7,7,1,last,5,21,female,R,Donders,2021-07-08_13h39.22.270,ImageRatingTask_S3,2021.1.4,Win32,60.09976561,,,,,,,,,
,,,,,,,,,,,,,,,,,,5,21,female,R,Donders,2021-07-08_13h39.22.270,ImageRatingTask_S3,2021.1.4,Win32,60.09976561,0,27,27,30,1,DreamStudyImages_rs1000x750g/Vehicles/retrolocomotive.jpg,,,
,,6,4.2527,5,0.4692,7,4.0883,1,1.2547,3,0.0356,0,0,0,0,1,main,5,21,female,R,Donders,2021-07-08_13h39.22.270,ImageRatingTask_S3,2021.1.4,Win32,60.09976561,,,,,,,,,
,,,,,,,,,,,,0,1,1,1,1,second,5,21,female,R,Donders,2021-07-08_13h39.22.270,ImageRatingTask_S3,2021.1.4,Win32,60.09976561,,,,,,,,,
,,,,,,,,,,,,0,2,2,2,1,third,5,21,female,R,Donders,2021-07-08_13h39.22.270,ImageRatingTask_S3,2021.1.4,Win32,60.09976561,,,,,,,,,
,,,,,,,,,,,,0,3,3,3,1,fourth,5,21,female,R,Donders,2021-07-08_13h39.22.270,ImageRatingTask_S3,2021.1.4,Win32,60.09976561,,,,,,,,,
,,,,,,,,,,,,0,4,4,4,1,fifth,5,21,female,R,Donders,2021-07-08_13h39.22.270,ImageRatingTask_S3,2021.1.4,Win32,60.09976561,,,,,,,,,
,,,,,,,,,,,,0,5,5,5,1,sixth,5,21,female,R,Donders,2021-07-08_13h39.22.270,ImageRatingTask_S3,2021.1.4,Win32,60.09976561,,,,,,,,,
,,,,,,,,,,,,0,6,6,6,1,seventh,5,21,female,R,Donders,2021-07-08_13h39.22.270,ImageRatingTask_S3,2021.1.4,Win32,60.09976561,,,,,,,,,
,,,,,,,,,,,,0,7,7,7,1,last,5,21,female,R,Donders,2021-07-08_13h39.22.270,ImageRatingTask_S3,2021.1.4,Win32,60.09976561,,,,,,,,,
,,,,,,,,,,,,,,,,,,5,21,female,R,Donders,2021-07-08_13h39.22.270,ImageRatingTask_S3,2021.1.4,Win32,60.09976561,0,28,28,129,1,DreamStudyImages_rs1000x750g/Mammals/Bear 1.jpg,,,
,,5,2.1481,5,0.078,7,1.2114,1,1.3032,2,0.0018,0,0,0,0,1,main,5,21,female,R,Donders,2021-07-08_13h39.22.270,ImageRatingTask_S3,2021.1.4,Win32,60.09976561,,,,,,,,,
,,,,,,,,,,,,0,1,1,1,1,second,5,21,female,R,Donders,2021-07-08_13h39.22.270,ImageRatingTask_S3,2021.1.4,Win32,60.09976561,,,,,,,,,
,,,,,,,,,,,,0,2,2,2,1,third,5,21,female,R,Donders,2021-07-08_13h39.22.270,ImageRatingTask_S3,2021.1.4,Win32,60.09976561,,,,,,,,,
,,,,,,,,,,,,0,3,3,3,1,fourth,5,21,female,R,Donders,2021-07-08_13h39.22.270,ImageRatingTask_S3,2021.1.4,Win32,60.09976561,,,,,,,,,
,,,,,,,,,,,,0,4,4,4,1,fifth,5,21,female,R,Donders,2021-07-08_13h39.22.270,ImageRatingTask_S3,2021.1.4,Win32,60.09976561,,,,,,,,,
,,,,,,,,,,,,0,5,5,5,1,sixth,5,21,female,R,Donders,2021-07-08_13h39.22.270,ImageRatingTask_S3,2021.1.4,Win32,60.09976561,,,,,,,,,
,,,,,,,,,,,,0,6,6,6,1,seventh,5,21,female,R,Donders,2021-07-08_13h39.22.270,ImageRatingTask_S3,2021.1.4,Win32,60.09976561,,,,,,,,,
,,,,,,,,,,,,0,7,7,7,1,last,5,21,female,R,Donders,2021-07-08_13h39.22.270,ImageRatingTask_S3,2021.1.4,Win32,60.09976561,,,,,,,,,
,,,,,,,,,,,,,,,,,,5,21,female,R,Donders,2021-07-08_13h39.22.270,ImageRatingTask_S3,2021.1.4,Win32,60.09976561,0,29,29,159,1,DreamStudyImages_rs1000x750g/Children/IAPS2222_children4.jpg,,,
,,5,1.6345,5,0.0846,8,1.4555,1,0.6632,7,0.4104,0,0,0,0,1,main,5,21,female,R,Donders,2021-07-08_13h39.22.270,ImageRatingTask_S3,2021.1.4,Win32,60.09976561,,,,,,,,,
,,,,,,,,,,,,0,1,1,1,1,second,5,21,female,R,Donders,2021-07-08_13h39.22.270,ImageRatingTask_S3,2021.1.4,Win32,60.09976561,,,,,,,,,
,,,,,,,,,,,,0,2,2,2,1,third,5,21,female,R,Donders,2021-07-08_13h39.22.270,ImageRatingTask_S3,2021.1.4,Win32,60.09976561,,,,,,,,,
,,,,,,,,,,,,0,3,3,3,1,fourth,5,21,female,R,Donders,2021-07-08_13h39.22.270,ImageRatingTask_S3,2021.1.4,Win32,60.09976561,,,,,,,,,
,,,,,,,,,,,,0,4,4,4,1,fifth,5,21,female,R,Donders,2021-07-08_13h39.22.270,ImageRatingTask_S3,2021.1.4,Win32,60.09976561,,,,,,,,,
,,,,,,,,,,,,0,5,5,5,1,sixth,5,21,female,R,Donders,2021-07-08_13h39.22.270,ImageRatingTask_S3,2021.1.4,Win32,60.09976561,,,,,,,,,
,,,,,,,,,,,,0,6,6,6,1,seventh,5,21,female,R,Donders,2021-07-08_13h39.22.270,ImageRatingTask_S3,2021.1.4,Win32,60.09976561,,,,,,,,,
,,,,,,,,,,,,0,7,7,7,1,last,5,21,female,R,Donders,2021-07-08_13h39.22.270,ImageRatingTask_S3,2021.1.4,Win32,60.09976561,,,,,,,,,
,,,,,,,,,,,,,,,,,,5,21,female,R,Donders,2021-07-08_13h39.22.270,ImageRatingTask_S3,2021.1.4,Win32,60.09976561,0,30,30,115,1,DreamStudyImages_rs1000x750g/Vehicles/Objects_305_h.jpg,,,
,,6,2.9986,5,1.4401,6,2.455,1,2.1364,3,0.1378,0,0,0,0,1,main,5,21,female,R,Donders,2021-07-08_13h39.22.270,ImageRatingTask_S3,2021.1.4,Win32,60.09976561,,,,,,,,,
,,,,,,,,,,,,0,1,1,1,1,second,5,21,female,R,Donders,2021-07-08_13h39.22.270,ImageRatingTask_S3,2021.1.4,Win32,60.09976561,,,,,,,,,
,,,,,,,,,,,,0,2,2,2,1,third,5,21,female,R,Donders,2021-07-08_13h39.22.270,ImageRatingTask_S3,2021.1.4,Win32,60.09976561,,,,,,,,,
,,,,,,,,,,,,0,3,3,3,1,fourth,5,21,female,R,Donders,2021-07-08_13h39.22.270,ImageRatingTask_S3,2021.1.4,Win32,60.09976561,,,,,,,,,
,,,,,,,,,,,,0,4,4,4,1,fifth,5,21,female,R,Donders,2021-07-08_13h39.22.270,ImageRatingTask_S3,2021.1.4,Win32,60.09976561,,,,,,,,,
,,,,,,,,,,,,0,5,5,5,1,sixth,5,21,female,R,Donders,2021-07-08_13h39.22.270,ImageRatingTask_S3,2021.1.4,Win32,60.09976561,,,,,,,,,
,,,,,,,,,,,,0,6,6,6,1,seventh,5,21,female,R,Donders,2021-07-08_13h39.22.270,ImageRatingTask_S3,2021.1.4,Win32,60.09976561,,,,,,,,,
,,,,,,,,,,,,0,7,7,7,1,last,5,21,female,R,Donders,2021-07-08_13h39.22.270,ImageRatingTask_S3,2021.1.4,Win32,60.09976561,,,,,,,,,
,,,,,,,,,,,,,,,,,,5,21,female,R,Donders,2021-07-08_13h39.22.270,ImageRatingTask_S3,2021.1.4,Win32,60.09976561,0,31,31,57,1,DreamStudyImages_rs1000x750g/Mammals/IAPS1304_dog5.jpg,,,
,,6,5.4139,4,1.4686,8,2.7071,1,1.1879,5,0.3129,0,0,0,0,1,main,5,21,female,R,Donders,2021-07-08_13h39.22.270,ImageRatingTask_S3,2021.1.4,Win32,60.09976561,,,,,,,,,
,,,,,,,,,,,,0,1,1,1,1,second,5,21,female,R,Donders,2021-07-08_13h39.22.270,ImageRatingTask_S3,2021.1.4,Win32,60.09976561,,,,,,,,,
,,,,,,,,,,,,0,2,2,2,1,third,5,21,female,R,Donders,2021-07-08_13h39.22.270,ImageRatingTask_S3,2021.1.4,Win32,60.09976561,,,,,,,,,
,,,,,,,,,,,,0,3,3,3,1,fourth,5,21,female,R,Donders,2021-07-08_13h39.22.270,ImageRatingTask_S3,2021.1.4,Win32,60.09976561,,,,,,,,,
,,,,,,,,,,,,0,4,4,4,1,fifth,5,21,female,R,Donders,2021-07-08_13h39.22.270,ImageRatingTask_S3,2021.1.4,Win32,60.09976561,,,,,,,,,
,,,,,,,,,,,,0,5,5,5,1,sixth,5,21,female,R,Donders,2021-07-08_13h39.22.270,ImageRatingTask_S3,2021.1.4,Win32,60.09976561,,,,,,,,,
,,,,,,,,,,,,0,6,6,6,1,seventh,5,21,female,R,Donders,2021-07-08_13h39.22.270,ImageRatingTask_S3,2021.1.4,Win32,60.09976561,,,,,,,,,
,,,,,,,,,,,,0,7,7,7,1,last,5,21,female,R,Donders,2021-07-08_13h39.22.270,ImageRatingTask_S3,2021.1.4,Win32,60.09976561,,,,,,,,,
,,,,,,,,,,,,,,,,,,5,21,female,R,Donders,2021-07-08_13h39.22.270,ImageRatingTask_S3,2021.1.4,Win32,60.09976561,0,32,32,85,1,DreamStudyImages_rs1000x750g/Food/Objects_049_h.jpg,,,
,,6,2.9732,5,1.5934,6,1.2057,1,1.477,5,0.3173,0,0,0,0,1,main,5,21,female,R,Donders,2021-07-08_13h39.22.270,ImageRatingTask_S3,2021.1.4,Win32,60.09976561,,,,,,,,,
,,,,,,,,,,,,0,1,1,1,1,second,5,21,female,R,Donders,2021-07-08_13h39.22.270,ImageRatingTask_S3,2021.1.4,Win32,60.09976561,,,,,,,,,
,,,,,,,,,,,,0,2,2,2,1,third,5,21,female,R,Donders,2021-07-08_13h39.22.270,ImageRatingTask_S3,2021.1.4,Win32,60.09976561,,,,,,,,,
,,,,,,,,,,,,0,3,3,3,1,fourth,5,21,female,R,Donders,2021-07-08_13h39.22.270,ImageRatingTask_S3,2021.1.4,Win32,60.09976561,,,,,,,,,
,,,,,,,,,,,,0,4,4,4,1,fifth,5,21,female,R,Donders,2021-07-08_13h39.22.270,ImageRatingTask_S3,2021.1.4,Win32,60.09976561,,,,,,,,,
,,,,,,,,,,,,0,5,5,5,1,sixth,5,21,female,R,Donders,2021-07-08_13h39.22.270,ImageRatingTask_S3,2021.1.4,Win32,60.09976561,,,,,,,,,
,,,,,,,,,,,,0,6,6,6,1,seventh,5,21,female,R,Donders,2021-07-08_13h39.22.270,ImageRatingTask_S3,2021.1.4,Win32,60.09976561,,,,,,,,,
,,,,,,,,,,,,0,7,7,7,1,last,5,21,female,R,Donders,2021-07-08_13h39.22.270,ImageRatingTask_S3,2021.1.4,Win32,60.09976561,,,,,,,,,
,,,,,,,,,,,,,,,,,,5,21,female,R,Donders,2021-07-08_13h39.22.270,ImageRatingTask_S3,2021.1.4,Win32,60.09976561,0,33,33,11,1,DreamStudyImages_rs1000x750g/Food/IAPS7285_tomatoes.jpg,,,
,,5,5.7814,5,0.0632,7,1.6316,0,1.2658,,,0,0,0,0,1,main,5,21,female,R,Donders,2021-07-08_13h39.22.270,ImageRatingTask_S3,2021.1.4,Win32,60.09976561,,,,,,,,,
,,,,,,,,,,,,0,1,1,1,1,second,5,21,female,R,Donders,2021-07-08_13h39.22.270,ImageRatingTask_S3,2021.1.4,Win32,60.09976561,,,,,,,,,
,,,,,,,,,,,,0,2,2,2,1,third,5,21,female,R,Donders,2021-07-08_13h39.22.270,ImageRatingTask_S3,2021.1.4,Win32,60.09976561,,,,,,,,,
,,,,,,,,,,,,0,3,3,3,1,fourth,5,21,female,R,Donders,2021-07-08_13h39.22.270,ImageRatingTask_S3,2021.1.4,Win32,60.09976561,,,,,,,,,
,,,,,,,,,,,,0,4,4,4,1,fifth,5,21,female,R,Donders,2021-07-08_13h39.22.270,ImageRatingTask_S3,2021.1.4,Win32,60.09976561,,,,,,,,,
,,,,,,,,,,,,0,5,5,5,1,sixth,5,21,female,R,Donders,2021-07-08_13h39.22.270,ImageRatingTask_S3,2021.1.4,Win32,60.09976561,,,,,,,,,
,,,,,,,,,,,,0,6,6,6,1,seventh,5,21,female,R,Donders,2021-07-08_13h39.22.270,ImageRatingTask_S3,2021.1.4,Win32,60.09976561,,,,,,,,,
,,,,,,,,,,,,0,7,7,7,1,last,5,21,female,R,Donders,2021-07-08_13h39.22.270,ImageRatingTask_S3,2021.1.4,Win32,60.09976561,,,,,,,,,
,,,,,,,,,,,,,,,,,,5,21,female,R,Donders,2021-07-08_13h39.22.270,ImageRatingTask_S3,2021.1.4,Win32,60.09976561,0,34,34,70,1,DreamStudyImages_rs1000x750g/Food/Objects_071_h.jpg,,,
,,8,4.3544,3,1.1524,6,1.6599,1,0.4954,6,0.8365,0,0,0,0,1,main,5,21,female,R,Donders,2021-07-08_13h39.22.270,ImageRatingTask_S3,2021.1.4,Win32,60.09976561,,,,,,,,,
,,,,,,,,,,,,0,1,1,1,1,second,5,21,female,R,Donders,2021-07-08_13h39.22.270,ImageRatingTask_S3,2021.1.4,Win32,60.09976561,,,,,,,,,
,,,,,,,,,,,,0,2,2,2,1,third,5,21,female,R,Donders,2021-07-08_13h39.22.270,ImageRatingTask_S3,2021.1.4,Win32,60.09976561,,,,,,,,,
,,,,,,,,,,,,0,3,3,3,1,fourth,5,21,female,R,Donders,2021-07-08_13h39.22.270,ImageRatingTask_S3,2021.1.4,Win32,60.09976561,,,,,,,,,
,,,,,,,,,,,,0,4,4,4,1,fifth,5,21,female,R,Donders,2021-07-08_13h39.22.270,ImageRatingTask_S3,2021.1.4,Win32,60.09976561,,,,,,,,,
,,,,,,,,,,,,0,5,5,5,1,sixth,5,21,female,R,Donders,2021-07-08_13h39.22.270,ImageRatingTask_S3,2021.1.4,Win32,60.09976561,,,,,,,,,
,,,,,,,,,,,,0,6,6,6,1,seventh,5,21,female,R,Donders,2021-07-08_13h39.22.270,ImageRatingTask_S3,2021.1.4,Win32,60.09976561,,,,,,,,,
,,,,,,,,,,,,0,7,7,7,1,last,5,21,female,R,Donders,2021-07-08_13h39.22.270,ImageRatingTask_S3,2021.1.4,Win32,60.09976561,,,,,,,,,
,,,,,,,,,,,,,,,,,,5,21,female,R,Donders,2021-07-08_13h39.22.270,ImageRatingTask_S3,2021.1.4,Win32,60.09976561,0,35,35,64,1,DreamStudyImages_rs1000x750g/Houses/IAPS5665_house.jpg,,,
,,5,1.6715,5,0.0741,8,2.7735,1,1.1033,2,0.0556,0,0,0,0,1,main,5,21,female,R,Donders,2021-07-08_13h39.22.270,ImageRatingTask_S3,2021.1.4,Win32,60.09976561,,,,,,,,,
,,,,,,,,,,,,0,1,1,1,1,second,5,21,female,R,Donders,2021-07-08_13h39.22.270,ImageRatingTask_S3,2021.1.4,Win32,60.09976561,,,,,,,,,
,,,,,,,,,,,,0,2,2,2,1,third,5,21,female,R,Donders,2021-07-08_13h39.22.270,ImageRatingTask_S3,2021.1.4,Win32,60.09976561,,,,,,,,,
,,,,,,,,,,,,0,3,3,3,1,fourth,5,21,female,R,Donders,2021-07-08_13h39.22.270,ImageRatingTask_S3,2021.1.4,Win32,60.09976561,,,,,,,,,
,,,,,,,,,,,,0,4,4,4,1,fifth,5,21,female,R,Donders,2021-07-08_13h39.22.270,ImageRatingTask_S3,2021.1.4,Win32,60.09976561,,,,,,,,,
,,,,,,,,,,,,0,5,5,5,1,sixth,5,21,female,R,Donders,2021-07-08_13h39.22.270,ImageRatingTask_S3,2021.1.4,Win32,60.09976561,,,,,,,,,
,,,,,,,,,,,,0,6,6,6,1,seventh,5,21,female,R,Donders,2021-07-08_13h39.22.270,ImageRatingTask_S3,2021.1.4,Win32,60.09976561,,,,,,,,,
,,,,,,,,,,,,0,7,7,7,1,last,5,21,female,R,Donders,2021-07-08_13h39.22.270,ImageRatingTask_S3,2021.1.4,Win32,60.09976561,,,,,,,,,
,,,,,,,,,,,,,,,,,,5,21,female,R,Donders,2021-07-08_13h39.22.270,ImageRatingTask_S3,2021.1.4,Win32,60.09976561,0,36,36,101,1,DreamStudyImages_rs1000x750g/Children/Excited face 7.jpg,,,
,,8,1.8157,3,1.9013,8,2.1766,1,0.6882,3,0.6746,0,0,0,0,1,main,5,21,female,R,Donders,2021-07-08_13h39.22.270,ImageRatingTask_S3,2021.1.4,Win32,60.09976561,,,,,,,,,
,,,,,,,,,,,,0,1,1,1,1,second,5,21,female,R,Donders,2021-07-08_13h39.22.270,ImageRatingTask_S3,2021.1.4,Win32,60.09976561,,,,,,,,,
,,,,,,,,,,,,0,2,2,2,1,third,5,21,female,R,Donders,2021-07-08_13h39.22.270,ImageRatingTask_S3,2021.1.4,Win32,60.09976561,,,,,,,,,
,,,,,,,,,,,,0,3,3,3,1,fourth,5,21,female,R,Donders,2021-07-08_13h39.22.270,ImageRatingTask_S3,2021.1.4,Win32,60.09976561,,,,,,,,,
,,,,,,,,,,,,0,4,4,4,1,fifth,5,21,female,R,Donders,2021-07-08_13h39.22.270,ImageRatingTask_S3,2021.1.4,Win32,60.09976561,,,,,,,,,
,,,,,,,,,,,,0,5,5,5,1,sixth,5,21,female,R,Donders,2021-07-08_13h39.22.270,ImageRatingTask_S3,2021.1.4,Win32,60.09976561,,,,,,,,,
,,,,,,,,,,,,0,6,6,6,1,seventh,5,21,female,R,Donders,2021-07-08_13h39.22.270,ImageRatingTask_S3,2021.1.4,Win32,60.09976561,,,,,,,,,
,,,,,,,,,,,,0,7,7,7,1,last,5,21,female,R,Donders,2021-07-08_13h39.22.270,ImageRatingTask_S3,2021.1.4,Win32,60.09976561,,,,,,,,,
,,,,,,,,,,,,,,,,,,5,21,female,R,Donders,2021-07-08_13h39.22.270,ImageRatingTask_S3,2021.1.4,Win32,60.09976561,0,37,37,78,1,DreamStudyImages_rs1000x750g/Mammals/IAPS1812_elephants.jpg,,,
,,8,2.824,2,1.0626,7,1.4099,1,0.6899,8,0.7007,0,0,0,0,1,main,5,21,female,R,Donders,2021-07-08_13h39.22.270,ImageRatingTask_S3,2021.1.4,Win32,60.09976561,,,,,,,,,
,,,,,,,,,,,,0,1,1,1,1,second,5,21,female,R,Donders,2021-07-08_13h39.22.270,ImageRatingTask_S3,2021.1.4,Win32,60.09976561,,,,,,,,,
,,,,,,,,,,,,0,2,2,2,1,third,5,21,female,R,Donders,2021-07-08_13h39.22.270,ImageRatingTask_S3,2021.1.4,Win32,60.09976561,,,,,,,,,
,,,,,,,,,,,,0,3,3,3,1,fourth,5,21,female,R,Donders,2021-07-08_13h39.22.270,ImageRatingTask_S3,2021.1.4,Win32,60.09976561,,,,,,,,,
,,,,,,,,,,,,0,4,4,4,1,fifth,5,21,female,R,Donders,2021-07-08_13h39.22.270,ImageRatingTask_S3,2021.1.4,Win32,60.09976561,,,,,,,,,
,,,,,,,,,,,,0,5,5,5,1,sixth,5,21,female,R,Donders,2021-07-08_13h39.22.270,ImageRatingTask_S3,2021.1.4,Win32,60.09976561,,,,,,,,,
,,,,,,,,,,,,0,6,6,6,1,seventh,5,21,female,R,Donders,2021-07-08_13h39.22.270,ImageRatingTask_S3,2021.1.4,Win32,60.09976561,,,,,,,,,
,,,,,,,,,,,,0,7,7,7,1,last,5,21,female,R,Donders,2021-07-08_13h39.22.270,ImageRatingTask_S3,2021.1.4,Win32,60.09976561,,,,,,,,,
,,,,,,,,,,,,,,,,,,5,21,female,R,Donders,2021-07-08_13h39.22.270,ImageRatingTask_S3,2021.1.4,Win32,60.09976561,0,38,38,138,1,DreamStudyImages_rs1000x750g/Water/IAPS5781_mistylake.jpg,,,
,,5,10.3283,9,2.1167,6,2.0294,1,3.5851,3,0.0514,0,0,0,0,1,main,5,21,female,R,Donders,2021-07-08_13h39.22.270,ImageRatingTask_S3,2021.1.4,Win32,60.09976561,,,,,,,,,
,,,,,,,,,,,,0,1,1,1,1,second,5,21,female,R,Donders,2021-07-08_13h39.22.270,ImageRatingTask_S3,2021.1.4,Win32,60.09976561,,,,,,,,,
,,,,,,,,,,,,0,2,2,2,1,third,5,21,female,R,Donders,2021-07-08_13h39.22.270,ImageRatingTask_S3,2021.1.4,Win32,60.09976561,,,,,,,,,
,,,,,,,,,,,,0,3,3,3,1,fourth,5,21,female,R,Donders,2021-07-08_13h39.22.270,ImageRatingTask_S3,2021.1.4,Win32,60.09976561,,,,,,,,,
,,,,,,,,,,,,0,4,4,4,1,fifth,5,21,female,R,Donders,2021-07-08_13h39.22.270,ImageRatingTask_S3,2021.1.4,Win32,60.09976561,,,,,,,,,
,,,,,,,,,,,,0,5,5,5,1,sixth,5,21,female,R,Donders,2021-07-08_13h39.22.270,ImageRatingTask_S3,2021.1.4,Win32,60.09976561,,,,,,,,,
,,,,,,,,,,,,0,6,6,6,1,seventh,5,21,female,R,Donders,2021-07-08_13h39.22.270,ImageRatingTask_S3,2021.1.4,Win32,60.09976561,,,,,,,,,
,,,,,,,,,,,,0,7,7,7,1,last,5,21,female,R,Donders,2021-07-08_13h39.22.270,ImageRatingTask_S3,2021.1.4,Win32,60.09976561,,,,,,,,,
,,,,,,,,,,,,,,,,,,5,21,female,R,Donders,2021-07-08_13h39.22.270,ImageRatingTask_S3,2021.1.4,Win32,60.09976561,0,39,39,126,1,DreamStudyImages_rs1000x750g/Mammals/IAPS1300_dog1.jpg,,,
,,5,8.7863,5,0.0781,8,2.3215,1,1.1991,3,0.6941,0,0,0,0,1,main,5,21,female,R,Donders,2021-07-08_13h39.22.270,ImageRatingTask_S3,2021.1.4,Win32,60.09976561,,,,,,,,,
,,,,,,,,,,,,0,1,1,1,1,second,5,21,female,R,Donders,2021-07-08_13h39.22.270,ImageRatingTask_S3,2021.1.4,Win32,60.09976561,,,,,,,,,
,,,,,,,,,,,,0,2,2,2,1,third,5,21,female,R,Donders,2021-07-08_13h39.22.270,ImageRatingTask_S3,2021.1.4,Win32,60.09976561,,,,,,,,,
,,,,,,,,,,,,0,3,3,3,1,fourth,5,21,female,R,Donders,2021-07-08_13h39.22.270,ImageRatingTask_S3,2021.1.4,Win32,60.09976561,,,,,,,,,
,,,,,,,,,,,,0,4,4,4,1,fifth,5,21,female,R,Donders,2021-07-08_13h39.22.270,ImageRatingTask_S3,2021.1.4,Win32,60.09976561,,,,,,,,,
,,,,,,,,,,,,0,5,5,5,1,sixth,5,21,female,R,Donders,2021-07-08_13h39.22.270,ImageRatingTask_S3,2021.1.4,Win32,60.09976561,,,,,,,,,
,,,,,,,,,,,,0,6,6,6,1,seventh,5,21,female,R,Donders,2021-07-08_13h39.22.270,ImageRatingTask_S3,2021.1.4,Win32,60.09976561,,,,,,,,,
,,,,,,,,,,,,0,7,7,7,1,last,5,21,female,R,Donders,2021-07-08_13h39.22.270,ImageRatingTask_S3,2021.1.4,Win32,60.09976561,,,,,,,,,
,,,,,,,,,,,,,,,,,,5,21,female,R,Donders,2021-07-08_13h39.22.270,ImageRatingTask_S3,2021.1.4,Win32,60.09976561,0,40,40,98,1,DreamStudyImages_rs1000x750g/Mammals/Animals_110_h.jpg,,,
,,6,3.1787,5,0.9088,9,1.8047,1,0.9036,3,0.6326,0,0,0,0,1,main,5,21,female,R,Donders,2021-07-08_13h39.22.270,ImageRatingTask_S3,2021.1.4,Win32,60.09976561,,,,,,,,,
,,,,,,,,,,,,0,1,1,1,1,second,5,21,female,R,Donders,2021-07-08_13h39.22.270,ImageRatingTask_S3,2021.1.4,Win32,60.09976561,,,,,,,,,
,,,,,,,,,,,,0,2,2,2,1,third,5,21,female,R,Donders,2021-07-08_13h39.22.270,ImageRatingTask_S3,2021.1.4,Win32,60.09976561,,,,,,,,,
,,,,,,,,,,,,0,3,3,3,1,fourth,5,21,female,R,Donders,2021-07-08_13h39.22.270,ImageRatingTask_S3,2021.1.4,Win32,60.09976561,,,,,,,,,
,,,,,,,,,,,,0,4,4,4,1,fifth,5,21,female,R,Donders,2021-07-08_13h39.22.270,ImageRatingTask_S3,2021.1.4,Win32,60.09976561,,,,,,,,,
,,,,,,,,,,,,0,5,5,5,1,sixth,5,21,female,R,Donders,2021-07-08_13h39.22.270,ImageRatingTask_S3,2021.1.4,Win32,60.09976561,,,,,,,,,
,,,,,,,,,,,,0,6,6,6,1,seventh,5,21,female,R,Donders,2021-07-08_13h39.22.270,ImageRatingTask_S3,2021.1.4,Win32,60.09976561,,,,,,,,,
,,,,,,,,,,,,0,7,7,7,1,last,5,21,female,R,Donders,2021-07-08_13h39.22.270,ImageRatingTask_S3,2021.1.4,Win32,60.09976561,,,,,,,,,
,,,,,,,,,,,,,,,,,,5,21,female,R,Donders,2021-07-08_13h39.22.270,ImageRatingTask_S3,2021.1.4,Win32,60.09976561,0,41,41,60,1,DreamStudyImages_rs1000x750g/Mammals/Animals_202_h.jpg,,,
,,9,2.9482,3,1.7396,8,1.8793,1,1.4018,3,0.5998,0,0,0,0,1,main,5,21,female,R,Donders,2021-07-08_13h39.22.270,ImageRatingTask_S3,2021.1.4,Win32,60.09976561,,,,,,,,,
,,,,,,,,,,,,0,1,1,1,1,second,5,21,female,R,Donders,2021-07-08_13h39.22.270,ImageRatingTask_S3,2021.1.4,Win32,60.09976561,,,,,,,,,
,,,,,,,,,,,,0,2,2,2,1,third,5,21,female,R,Donders,2021-07-08_13h39.22.270,ImageRatingTask_S3,2021.1.4,Win32,60.09976561,,,,,,,,,
,,,,,,,,,,,,0,3,3,3,1,fourth,5,21,female,R,Donders,2021-07-08_13h39.22.270,ImageRatingTask_S3,2021.1.4,Win32,60.09976561,,,,,,,,,
,,,,,,,,,,,,0,4,4,4,1,fifth,5,21,female,R,Donders,2021-07-08_13h39.22.270,ImageRatingTask_S3,2021.1.4,Win32,60.09976561,,,,,,,,,
,,,,,,,,,,,,0,5,5,5,1,sixth,5,21,female,R,Donders,2021-07-08_13h39.22.270,ImageRatingTask_S3,2021.1.4,Win32,60.09976561,,,,,,,,,
,,,,,,,,,,,,0,6,6,6,1,seventh,5,21,female,R,Donders,2021-07-08_13h39.22.270,ImageRatingTask_S3,2021.1.4,Win32,60.09976561,,,,,,,,,
,,,,,,,,,,,,0,7,7,7,1,last,5,21,female,R,Donders,2021-07-08_13h39.22.270,ImageRatingTask_S3,2021.1.4,Win32,60.09976561,,,,,,,,,
,,,,,,,,,,,,,,,,,,5,21,female,R,Donders,2021-07-08_13h39.22.270,ImageRatingTask_S3,2021.1.4,Win32,60.09976561,0,42,42,100,1,DreamStudyImages_rs1000x750g/Mammals/Raccoon 1.jpg,,,
,,5,1.8869,5,0.0809,7,1.6217,1,0.5299,2,0.2841,0,0,0,0,1,main,5,21,female,R,Donders,2021-07-08_13h39.22.270,ImageRatingTask_S3,2021.1.4,Win32,60.09976561,,,,,,,,,
,,,,,,,,,,,,0,1,1,1,1,second,5,21,female,R,Donders,2021-07-08_13h39.22.270,ImageRatingTask_S3,2021.1.4,Win32,60.09976561,,,,,,,,,
,,,,,,,,,,,,0,2,2,2,1,third,5,21,female,R,Donders,2021-07-08_13h39.22.270,ImageRatingTask_S3,2021.1.4,Win32,60.09976561,,,,,,,,,
,,,,,,,,,,,,0,3,3,3,1,fourth,5,21,female,R,Donders,2021-07-08_13h39.22.270,ImageRatingTask_S3,2021.1.4,Win32,60.09976561,,,,,,,,,
,,,,,,,,,,,,0,4,4,4,1,fifth,5,21,female,R,Donders,2021-07-08_13h39.22.270,ImageRatingTask_S3,2021.1.4,Win32,60.09976561,,,,,,,,,
,,,,,,,,,,,,0,5,5,5,1,sixth,5,21,female,R,Donders,2021-07-08_13h39.22.270,ImageRatingTask_S3,2021.1.4,Win32,60.09976561,,,,,,,,,
,,,,,,,,,,,,0,6,6,6,1,seventh,5,21,female,R,Donders,2021-07-08_13h39.22.270,ImageRatingTask_S3,2021.1.4,Win32,60.09976561,,,,,,,,,
,,,,,,,,,,,,0,7,7,7,1,last,5,21,female,R,Donders,2021-07-08_13h39.22.270,ImageRatingTask_S3,2021.1.4,Win32,60.09976561,,,,,,,,,
,,,,,,,,,,,,,,,,,,5,21,female,R,Donders,2021-07-08_13h39.22.270,ImageRatingTask_S3,2021.1.4,Win32,60.09976561,0,43,43,152,1,DreamStudyImages_rs1000x750g/Children/Faces_012_v.jpg,,,
,,7,4.1813,3,1.7434,8,1.7152,2,2.4621,7,1.0095,0,0,0,0,1,main,5,21,female,R,Donders,2021-07-08_13h39.22.270,ImageRatingTask_S3,2021.1.4,Win32,60.09976561,,,,,,,,,
,,,,,,,,,,8,0.2835,0,1,1,1,1,second,5,21,female,R,Donders,2021-07-08_13h39.22.270,ImageRatingTask_S3,2021.1.4,Win32,60.09976561,,,,,,,,,
,,,,,,,,,,,,0,2,2,2,1,third,5,21,female,R,Donders,2021-07-08_13h39.22.270,ImageRatingTask_S3,2021.1.4,Win32,60.09976561,,,,,,,,,
,,,,,,,,,,,,0,3,3,3,1,fourth,5,21,female,R,Donders,2021-07-08_13h39.22.270,ImageRatingTask_S3,2021.1.4,Win32,60.09976561,,,,,,,,,
,,,,,,,,,,,,0,4,4,4,1,fifth,5,21,female,R,Donders,2021-07-08_13h39.22.270,ImageRatingTask_S3,2021.1.4,Win32,60.09976561,,,,,,,,,
,,,,,,,,,,,,0,5,5,5,1,sixth,5,21,female,R,Donders,2021-07-08_13h39.22.270,ImageRatingTask_S3,2021.1.4,Win32,60.09976561,,,,,,,,,
,,,,,,,,,,,,0,6,6,6,1,seventh,5,21,female,R,Donders,2021-07-08_13h39.22.270,ImageRatingTask_S3,2021.1.4,Win32,60.09976561,,,,,,,,,
,,,,,,,,,,,,0,7,7,7,1,last,5,21,female,R,Donders,2021-07-08_13h39.22.270,ImageRatingTask_S3,2021.1.4,Win32,60.09976561,,,,,,,,,
,,,,,,,,,,,,,,,,,,5,21,female,R,Donders,2021-07-08_13h39.22.270,ImageRatingTask_S3,2021.1.4,Win32,60.09976561,0,44,44,82,1,DreamStudyImages_rs1000x750g/Vehicles/Objects_205_h.jpg,,,
,,7,6.7754,3,0.8761,8,1.76,1,1.279,7,1.0091,0,0,0,0,1,main,5,21,female,R,Donders,2021-07-08_13h39.22.270,ImageRatingTask_S3,2021.1.4,Win32,60.09976561,,,,,,,,,
,,,,,,,,,,,,0,1,1,1,1,second,5,21,female,R,Donders,2021-07-08_13h39.22.270,ImageRatingTask_S3,2021.1.4,Win32,60.09976561,,,,,,,,,
,,,,,,,,,,,,0,2,2,2,1,third,5,21,female,R,Donders,2021-07-08_13h39.22.270,ImageRatingTask_S3,2021.1.4,Win32,60.09976561,,,,,,,,,
,,,,,,,,,,,,0,3,3,3,1,fourth,5,21,female,R,Donders,2021-07-08_13h39.22.270,ImageRatingTask_S3,2021.1.4,Win32,60.09976561,,,,,,,,,
,,,,,,,,,,,,0,4,4,4,1,fifth,5,21,female,R,Donders,2021-07-08_13h39.22.270,ImageRatingTask_S3,2021.1.4,Win32,60.09976561,,,,,,,,,
,,,,,,,,,,,,0,5,5,5,1,sixth,5,21,female,R,Donders,2021-07-08_13h39.22.270,ImageRatingTask_S3,2021.1.4,Win32,60.09976561,,,,,,,,,
,,,,,,,,,,,,0,6,6,6,1,seventh,5,21,female,R,Donders,2021-07-08_13h39.22.270,ImageRatingTask_S3,2021.1.4,Win32,60.09976561,,,,,,,,,
,,,,,,,,,,,,0,7,7,7,1,last,5,21,female,R,Donders,2021-07-08_13h39.22.270,ImageRatingTask_S3,2021.1.4,Win32,60.09976561,,,,,,,,,
,,,,,,,,,,,,,,,,,,5,21,female,R,Donders,2021-07-08_13h39.22.270,ImageRatingTask_S3,2021.1.4,Win32,60.09976561,0,45,45,34,1,DreamStudyImages_rs1000x750g/Vehicles/Objects_301_h.jpg,,,
,,5,2.0944,5,0.0773,8,3.5051,1,0.6621,2,0.1597,0,0,0,0,1,main,5,21,female,R,Donders,2021-07-08_13h39.22.270,ImageRatingTask_S3,2021.1.4,Win32,60.09976561,,,,,,,,,
,,,,,,,,,,,,0,1,1,1,1,second,5,21,female,R,Donders,2021-07-08_13h39.22.270,ImageRatingTask_S3,2021.1.4,Win32,60.09976561,,,,,,,,,
,,,,,,,,,,,,0,2,2,2,1,third,5,21,female,R,Donders,2021-07-08_13h39.22.270,ImageRatingTask_S3,2021.1.4,Win32,60.09976561,,,,,,,,,
,,,,,,,,,,,,0,3,3,3,1,fourth,5,21,female,R,Donders,2021-07-08_13h39.22.270,ImageRatingTask_S3,2021.1.4,Win32,60.09976561,,,,,,,,,
,,,,,,,,,,,,0,4,4,4,1,fifth,5,21,female,R,Donders,2021-07-08_13h39.22.270,ImageRatingTask_S3,2021.1.4,Win32,60.09976561,,,,,,,,,
,,,,,,,,,,,,0,5,5,5,1,sixth,5,21,female,R,Donders,2021-07-08_13h39.22.270,ImageRatingTask_S3,2021.1.4,Win32,60.09976561,,,,,,,,,
,,,,,,,,,,,,0,6,6,6,1,seventh,5,21,female,R,Donders,2021-07-08_13h39.22.270,ImageRatingTask_S3,2021.1.4,Win32,60.09976561,,,,,,,,,
,,,,,,,,,,,,0,7,7,7,1,last,5,21,female,R,Donders,2021-07-08_13h39.22.270,ImageRatingTask_S3,2021.1.4,Win32,60.09976561,,,,,,,,,
,,,,,,,,,,,,,,,,,,5,21,female,R,Donders,2021-07-08_13h39.22.270,ImageRatingTask_S3,2021.1.4,Win32,60.09976561,0,46,46,124,1,DreamStudyImages_rs1000x750g/Children/Faces_019_h.jpg,,,
,,5,17.0178,5,0.0589,8,1.2578,1,0.7209,2,0.0589,0,0,0,0,1,main,5,21,female,R,Donders,2021-07-08_13h39.22.270,ImageRatingTask_S3,2021.1.4,Win32,60.09976561,,,,,,,,,
,,,,,,,,,,,,0,1,1,1,1,second,5,21,female,R,Donders,2021-07-08_13h39.22.270,ImageRatingTask_S3,2021.1.4,Win32,60.09976561,,,,,,,,,
,,,,,,,,,,,,0,2,2,2,1,third,5,21,female,R,Donders,2021-07-08_13h39.22.270,ImageRatingTask_S3,2021.1.4,Win32,60.09976561,,,,,,,,,
,,,,,,,,,,,,0,3,3,3,1,fourth,5,21,female,R,Donders,2021-07-08_13h39.22.270,ImageRatingTask_S3,2021.1.4,Win32,60.09976561,,,,,,,,,
,,,,,,,,,,,,0,4,4,4,1,fifth,5,21,female,R,Donders,2021-07-08_13h39.22.270,ImageRatingTask_S3,2021.1.4,Win32,60.09976561,,,,,,,,,
,,,,,,,,,,,,0,5,5,5,1,sixth,5,21,female,R,Donders,2021-07-08_13h39.22.270,ImageRatingTask_S3,2021.1.4,Win32,60.09976561,,,,,,,,,
,,,,,,,,,,,,0,6,6,6,1,seventh,5,21,female,R,Donders,2021-07-08_13h39.22.270,ImageRatingTask_S3,2021.1.4,Win32,60.09976561,,,,,,,,,
,,,,,,,,,,,,0,7,7,7,1,last,5,21,female,R,Donders,2021-07-08_13h39.22.270,ImageRatingTask_S3,2021.1.4,Win32,60.09976561,,,,,,,,,
,,,,,,,,,,,,,,,,,,5,21,female,R,Donders,2021-07-08_13h39.22.270,ImageRatingTask_S3,2021.1.4,Win32,60.09976561,0,47,47,96,1,DreamStudyImages_rs1000x750g/Children/Faces_076_h.jpg,,,
,,7,2.4736,4,1.1624,7,1.5272,1,1.3658,3,0.1923,0,0,0,0,1,main,5,21,female,R,Donders,2021-07-08_13h39.22.270,ImageRatingTask_S3,2021.1.4,Win32,60.09976561,,,,,,,,,
,,,,,,,,,,,,0,1,1,1,1,second,5,21,female,R,Donders,2021-07-08_13h39.22.270,ImageRatingTask_S3,2021.1.4,Win32,60.09976561,,,,,,,,,
,,,,,,,,,,,,0,2,2,2,1,third,5,21,female,R,Donders,2021-07-08_13h39.22.270,ImageRatingTask_S3,2021.1.4,Win32,60.09976561,,,,,,,,,
,,,,,,,,,,,,0,3,3,3,1,fourth,5,21,female,R,Donders,2021-07-08_13h39.22.270,ImageRatingTask_S3,2021.1.4,Win32,60.09976561,,,,,,,,,
,,,,,,,,,,,,0,4,4,4,1,fifth,5,21,female,R,Donders,2021-07-08_13h39.22.270,ImageRatingTask_S3,2021.1.4,Win32,60.09976561,,,,,,,,,
,,,,,,,,,,,,0,5,5,5,1,sixth,5,21,female,R,Donders,2021-07-08_13h39.22.270,ImageRatingTask_S3,2021.1.4,Win32,60.09976561,,,,,,,,,
,,,,,,,,,,,,0,6,6,6,1,seventh,5,21,female,R,Donders,2021-07-08_13h39.22.270,ImageRatingTask_S3,2021.1.4,Win32,60.09976561,,,,,,,,,
,,,,,,,,,,,,0,7,7,7,1,last,5,21,female,R,Donders,2021-07-08_13h39.22.270,ImageRatingTask_S3,2021.1.4,Win32,60.09976561,,,,,,,,,
,,,,,,,,,,,,,,,,,,5,21,female,R,Donders,2021-07-08_13h39.22.270,ImageRatingTask_S3,2021.1.4,Win32,60.09976561,0,48,48,156,1,DreamStudyImages_rs1000x750g/Mammals/Animals_206_h_CHECK.jpg,,,
,,4,3.0116,5,0.7579,8,2.4982,1,2.2194,2,0.0454,0,0,0,0,1,main,5,21,female,R,Donders,2021-07-08_13h39.22.270,ImageRatingTask_S3,2021.1.4,Win32,60.09976561,,,,,,,,,
,,,,,,,,,,,,0,1,1,1,1,second,5,21,female,R,Donders,2021-07-08_13h39.22.270,ImageRatingTask_S3,2021.1.4,Win32,60.09976561,,,,,,,,,
,,,,,,,,,,,,0,2,2,2,1,third,5,21,female,R,Donders,2021-07-08_13h39.22.270,ImageRatingTask_S3,2021.1.4,Win32,60.09976561,,,,,,,,,
,,,,,,,,,,,,0,3,3,3,1,fourth,5,21,female,R,Donders,2021-07-08_13h39.22.270,ImageRatingTask_S3,2021.1.4,Win32,60.09976561,,,,,,,,,
,,,,,,,,,,,,0,4,4,4,1,fifth,5,21,female,R,Donders,2021-07-08_13h39.22.270,ImageRatingTask_S3,2021.1.4,Win32,60.09976561,,,,,,,,,
,,,,,,,,,,,,0,5,5,5,1,sixth,5,21,female,R,Donders,2021-07-08_13h39.22.270,ImageRatingTask_S3,2021.1.4,Win32,60.09976561,,,,,,,,,
,,,,,,,,,,,,0,6,6,6,1,seventh,5,21,female,R,Donders,2021-07-08_13h39.22.270,ImageRatingTask_S3,2021.1.4,Win32,60.09976561,,,,,,,,,
,,,,,,,,,,,,0,7,7,7,1,last,5,21,female,R,Donders,2021-07-08_13h39.22.270,ImageRatingTask_S3,2021.1.4,Win32,60.09976561,,,,,,,,,
,,,,,,,,,,,,,,,,,,5,21,female,R,Donders,2021-07-08_13h39.22.270,ImageRatingTask_S3,2021.1.4,Win32,60.09976561,0,49,49,15,1,DreamStudyImages_rs1000x750g/Children/Faces_007_h.jpg,,,
,,5,3.1297,5,0.1039,6,1.9507,1,1.0756,6,0.9492,0,0,0,0,1,main,5,21,female,R,Donders,2021-07-08_13h39.22.270,ImageRatingTask_S3,2021.1.4,Win32,60.09976561,,,,,,,,,
,,,,,,,,,,,,0,1,1,1,1,second,5,21,female,R,Donders,2021-07-08_13h39.22.270,ImageRatingTask_S3,2021.1.4,Win32,60.09976561,,,,,,,,,
,,,,,,,,,,,,0,2,2,2,1,third,5,21,female,R,Donders,2021-07-08_13h39.22.270,ImageRatingTask_S3,2021.1.4,Win32,60.09976561,,,,,,,,,
,,,,,,,,,,,,0,3,3,3,1,fourth,5,21,female,R,Donders,2021-07-08_13h39.22.270,ImageRatingTask_S3,2021.1.4,Win32,60.09976561,,,,,,,,,
,,,,,,,,,,,,0,4,4,4,1,fifth,5,21,female,R,Donders,2021-07-08_13h39.22.270,ImageRatingTask_S3,2021.1.4,Win32,60.09976561,,,,,,,,,
,,,,,,,,,,,,0,5,5,5,1,sixth,5,21,female,R,Donders,2021-07-08_13h39.22.270,ImageRatingTask_S3,2021.1.4,Win32,60.09976561,,,,,,,,,
,,,,,,,,,,,,0,6,6,6,1,seventh,5,21,female,R,Donders,2021-07-08_13h39.22.270,ImageRatingTask_S3,2021.1.4,Win32,60.09976561,,,,,,,,,
,,,,,,,,,,,,0,7,7,7,1,last,5,21,female,R,Donders,2021-07-08_13h39.22.270,ImageRatingTask_S3,2021.1.4,Win32,60.09976561,,,,,,,,,
,,,,,,,,,,,,,,,,,,5,21,female,R,Donders,2021-07-08_13h39.22.270,ImageRatingTask_S3,2021.1.4,Win32,60.09976561,0,50,50,65,1,DreamStudyImages_rs1000x750g/Houses/Bar 2.jpg,,,
,,2,2.3235,5,1.7059,7,1.7869,1,1.7812,6,0.6972,0,0,0,0,1,main,5,21,female,R,Donders,2021-07-08_13h39.22.270,ImageRatingTask_S3,2021.1.4,Win32,60.09976561,,,,,,,,,
,,,,,,,,,,,,0,1,1,1,1,second,5,21,female,R,Donders,2021-07-08_13h39.22.270,ImageRatingTask_S3,2021.1.4,Win32,60.09976561,,,,,,,,,
,,,,,,,,,,,,0,2,2,2,1,third,5,21,female,R,Donders,2021-07-08_13h39.22.270,ImageRatingTask_S3,2021.1.4,Win32,60.09976561,,,,,,,,,
,,,,,,,,,,,,0,3,3,3,1,fourth,5,21,female,R,Donders,2021-07-08_13h39.22.270,ImageRatingTask_S3,2021.1.4,Win32,60.09976561,,,,,,,,,
,,,,,,,,,,,,0,4,4,4,1,fifth,5,21,female,R,Donders,2021-07-08_13h39.22.270,ImageRatingTask_S3,2021.1.4,Win32,60.09976561,,,,,,,,,
,,,,,,,,,,,,0,5,5,5,1,sixth,5,21,female,R,Donders,2021-07-08_13h39.22.270,ImageRatingTask_S3,2021.1.4,Win32,60.09976561,,,,,,,,,
,,,,,,,,,,,,0,6,6,6,1,seventh,5,21,female,R,Donders,2021-07-08_13h39.22.270,ImageRatingTask_S3,2021.1.4,Win32,60.09976561,,,,,,,,,
,,,,,,,,,,,,0,7,7,7,1,last,5,21,female,R,Donders,2021-07-08_13h39.22.270,ImageRatingTask_S3,2021.1.4,Win32,60.09976561,,,,,,,,,
,,,,,,,,,,,,,,,,,,5,21,female,R,Donders,2021-07-08_13h39.22.270,ImageRatingTask_S3,2021.1.4,Win32,60.09976561,0,51,51,104,1,DreamStudyImages_rs1000x750g/Houses/NDPS6_buildings3.jpg,,,
,,5,1.5997,5,0.0984,8,1.7695,1,0.7856,2,0.0462,0,0,0,0,1,main,5,21,female,R,Donders,2021-07-08_13h39.22.270,ImageRatingTask_S3,2021.1.4,Win32,60.09976561,,,,,,,,,
,,,,,,,,,,,,0,1,1,1,1,second,5,21,female,R,Donders,2021-07-08_13h39.22.270,ImageRatingTask_S3,2021.1.4,Win32,60.09976561,,,,,,,,,
,,,,,,,,,,,,0,2,2,2,1,third,5,21,female,R,Donders,2021-07-08_13h39.22.270,ImageRatingTask_S3,2021.1.4,Win32,60.09976561,,,,,,,,,
,,,,,,,,,,,,0,3,3,3,1,fourth,5,21,female,R,Donders,2021-07-08_13h39.22.270,ImageRatingTask_S3,2021.1.4,Win32,60.09976561,,,,,,,,,
,,,,,,,,,,,,0,4,4,4,1,fifth,5,21,female,R,Donders,2021-07-08_13h39.22.270,ImageRatingTask_S3,2021.1.4,Win32,60.09976561,,,,,,,,,
,,,,,,,,,,,,0,5,5,5,1,sixth,5,21,female,R,Donders,2021-07-08_13h39.22.270,ImageRatingTask_S3,2021.1.4,Win32,60.09976561,,,,,,,,,
,,,,,,,,,,,,0,6,6,6,1,seventh,5,21,female,R,Donders,2021-07-08_13h39.22.270,ImageRatingTask_S3,2021.1.4,Win32,60.09976561,,,,,,,,,
,,,,,,,,,,,,0,7,7,7,1,last,5,21,female,R,Donders,2021-07-08_13h39.22.270,ImageRatingTask_S3,2021.1.4,Win32,60.09976561,,,,,,,,,
,,,,,,,,,,,,,,,,,,5,21,female,R,Donders,2021-07-08_13h39.22.270,ImageRatingTask_S3,2021.1.4,Win32,60.09976561,0,52,52,117,1,DreamStudyImages_rs1000x750g/Children/NDPS136_hurtchild2_humans.jpg,,,
,,7,2.5142,3,1.8022,7,1.7715,1,0.7742,7,1.0672,0,0,0,0,1,main,5,21,female,R,Donders,2021-07-08_13h39.22.270,ImageRatingTask_S3,2021.1.4,Win32,60.09976561,,,,,,,,,
,,,,,,,,,,,,0,1,1,1,1,second,5,21,female,R,Donders,2021-07-08_13h39.22.270,ImageRatingTask_S3,2021.1.4,Win32,60.09976561,,,,,,,,,
,,,,,,,,,,,,0,2,2,2,1,third,5,21,female,R,Donders,2021-07-08_13h39.22.270,ImageRatingTask_S3,2021.1.4,Win32,60.09976561,,,,,,,,,
,,,,,,,,,,,,0,3,3,3,1,fourth,5,21,female,R,Donders,2021-07-08_13h39.22.270,ImageRatingTask_S3,2021.1.4,Win32,60.09976561,,,,,,,,,
,,,,,,,,,,,,0,4,4,4,1,fifth,5,21,female,R,Donders,2021-07-08_13h39.22.270,ImageRatingTask_S3,2021.1.4,Win32,60.09976561,,,,,,,,,
,,,,,,,,,,,,0,5,5,5,1,sixth,5,21,female,R,Donders,2021-07-08_13h39.22.270,ImageRatingTask_S3,2021.1.4,Win32,60.09976561,,,,,,,,,
,,,,,,,,,,,,0,6,6,6,1,seventh,5,21,female,R,Donders,2021-07-08_13h39.22.270,ImageRatingTask_S3,2021.1.4,Win32,60.09976561,,,,,,,,,
,,,,,,,,,,,,0,7,7,7,1,last,5,21,female,R,Donders,2021-07-08_13h39.22.270,ImageRatingTask_S3,2021.1.4,Win32,60.09976561,,,,,,,,,
,,,,,,,,,,,,,,,,,,5,21,female,R,Donders,2021-07-08_13h39.22.270,ImageRatingTask_S3,2021.1.4,Win32,60.09976561,0,53,53,157,1,DreamStudyImages_rs1000x750g/Water/sydneyopera.jpg,,,
,,9,4.0857,9,2.7252,7,2.7697,1,1.6073,3,0.8308,0,0,0,0,1,main,5,21,female,R,Donders,2021-07-08_13h39.22.270,ImageRatingTask_S3,2021.1.4,Win32,60.09976561,,,,,,,,,
,,,,,,,,,,,,0,1,1,1,1,second,5,21,female,R,Donders,2021-07-08_13h39.22.270,ImageRatingTask_S3,2021.1.4,Win32,60.09976561,,,,,,,,,
,,,,,,,,,,,,0,2,2,2,1,third,5,21,female,R,Donders,2021-07-08_13h39.22.270,ImageRatingTask_S3,2021.1.4,Win32,60.09976561,,,,,,,,,
,,,,,,,,,,,,0,3,3,3,1,fourth,5,21,female,R,Donders,2021-07-08_13h39.22.270,ImageRatingTask_S3,2021.1.4,Win32,60.09976561,,,,,,,,,
,,,,,,,,,,,,0,4,4,4,1,fifth,5,21,female,R,Donders,2021-07-08_13h39.22.270,ImageRatingTask_S3,2021.1.4,Win32,60.09976561,,,,,,,,,
,,,,,,,,,,,,0,5,5,5,1,sixth,5,21,female,R,Donders,2021-07-08_13h39.22.270,ImageRatingTask_S3,2021.1.4,Win32,60.09976561,,,,,,,,,
,,,,,,,,,,,,0,6,6,6,1,seventh,5,21,female,R,Donders,2021-07-08_13h39.22.270,ImageRatingTask_S3,2021.1.4,Win32,60.09976561,,,,,,,,,
,,,,,,,,,,,,0,7,7,7,1,last,5,21,female,R,Donders,2021-07-08_13h39.22.270,ImageRatingTask_S3,2021.1.4,Win32,60.09976561,,,,,,,,,
,,,,,,,,,,,,,,,,,,5,21,female,R,Donders,2021-07-08_13h39.22.270,ImageRatingTask_S3,2021.1.4,Win32,60.09976561,0,54,54,158,1,DreamStudyImages_rs1000x750g/Mammals/IAPS1710_puppies.jpg,,,
,,7,2.7871,3,1.8567,8,8.7994,1,2.3745,5,0.4149,0,0,0,0,1,main,5,21,female,R,Donders,2021-07-08_13h39.22.270,ImageRatingTask_S3,2021.1.4,Win32,60.09976561,,,,,,,,,
,,,,,,,,,,,,0,1,1,1,1,second,5,21,female,R,Donders,2021-07-08_13h39.22.270,ImageRatingTask_S3,2021.1.4,Win32,60.09976561,,,,,,,,,
,,,,,,,,,,,,0,2,2,2,1,third,5,21,female,R,Donders,2021-07-08_13h39.22.270,ImageRatingTask_S3,2021.1.4,Win32,60.09976561,,,,,,,,,
,,,,,,,,,,,,0,3,3,3,1,fourth,5,21,female,R,Donders,2021-07-08_13h39.22.270,ImageRatingTask_S3,2021.1.4,Win32,60.09976561,,,,,,,,,
,,,,,,,,,,,,0,4,4,4,1,fifth,5,21,female,R,Donders,2021-07-08_13h39.22.270,ImageRatingTask_S3,2021.1.4,Win32,60.09976561,,,,,,,,,
,,,,,,,,,,,,0,5,5,5,1,sixth,5,21,female,R,Donders,2021-07-08_13h39.22.270,ImageRatingTask_S3,2021.1.4,Win32,60.09976561,,,,,,,,,
,,,,,,,,,,,,0,6,6,6,1,seventh,5,21,female,R,Donders,2021-07-08_13h39.22.270,ImageRatingTask_S3,2021.1.4,Win32,60.09976561,,,,,,,,,
,,,,,,,,,,,,0,7,7,7,1,last,5,21,female,R,Donders,2021-07-08_13h39.22.270,ImageRatingTask_S3,2021.1.4,Win32,60.09976561,,,,,,,,,
,,,,,,,,,,,,,,,,,,5,21,female,R,Donders,2021-07-08_13h39.22.270,ImageRatingTask_S3,2021.1.4,Win32,60.09976561,0,55,55,81,1,DreamStudyImages_rs1000x750g/Food/Objects_100_v.jpg,,,
,,5,5.1573,5,0.0851,8,1.2402,1,1.1556,3,0.2371,0,0,0,0,1,main,5,21,female,R,Donders,2021-07-08_13h39.22.270,ImageRatingTask_S3,2021.1.4,Win32,60.09976561,,,,,,,,,
,,,,,,,,,,,,0,1,1,1,1,second,5,21,female,R,Donders,2021-07-08_13h39.22.270,ImageRatingTask_S3,2021.1.4,Win32,60.09976561,,,,,,,,,
,,,,,,,,,,,,0,2,2,2,1,third,5,21,female,R,Donders,2021-07-08_13h39.22.270,ImageRatingTask_S3,2021.1.4,Win32,60.09976561,,,,,,,,,
,,,,,,,,,,,,0,3,3,3,1,fourth,5,21,female,R,Donders,2021-07-08_13h39.22.270,ImageRatingTask_S3,2021.1.4,Win32,60.09976561,,,,,,,,,
,,,,,,,,,,,,0,4,4,4,1,fifth,5,21,female,R,Donders,2021-07-08_13h39.22.270,ImageRatingTask_S3,2021.1.4,Win32,60.09976561,,,,,,,,,
,,,,,,,,,,,,0,5,5,5,1,sixth,5,21,female,R,Donders,2021-07-08_13h39.22.270,ImageRatingTask_S3,2021.1.4,Win32,60.09976561,,,,,,,,,
,,,,,,,,,,,,0,6,6,6,1,seventh,5,21,female,R,Donders,2021-07-08_13h39.22.270,ImageRatingTask_S3,2021.1.4,Win32,60.09976561,,,,,,,,,
,,,,,,,,,,,,0,7,7,7,1,last,5,21,female,R,Donders,2021-07-08_13h39.22.270,ImageRatingTask_S3,2021.1.4,Win32,60.09976561,,,,,,,,,
,,,,,,,,,,,,,,,,,,5,21,female,R,Donders,2021-07-08_13h39.22.270,ImageRatingTask_S3,2021.1.4,Win32,60.09976561,0,56,56,74,1,DreamStudyImages_rs1000x750g/Mammals/Animals_113_h.jpg,,,
,,9,1.55,1,0.5382,8,1.4277,1,1.2544,8,0.7702,0,0,0,0,1,main,5,21,female,R,Donders,2021-07-08_13h39.22.270,ImageRatingTask_S3,2021.1.4,Win32,60.09976561,,,,,,,,,
,,,,,,,,,,,,0,1,1,1,1,second,5,21,female,R,Donders,2021-07-08_13h39.22.270,ImageRatingTask_S3,2021.1.4,Win32,60.09976561,,,,,,,,,
,,,,,,,,,,,,0,2,2,2,1,third,5,21,female,R,Donders,2021-07-08_13h39.22.270,ImageRatingTask_S3,2021.1.4,Win32,60.09976561,,,,,,,,,
,,,,,,,,,,,,0,3,3,3,1,fourth,5,21,female,R,Donders,2021-07-08_13h39.22.270,ImageRatingTask_S3,2021.1.4,Win32,60.09976561,,,,,,,,,
,,,,,,,,,,,,0,4,4,4,1,fifth,5,21,female,R,Donders,2021-07-08_13h39.22.270,ImageRatingTask_S3,2021.1.4,Win32,60.09976561,,,,,,,,,
,,,,,,,,,,,,0,5,5,5,1,sixth,5,21,female,R,Donders,2021-07-08_13h39.22.270,ImageRatingTask_S3,2021.1.4,Win32,60.09976561,,,,,,,,,
,,,,,,,,,,,,0,6,6,6,1,seventh,5,21,female,R,Donders,2021-07-08_13h39.22.270,ImageRatingTask_S3,2021.1.4,Win32,60.09976561,,,,,,,,,
,,,,,,,,,,,,0,7,7,7,1,last,5,21,female,R,Donders,2021-07-08_13h39.22.270,ImageRatingTask_S3,2021.1.4,Win32,60.09976561,,,,,,,,,
,,,,,,,,,,,,,,,,,,5,21,female,R,Donders,2021-07-08_13h39.22.270,ImageRatingTask_S3,2021.1.4,Win32,60.09976561,0,57,57,106,1,DreamStudyImages_rs1000x750g/Water/sunsetbeach.jpg,,,
,,9,3.6942,8,1.7625,8,1.3238,1,0.7615,5,0.7343,0,0,0,0,1,main,5,21,female,R,Donders,2021-07-08_13h39.22.270,ImageRatingTask_S3,2021.1.4,Win32,60.09976561,,,,,,,,,
,,,,,,,,,,,,0,1,1,1,1,second,5,21,female,R,Donders,2021-07-08_13h39.22.270,ImageRatingTask_S3,2021.1.4,Win32,60.09976561,,,,,,,,,
,,,,,,,,,,,,0,2,2,2,1,third,5,21,female,R,Donders,2021-07-08_13h39.22.270,ImageRatingTask_S3,2021.1.4,Win32,60.09976561,,,,,,,,,
,,,,,,,,,,,,0,3,3,3,1,fourth,5,21,female,R,Donders,2021-07-08_13h39.22.270,ImageRatingTask_S3,2021.1.4,Win32,60.09976561,,,,,,,,,
,,,,,,,,,,,,0,4,4,4,1,fifth,5,21,female,R,Donders,2021-07-08_13h39.22.270,ImageRatingTask_S3,2021.1.4,Win32,60.09976561,,,,,,,,,
,,,,,,,,,,,,0,5,5,5,1,sixth,5,21,female,R,Donders,2021-07-08_13h39.22.270,ImageRatingTask_S3,2021.1.4,Win32,60.09976561,,,,,,,,,
,,,,,,,,,,,,0,6,6,6,1,seventh,5,21,female,R,Donders,2021-07-08_13h39.22.270,ImageRatingTask_S3,2021.1.4,Win32,60.09976561,,,,,,,,,
,,,,,,,,,,,,0,7,7,7,1,last,5,21,female,R,Donders,2021-07-08_13h39.22.270,ImageRatingTask_S3,2021.1.4,Win32,60.09976561,,,,,,,,,
,,,,,,,,,,,,,,,,,,5,21,female,R,Donders,2021-07-08_13h39.22.270,ImageRatingTask_S3,2021.1.4,Win32,60.09976561,0,58,58,21,1,DreamStudyImages_rs1000x750g/Food/IAPS7461_fries2.jpg,,,
,,5,2.0554,5,0.5449,9,2.6208,1,1.0377,2,0.4848,0,0,0,0,1,main,5,21,female,R,Donders,2021-07-08_13h39.22.270,ImageRatingTask_S3,2021.1.4,Win32,60.09976561,,,,,,,,,
,,,,,,,,,,,,0,1,1,1,1,second,5,21,female,R,Donders,2021-07-08_13h39.22.270,ImageRatingTask_S3,2021.1.4,Win32,60.09976561,,,,,,,,,
,,,,,,,,,,,,0,2,2,2,1,third,5,21,female,R,Donders,2021-07-08_13h39.22.270,ImageRatingTask_S3,2021.1.4,Win32,60.09976561,,,,,,,,,
,,,,,,,,,,,,0,3,3,3,1,fourth,5,21,female,R,Donders,2021-07-08_13h39.22.270,ImageRatingTask_S3,2021.1.4,Win32,60.09976561,,,,,,,,,
,,,,,,,,,,,,0,4,4,4,1,fifth,5,21,female,R,Donders,2021-07-08_13h39.22.270,ImageRatingTask_S3,2021.1.4,Win32,60.09976561,,,,,,,,,
,,,,,,,,,,,,0,5,5,5,1,sixth,5,21,female,R,Donders,2021-07-08_13h39.22.270,ImageRatingTask_S3,2021.1.4,Win32,60.09976561,,,,,,,,,
,,,,,,,,,,,,0,6,6,6,1,seventh,5,21,female,R,Donders,2021-07-08_13h39.22.270,ImageRatingTask_S3,2021.1.4,Win32,60.09976561,,,,,,,,,
,,,,,,,,,,,,0,7,7,7,1,last,5,21,female,R,Donders,2021-07-08_13h39.22.270,ImageRatingTask_S3,2021.1.4,Win32,60.09976561,,,,,,,,,
,,,,,,,,,,,,,,,,,,5,21,female,R,Donders,2021-07-08_13h39.22.270,ImageRatingTask_S3,2021.1.4,Win32,60.09976561,0,59,59,50,1,DreamStudyImages_rs1000x750g/Children/Gazing 3.jpg,,,
,,3,2.7842,5,1.5518,7,1.5016,1,1.2047,6,0.477,0,0,0,0,1,main,5,21,female,R,Donders,2021-07-08_13h39.22.270,ImageRatingTask_S3,2021.1.4,Win32,60.09976561,,,,,,,,,
,,,,,,,,,,,,0,1,1,1,1,second,5,21,female,R,Donders,2021-07-08_13h39.22.270,ImageRatingTask_S3,2021.1.4,Win32,60.09976561,,,,,,,,,
,,,,,,,,,,,,0,2,2,2,1,third,5,21,female,R,Donders,2021-07-08_13h39.22.270,ImageRatingTask_S3,2021.1.4,Win32,60.09976561,,,,,,,,,
,,,,,,,,,,,,0,3,3,3,1,fourth,5,21,female,R,Donders,2021-07-08_13h39.22.270,ImageRatingTask_S3,2021.1.4,Win32,60.09976561,,,,,,,,,
,,,,,,,,,,,,0,4,4,4,1,fifth,5,21,female,R,Donders,2021-07-08_13h39.22.270,ImageRatingTask_S3,2021.1.4,Win32,60.09976561,,,,,,,,,
,,,,,,,,,,,,0,5,5,5,1,sixth,5,21,female,R,Donders,2021-07-08_13h39.22.270,ImageRatingTask_S3,2021.1.4,Win32,60.09976561,,,,,,,,,
,,,,,,,,,,,,0,6,6,6,1,seventh,5,21,female,R,Donders,2021-07-08_13h39.22.270,ImageRatingTask_S3,2021.1.4,Win32,60.09976561,,,,,,,,,
,,,,,,,,,,,,0,7,7,7,1,last,5,21,female,R,Donders,2021-07-08_13h39.22.270,ImageRatingTask_S3,2021.1.4,Win32,60.09976561,,,,,,,,,
,,,,,,,,,,,,,,,,,,5,21,female,R,Donders,2021-07-08_13h39.22.270,ImageRatingTask_S3,2021.1.4,Win32,60.09976561,0,60,60,125,1,DreamStudyImages_rs1000x750g/Houses/NDPS11_buildings4.jpg,,,
,,7,2.1466,4,1.3683,8,1.6557,1,0.8721,5,0.8501,0,0,0,0,1,main,5,21,female,R,Donders,2021-07-08_13h39.22.270,ImageRatingTask_S3,2021.1.4,Win32,60.09976561,,,,,,,,,
,,,,,,,,,,,,0,1,1,1,1,second,5,21,female,R,Donders,2021-07-08_13h39.22.270,ImageRatingTask_S3,2021.1.4,Win32,60.09976561,,,,,,,,,
,,,,,,,,,,,,0,2,2,2,1,third,5,21,female,R,Donders,2021-07-08_13h39.22.270,ImageRatingTask_S3,2021.1.4,Win32,60.09976561,,,,,,,,,
,,,,,,,,,,,,0,3,3,3,1,fourth,5,21,female,R,Donders,2021-07-08_13h39.22.270,ImageRatingTask_S3,2021.1.4,Win32,60.09976561,,,,,,,,,
,,,,,,,,,,,,0,4,4,4,1,fifth,5,21,female,R,Donders,2021-07-08_13h39.22.270,ImageRatingTask_S3,2021.1.4,Win32,60.09976561,,,,,,,,,
,,,,,,,,,,,,0,5,5,5,1,sixth,5,21,female,R,Donders,2021-07-08_13h39.22.270,ImageRatingTask_S3,2021.1.4,Win32,60.09976561,,,,,,,,,
,,,,,,,,,,,,0,6,6,6,1,seventh,5,21,female,R,Donders,2021-07-08_13h39.22.270,ImageRatingTask_S3,2021.1.4,Win32,60.09976561,,,,,,,,,
,,,,,,,,,,,,0,7,7,7,1,last,5,21,female,R,Donders,2021-07-08_13h39.22.270,ImageRatingTask_S3,2021.1.4,Win32,60.09976561,,,,,,,,,
,,,,,,,,,,,,,,,,,,5,21,female,R,Donders,2021-07-08_13h39.22.270,ImageRatingTask_S3,2021.1.4,Win32,60.09976561,0,61,61,3,1,DreamStudyImages_rs1000x750g/Food/IAPS7472_fruitbasket3.jpg,,,
,,5,6.1522,5,0.0865,8,1.7378,0,1.6205,,,0,0,0,0,1,main,5,21,female,R,Donders,2021-07-08_13h39.22.270,ImageRatingTask_S3,2021.1.4,Win32,60.09976561,,,,,,,,,
,,,,,,,,,,,,0,1,1,1,1,second,5,21,female,R,Donders,2021-07-08_13h39.22.270,ImageRatingTask_S3,2021.1.4,Win32,60.09976561,,,,,,,,,
,,,,,,,,,,,,0,2,2,2,1,third,5,21,female,R,Donders,2021-07-08_13h39.22.270,ImageRatingTask_S3,2021.1.4,Win32,60.09976561,,,,,,,,,
,,,,,,,,,,,,0,3,3,3,1,fourth,5,21,female,R,Donders,2021-07-08_13h39.22.270,ImageRatingTask_S3,2021.1.4,Win32,60.09976561,,,,,,,,,
,,,,,,,,,,,,0,4,4,4,1,fifth,5,21,female,R,Donders,2021-07-08_13h39.22.270,ImageRatingTask_S3,2021.1.4,Win32,60.09976561,,,,,,,,,
,,,,,,,,,,,,0,5,5,5,1,sixth,5,21,female,R,Donders,2021-07-08_13h39.22.270,ImageRatingTask_S3,2021.1.4,Win32,60.09976561,,,,,,,,,
,,,,,,,,,,,,0,6,6,6,1,seventh,5,21,female,R,Donders,2021-07-08_13h39.22.270,ImageRatingTask_S3,2021.1.4,Win32,60.09976561,,,,,,,,,
,,,,,,,,,,,,0,7,7,7,1,last,5,21,female,R,Donders,2021-07-08_13h39.22.270,ImageRatingTask_S3,2021.1.4,Win32,60.09976561,,,,,,,,,
,,,,,,,,,,,,,,,,,,5,21,female,R,Donders,2021-07-08_13h39.22.270,ImageRatingTask_S3,2021.1.4,Win32,60.09976561,0,62,62,149,1,DreamStudyImages_rs1000x750g/Houses/Wedding 12.jpg,,,
,,6,4.666,5,2.5019,8,2.4532,1,1.161,5,0.3704,0,0,0,0,1,main,5,21,female,R,Donders,2021-07-08_13h39.22.270,ImageRatingTask_S3,2021.1.4,Win32,60.09976561,,,,,,,,,
,,,,,,,,,,,,0,1,1,1,1,second,5,21,female,R,Donders,2021-07-08_13h39.22.270,ImageRatingTask_S3,2021.1.4,Win32,60.09976561,,,,,,,,,
,,,,,,,,,,,,0,2,2,2,1,third,5,21,female,R,Donders,2021-07-08_13h39.22.270,ImageRatingTask_S3,2021.1.4,Win32,60.09976561,,,,,,,,,
,,,,,,,,,,,,0,3,3,3,1,fourth,5,21,female,R,Donders,2021-07-08_13h39.22.270,ImageRatingTask_S3,2021.1.4,Win32,60.09976561,,,,,,,,,
,,,,,,,,,,,,0,4,4,4,1,fifth,5,21,female,R,Donders,2021-07-08_13h39.22.270,ImageRatingTask_S3,2021.1.4,Win32,60.09976561,,,,,,,,,
,,,,,,,,,,,,0,5,5,5,1,sixth,5,21,female,R,Donders,2021-07-08_13h39.22.270,ImageRatingTask_S3,2021.1.4,Win32,60.09976561,,,,,,,,,
,,,,,,,,,,,,0,6,6,6,1,seventh,5,21,female,R,Donders,2021-07-08_13h39.22.270,ImageRatingTask_S3,2021.1.4,Win32,60.09976561,,,,,,,,,
,,,,,,,,,,,,0,7,7,7,1,last,5,21,female,R,Donders,2021-07-08_13h39.22.270,ImageRatingTask_S3,2021.1.4,Win32,60.09976561,,,,,,,,,
,,,,,,,,,,,,,,,,,,5,21,female,R,Donders,2021-07-08_13h39.22.270,ImageRatingTask_S3,2021.1.4,Win32,60.09976561,0,63,63,55,1,DreamStudyImages_rs1000x750g/Food/IAPS7281_skewers.jpg,,,
,,7,4.3534,2,1.3768,7,3.0311,1,1.4543,8,0.2531,0,0,0,0,1,main,5,21,female,R,Donders,2021-07-08_13h39.22.270,ImageRatingTask_S3,2021.1.4,Win32,60.09976561,,,,,,,,,
,,,,,,,,,,,,0,1,1,1,1,second,5,21,female,R,Donders,2021-07-08_13h39.22.270,ImageRatingTask_S3,2021.1.4,Win32,60.09976561,,,,,,,,,
,,,,,,,,,,,,0,2,2,2,1,third,5,21,female,R,Donders,2021-07-08_13h39.22.270,ImageRatingTask_S3,2021.1.4,Win32,60.09976561,,,,,,,,,
,,,,,,,,,,,,0,3,3,3,1,fourth,5,21,female,R,Donders,2021-07-08_13h39.22.270,ImageRatingTask_S3,2021.1.4,Win32,60.09976561,,,,,,,,,
,,,,,,,,,,,,0,4,4,4,1,fifth,5,21,female,R,Donders,2021-07-08_13h39.22.270,ImageRatingTask_S3,2021.1.4,Win32,60.09976561,,,,,,,,,
,,,,,,,,,,,,0,5,5,5,1,sixth,5,21,female,R,Donders,2021-07-08_13h39.22.270,ImageRatingTask_S3,2021.1.4,Win32,60.09976561,,,,,,,,,
,,,,,,,,,,,,0,6,6,6,1,seventh,5,21,female,R,Donders,2021-07-08_13h39.22.270,ImageRatingTask_S3,2021.1.4,Win32,60.09976561,,,,,,,,,
,,,,,,,,,,,,0,7,7,7,1,last,5,21,female,R,Donders,2021-07-08_13h39.22.270,ImageRatingTask_S3,2021.1.4,Win32,60.09976561,,,,,,,,,
,,,,,,,,,,,,,,,,,,5,21,female,R,Donders,2021-07-08_13h39.22.270,ImageRatingTask_S3,2021.1.4,Win32,60.09976561,0,64,64,143,1,DreamStudyImages_rs1000x750g/Water/Lake 2.jpg,,,
,,1,3.6391,6,3.648,9,3.2879,1,7.3048,5,1.2515,0,0,0,0,1,main,5,21,female,R,Donders,2021-07-08_13h39.22.270,ImageRatingTask_S3,2021.1.4,Win32,60.09976561,,,,,,,,,
,,,,,,,,,,,,0,1,1,1,1,second,5,21,female,R,Donders,2021-07-08_13h39.22.270,ImageRatingTask_S3,2021.1.4,Win32,60.09976561,,,,,,,,,
,,,,,,,,,,,,0,2,2,2,1,third,5,21,female,R,Donders,2021-07-08_13h39.22.270,ImageRatingTask_S3,2021.1.4,Win32,60.09976561,,,,,,,,,
,,,,,,,,,,,,0,3,3,3,1,fourth,5,21,female,R,Donders,2021-07-08_13h39.22.270,ImageRatingTask_S3,2021.1.4,Win32,60.09976561,,,,,,,,,
,,,,,,,,,,,,0,4,4,4,1,fifth,5,21,female,R,Donders,2021-07-08_13h39.22.270,ImageRatingTask_S3,2021.1.4,Win32,60.09976561,,,,,,,,,
,,,,,,,,,,,,0,5,5,5,1,sixth,5,21,female,R,Donders,2021-07-08_13h39.22.270,ImageRatingTask_S3,2021.1.4,Win32,60.09976561,,,,,,,,,
,,,,,,,,,,,,0,6,6,6,1,seventh,5,21,female,R,Donders,2021-07-08_13h39.22.270,ImageRatingTask_S3,2021.1.4,Win32,60.09976561,,,,,,,,,
,,,,,,,,,,,,0,7,7,7,1,last,5,21,female,R,Donders,2021-07-08_13h39.22.270,ImageRatingTask_S3,2021.1.4,Win32,60.09976561,,,,,,,,,
,,,,,,,,,,,,,,,,,,5,21,female,R,Donders,2021-07-08_13h39.22.270,ImageRatingTask_S3,2021.1.4,Win32,60.09976561,0,65,65,144,1,DreamStudyImages_rs1000x750g/Food/food_neg_4bis.jpg,,,
,,6,2.7935,4,1.6084,8,1.6219,1,0.6071,8,1.3352,0,0,0,0,1,main,5,21,female,R,Donders,2021-07-08_13h39.22.270,ImageRatingTask_S3,2021.1.4,Win32,60.09976561,,,,,,,,,
,,,,,,,,,,,,0,1,1,1,1,second,5,21,female,R,Donders,2021-07-08_13h39.22.270,ImageRatingTask_S3,2021.1.4,Win32,60.09976561,,,,,,,,,
,,,,,,,,,,,,0,2,2,2,1,third,5,21,female,R,Donders,2021-07-08_13h39.22.270,ImageRatingTask_S3,2021.1.4,Win32,60.09976561,,,,,,,,,
,,,,,,,,,,,,0,3,3,3,1,fourth,5,21,female,R,Donders,2021-07-08_13h39.22.270,ImageRatingTask_S3,2021.1.4,Win32,60.09976561,,,,,,,,,
,,,,,,,,,,,,0,4,4,4,1,fifth,5,21,female,R,Donders,2021-07-08_13h39.22.270,ImageRatingTask_S3,2021.1.4,Win32,60.09976561,,,,,,,,,
,,,,,,,,,,,,0,5,5,5,1,sixth,5,21,female,R,Donders,2021-07-08_13h39.22.270,ImageRatingTask_S3,2021.1.4,Win32,60.09976561,,,,,,,,,
,,,,,,,,,,,,0,6,6,6,1,seventh,5,21,female,R,Donders,2021-07-08_13h39.22.270,ImageRatingTask_S3,2021.1.4,Win32,60.09976561,,,,,,,,,
,,,,,,,,,,,,0,7,7,7,1,last,5,21,female,R,Donders,2021-07-08_13h39.22.270,ImageRatingTask_S3,2021.1.4,Win32,60.09976561,,,,,,,,,
,,,,,,,,,,,,,,,,,,5,21,female,R,Donders,2021-07-08_13h39.22.270,ImageRatingTask_S3,2021.1.4,Win32,60.09976561,0,66,66,146,1,DreamStudyImages_rs1000x750g/Water/Landscapes_169_h.jpg,,,
,,9,1.7432,1,1.9584,8,2.0648,1,0.7208,8,0.695,0,0,0,0,1,main,5,21,female,R,Donders,2021-07-08_13h39.22.270,ImageRatingTask_S3,2021.1.4,Win32,60.09976561,,,,,,,,,
,,,,,,,,,,,,0,1,1,1,1,second,5,21,female,R,Donders,2021-07-08_13h39.22.270,ImageRatingTask_S3,2021.1.4,Win32,60.09976561,,,,,,,,,
,,,,,,,,,,,,0,2,2,2,1,third,5,21,female,R,Donders,2021-07-08_13h39.22.270,ImageRatingTask_S3,2021.1.4,Win32,60.09976561,,,,,,,,,
,,,,,,,,,,,,0,3,3,3,1,fourth,5,21,female,R,Donders,2021-07-08_13h39.22.270,ImageRatingTask_S3,2021.1.4,Win32,60.09976561,,,,,,,,,
,,,,,,,,,,,,0,4,4,4,1,fifth,5,21,female,R,Donders,2021-07-08_13h39.22.270,ImageRatingTask_S3,2021.1.4,Win32,60.09976561,,,,,,,,,
,,,,,,,,,,,,0,5,5,5,1,sixth,5,21,female,R,Donders,2021-07-08_13h39.22.270,ImageRatingTask_S3,2021.1.4,Win32,60.09976561,,,,,,,,,
,,,,,,,,,,,,0,6,6,6,1,seventh,5,21,female,R,Donders,2021-07-08_13h39.22.270,ImageRatingTask_S3,2021.1.4,Win32,60.09976561,,,,,,,,,
,,,,,,,,,,,,0,7,7,7,1,last,5,21,female,R,Donders,2021-07-08_13h39.22.270,ImageRatingTask_S3,2021.1.4,Win32,60.09976561,,,,,,,,,
,,,,,,,,,,,,,,,,,,5,21,female,R,Donders,2021-07-08_13h39.22.270,ImageRatingTask_S3,2021.1.4,Win32,60.09976561,0,67,67,10,1,DreamStudyImages_rs1000x750g/Water/Landscapes_121_h.jpg,,,
,,5,1.9226,5,0.1673,8,1.2314,1,1.1622,7,0.2065,0,0,0,0,1,main,5,21,female,R,Donders,2021-07-08_13h39.22.270,ImageRatingTask_S3,2021.1.4,Win32,60.09976561,,,,,,,,,
,,,,,,,,,,,,0,1,1,1,1,second,5,21,female,R,Donders,2021-07-08_13h39.22.270,ImageRatingTask_S3,2021.1.4,Win32,60.09976561,,,,,,,,,
,,,,,,,,,,,,0,2,2,2,1,third,5,21,female,R,Donders,2021-07-08_13h39.22.270,ImageRatingTask_S3,2021.1.4,Win32,60.09976561,,,,,,,,,
,,,,,,,,,,,,0,3,3,3,1,fourth,5,21,female,R,Donders,2021-07-08_13h39.22.270,ImageRatingTask_S3,2021.1.4,Win32,60.09976561,,,,,,,,,
,,,,,,,,,,,,0,4,4,4,1,fifth,5,21,female,R,Donders,2021-07-08_13h39.22.270,ImageRatingTask_S3,2021.1.4,Win32,60.09976561,,,,,,,,,
,,,,,,,,,,,,0,5,5,5,1,sixth,5,21,female,R,Donders,2021-07-08_13h39.22.270,ImageRatingTask_S3,2021.1.4,Win32,60.09976561,,,,,,,,,
,,,,,,,,,,,,0,6,6,6,1,seventh,5,21,female,R,Donders,2021-07-08_13h39.22.270,ImageRatingTask_S3,2021.1.4,Win32,60.09976561,,,,,,,,,
,,,,,,,,,,,,0,7,7,7,1,last,5,21,female,R,Donders,2021-07-08_13h39.22.270,ImageRatingTask_S3,2021.1.4,Win32,60.09976561,,,,,,,,,
,,,,,,,,,,,,,,,,,,5,21,female,R,Donders,2021-07-08_13h39.22.270,ImageRatingTask_S3,2021.1.4,Win32,60.09976561,0,68,68,87,1,DreamStudyImages_rs1000x750g/Vehicles/Objects_291_h.jpg,,,
,,7,3.2128,3,1.45,8,1.5935,1,1.3578,8,0.4354,0,0,0,0,1,main,5,21,female,R,Donders,2021-07-08_13h39.22.270,ImageRatingTask_S3,2021.1.4,Win32,60.09976561,,,,,,,,,
,,,,,,,,,,,,0,1,1,1,1,second,5,21,female,R,Donders,2021-07-08_13h39.22.270,ImageRatingTask_S3,2021.1.4,Win32,60.09976561,,,,,,,,,
,,,,,,,,,,,,0,2,2,2,1,third,5,21,female,R,Donders,2021-07-08_13h39.22.270,ImageRatingTask_S3,2021.1.4,Win32,60.09976561,,,,,,,,,
,,,,,,,,,,,,0,3,3,3,1,fourth,5,21,female,R,Donders,2021-07-08_13h39.22.270,ImageRatingTask_S3,2021.1.4,Win32,60.09976561,,,,,,,,,
,,,,,,,,,,,,0,4,4,4,1,fifth,5,21,female,R,Donders,2021-07-08_13h39.22.270,ImageRatingTask_S3,2021.1.4,Win32,60.09976561,,,,,,,,,
,,,,,,,,,,,,0,5,5,5,1,sixth,5,21,female,R,Donders,2021-07-08_13h39.22.270,ImageRatingTask_S3,2021.1.4,Win32,60.09976561,,,,,,,,,
,,,,,,,,,,,,0,6,6,6,1,seventh,5,21,female,R,Donders,2021-07-08_13h39.22.270,ImageRatingTask_S3,2021.1.4,Win32,60.09976561,,,,,,,,,
,,,,,,,,,,,,0,7,7,7,1,last,5,21,female,R,Donders,2021-07-08_13h39.22.270,ImageRatingTask_S3,2021.1.4,Win32,60.09976561,,,,,,,,,
,,,,,,,,,,,,,,,,,,5,21,female,R,Donders,2021-07-08_13h39.22.270,ImageRatingTask_S3,2021.1.4,Win32,60.09976561,0,69,69,77,1,DreamStudyImages_rs1000x750g/Water/waterneutral2.jpg,,,
,,6,2.3591,5,1.1899,7,1.7116,1,0.6281,3,0.7669,0,0,0,0,1,main,5,21,female,R,Donders,2021-07-08_13h39.22.270,ImageRatingTask_S3,2021.1.4,Win32,60.09976561,,,,,,,,,
,,,,,,,,,,,,0,1,1,1,1,second,5,21,female,R,Donders,2021-07-08_13h39.22.270,ImageRatingTask_S3,2021.1.4,Win32,60.09976561,,,,,,,,,
,,,,,,,,,,,,0,2,2,2,1,third,5,21,female,R,Donders,2021-07-08_13h39.22.270,ImageRatingTask_S3,2021.1.4,Win32,60.09976561,,,,,,,,,
,,,,,,,,,,,,0,3,3,3,1,fourth,5,21,female,R,Donders,2021-07-08_13h39.22.270,ImageRatingTask_S3,2021.1.4,Win32,60.09976561,,,,,,,,,
,,,,,,,,,,,,0,4,4,4,1,fifth,5,21,female,R,Donders,2021-07-08_13h39.22.270,ImageRatingTask_S3,2021.1.4,Win32,60.09976561,,,,,,,,,
,,,,,,,,,,,,0,5,5,5,1,sixth,5,21,female,R,Donders,2021-07-08_13h39.22.270,ImageRatingTask_S3,2021.1.4,Win32,60.09976561,,,,,,,,,
,,,,,,,,,,,,0,6,6,6,1,seventh,5,21,female,R,Donders,2021-07-08_13h39.22.270,ImageRatingTask_S3,2021.1.4,Win32,60.09976561,,,,,,,,,
,,,,,,,,,,,,0,7,7,7,1,last,5,21,female,R,Donders,2021-07-08_13h39.22.270,ImageRatingTask_S3,2021.1.4,Win32,60.09976561,,,,,,,,,
,,,,,,,,,,,,,,,,,,5,21,female,R,Donders,2021-07-08_13h39.22.270,ImageRatingTask_S3,2021.1.4,Win32,60.09976561,0,70,70,6,1,DreamStudyImages_rs1000x750g/Mammals/Cat 6.jpg,,,
,,3,4.2327,5,1.6106,7,1.5775,1,0.7905,3,0.7679,0,0,0,0,1,main,5,21,female,R,Donders,2021-07-08_13h39.22.270,ImageRatingTask_S3,2021.1.4,Win32,60.09976561,,,,,,,,,
,,,,,,,,,,,,0,1,1,1,1,second,5,21,female,R,Donders,2021-07-08_13h39.22.270,ImageRatingTask_S3,2021.1.4,Win32,60.09976561,,,,,,,,,
,,,,,,,,,,,,0,2,2,2,1,third,5,21,female,R,Donders,2021-07-08_13h39.22.270,ImageRatingTask_S3,2021.1.4,Win32,60.09976561,,,,,,,,,
,,,,,,,,,,,,0,3,3,3,1,fourth,5,21,female,R,Donders,2021-07-08_13h39.22.270,ImageRatingTask_S3,2021.1.4,Win32,60.09976561,,,,,,,,,
,,,,,,,,,,,,0,4,4,4,1,fifth,5,21,female,R,Donders,2021-07-08_13h39.22.270,ImageRatingTask_S3,2021.1.4,Win32,60.09976561,,,,,,,,,
,,,,,,,,,,,,0,5,5,5,1,sixth,5,21,female,R,Donders,2021-07-08_13h39.22.270,ImageRatingTask_S3,2021.1.4,Win32,60.09976561,,,,,,,,,
,,,,,,,,,,,,0,6,6,6,1,seventh,5,21,female,R,Donders,2021-07-08_13h39.22.270,ImageRatingTask_S3,2021.1.4,Win32,60.09976561,,,,,,,,,
,,,,,,,,,,,,0,7,7,7,1,last,5,21,female,R,Donders,2021-07-08_13h39.22.270,ImageRatingTask_S3,2021.1.4,Win32,60.09976561,,,,,,,,,
,,,,,,,,,,,,,,,,,,5,21,female,R,Donders,2021-07-08_13h39.22.270,ImageRatingTask_S3,2021.1.4,Win32,60.09976561,0,71,71,37,1,DreamStudyImages_rs1000x750g/Mammals/Animal carcass 4.jpg,,,
,,5,1.726,5,0.1058,7,2.0031,1,0.8224,7,0.6561,0,0,0,0,1,main,5,21,female,R,Donders,2021-07-08_13h39.22.270,ImageRatingTask_S3,2021.1.4,Win32,60.09976561,,,,,,,,,
,,,,,,,,,,,,0,1,1,1,1,second,5,21,female,R,Donders,2021-07-08_13h39.22.270,ImageRatingTask_S3,2021.1.4,Win32,60.09976561,,,,,,,,,
,,,,,,,,,,,,0,2,2,2,1,third,5,21,female,R,Donders,2021-07-08_13h39.22.270,ImageRatingTask_S3,2021.1.4,Win32,60.09976561,,,,,,,,,
,,,,,,,,,,,,0,3,3,3,1,fourth,5,21,female,R,Donders,2021-07-08_13h39.22.270,ImageRatingTask_S3,2021.1.4,Win32,60.09976561,,,,,,,,,
,,,,,,,,,,,,0,4,4,4,1,fifth,5,21,female,R,Donders,2021-07-08_13h39.22.270,ImageRatingTask_S3,2021.1.4,Win32,60.09976561,,,,,,,,,
,,,,,,,,,,,,0,5,5,5,1,sixth,5,21,female,R,Donders,2021-07-08_13h39.22.270,ImageRatingTask_S3,2021.1.4,Win32,60.09976561,,,,,,,,,
,,,,,,,,,,,,0,6,6,6,1,seventh,5,21,female,R,Donders,2021-07-08_13h39.22.270,ImageRatingTask_S3,2021.1.4,Win32,60.09976561,,,,,,,,,
,,,,,,,,,,,,0,7,7,7,1,last,5,21,female,R,Donders,2021-07-08_13h39.22.270,ImageRatingTask_S3,2021.1.4,Win32,60.09976561,,,,,,,,,
,,,,,,,,,,,,,,,,,,5,21,female,R,Donders,2021-07-08_13h39.22.270,ImageRatingTask_S3,2021.1.4,Win32,60.09976561,0,72,72,39,1,DreamStudyImages_rs1000x750g/Vehicles/Objects_293_h.jpg,,,
,,5,1.3983,5,0.1081,8,1.8271,1,0.9341,2,0.0158,0,0,0,0,1,main,5,21,female,R,Donders,2021-07-08_13h39.22.270,ImageRatingTask_S3,2021.1.4,Win32,60.09976561,,,,,,,,,
,,,,,,,,,,,,0,1,1,1,1,second,5,21,female,R,Donders,2021-07-08_13h39.22.270,ImageRatingTask_S3,2021.1.4,Win32,60.09976561,,,,,,,,,
,,,,,,,,,,,,0,2,2,2,1,third,5,21,female,R,Donders,2021-07-08_13h39.22.270,ImageRatingTask_S3,2021.1.4,Win32,60.09976561,,,,,,,,,
,,,,,,,,,,,,0,3,3,3,1,fourth,5,21,female,R,Donders,2021-07-08_13h39.22.270,ImageRatingTask_S3,2021.1.4,Win32,60.09976561,,,,,,,,,
,,,,,,,,,,,,0,4,4,4,1,fifth,5,21,female,R,Donders,2021-07-08_13h39.22.270,ImageRatingTask_S3,2021.1.4,Win32,60.09976561,,,,,,,,,
,,,,,,,,,,,,0,5,5,5,1,sixth,5,21,female,R,Donders,2021-07-08_13h39.22.270,ImageRatingTask_S3,2021.1.4,Win32,60.09976561,,,,,,,,,
,,,,,,,,,,,,0,6,6,6,1,seventh,5,21,female,R,Donders,2021-07-08_13h39.22.270,ImageRatingTask_S3,2021.1.4,Win32,60.09976561,,,,,,,,,
,,,,,,,,,,,,0,7,7,7,1,last,5,21,female,R,Donders,2021-07-08_13h39.22.270,ImageRatingTask_S3,2021.1.4,Win32,60.09976561,,,,,,,,,
,,,,,,,,,,,,,,,,,,5,21,female,R,Donders,2021-07-08_13h39.22.270,ImageRatingTask_S3,2021.1.4,Win32,60.09976561,0,73,73,93,1,DreamStudyImages_rs1000x750g/Children/Faces_120_h.jpg,,,
,,8,2.8181,7,2.1772,8,1.7614,1,1.2895,5,0.3854,0,0,0,0,1,main,5,21,female,R,Donders,2021-07-08_13h39.22.270,ImageRatingTask_S3,2021.1.4,Win32,60.09976561,,,,,,,,,
,,,,,,,,,,,,0,1,1,1,1,second,5,21,female,R,Donders,2021-07-08_13h39.22.270,ImageRatingTask_S3,2021.1.4,Win32,60.09976561,,,,,,,,,
,,,,,,,,,,,,0,2,2,2,1,third,5,21,female,R,Donders,2021-07-08_13h39.22.270,ImageRatingTask_S3,2021.1.4,Win32,60.09976561,,,,,,,,,
,,,,,,,,,,,,0,3,3,3,1,fourth,5,21,female,R,Donders,2021-07-08_13h39.22.270,ImageRatingTask_S3,2021.1.4,Win32,60.09976561,,,,,,,,,
,,,,,,,,,,,,0,4,4,4,1,fifth,5,21,female,R,Donders,2021-07-08_13h39.22.270,ImageRatingTask_S3,2021.1.4,Win32,60.09976561,,,,,,,,,
,,,,,,,,,,,,0,5,5,5,1,sixth,5,21,female,R,Donders,2021-07-08_13h39.22.270,ImageRatingTask_S3,2021.1.4,Win32,60.09976561,,,,,,,,,
,,,,,,,,,,,,0,6,6,6,1,seventh,5,21,female,R,Donders,2021-07-08_13h39.22.270,ImageRatingTask_S3,2021.1.4,Win32,60.09976561,,,,,,,,,
,,,,,,,,,,,,0,7,7,7,1,last,5,21,female,R,Donders,2021-07-08_13h39.22.270,ImageRatingTask_S3,2021.1.4,Win32,60.09976561,,,,,,,,,
,,,,,,,,,,,,,,,,,,5,21,female,R,Donders,2021-07-08_13h39.22.270,ImageRatingTask_S3,2021.1.4,Win32,60.09976561,0,74,74,142,1,DreamStudyImages_rs1000x750g/Food/IAPS7405_cupcakes.jpg,,,
,,2,4.7075,7,4.1451,8,1.6713,2,1.8041,8,1.8508,0,0,0,0,1,main,5,21,female,R,Donders,2021-07-08_13h39.22.270,ImageRatingTask_S3,2021.1.4,Win32,60.09976561,,,,,,,,,
,,,,,,,,,,6,0.6198,0,1,1,1,1,second,5,21,female,R,Donders,2021-07-08_13h39.22.270,ImageRatingTask_S3,2021.1.4,Win32,60.09976561,,,,,,,,,
,,,,,,,,,,,,0,2,2,2,1,third,5,21,female,R,Donders,2021-07-08_13h39.22.270,ImageRatingTask_S3,2021.1.4,Win32,60.09976561,,,,,,,,,
,,,,,,,,,,,,0,3,3,3,1,fourth,5,21,female,R,Donders,2021-07-08_13h39.22.270,ImageRatingTask_S3,2021.1.4,Win32,60.09976561,,,,,,,,,
,,,,,,,,,,,,0,4,4,4,1,fifth,5,21,female,R,Donders,2021-07-08_13h39.22.270,ImageRatingTask_S3,2021.1.4,Win32,60.09976561,,,,,,,,,
,,,,,,,,,,,,0,5,5,5,1,sixth,5,21,female,R,Donders,2021-07-08_13h39.22.270,ImageRatingTask_S3,2021.1.4,Win32,60.09976561,,,,,,,,,
,,,,,,,,,,,,0,6,6,6,1,seventh,5,21,female,R,Donders,2021-07-08_13h39.22.270,ImageRatingTask_S3,2021.1.4,Win32,60.09976561,,,,,,,,,
,,,,,,,,,,,,0,7,7,7,1,last,5,21,female,R,Donders,2021-07-08_13h39.22.270,ImageRatingTask_S3,2021.1.4,Win32,60.09976561,,,,,,,,,
,,,,,,,,,,,,,,,,,,5,21,female,R,Donders,2021-07-08_13h39.22.270,ImageRatingTask_S3,2021.1.4,Win32,60.09976561,0,75,75,2,1,DreamStudyImages_rs1000x750g/Water/15.jpg,,,
,,9,1.7225,3,2.2558,7,1.7952,1,1.2228,3,0.1027,0,0,0,0,1,main,5,21,female,R,Donders,2021-07-08_13h39.22.270,ImageRatingTask_S3,2021.1.4,Win32,60.09976561,,,,,,,,,
,,,,,,,,,,,,0,1,1,1,1,second,5,21,female,R,Donders,2021-07-08_13h39.22.270,ImageRatingTask_S3,2021.1.4,Win32,60.09976561,,,,,,,,,
,,,,,,,,,,,,0,2,2,2,1,third,5,21,female,R,Donders,2021-07-08_13h39.22.270,ImageRatingTask_S3,2021.1.4,Win32,60.09976561,,,,,,,,,
,,,,,,,,,,,,0,3,3,3,1,fourth,5,21,female,R,Donders,2021-07-08_13h39.22.270,ImageRatingTask_S3,2021.1.4,Win32,60.09976561,,,,,,,,,
,,,,,,,,,,,,0,4,4,4,1,fifth,5,21,female,R,Donders,2021-07-08_13h39.22.270,ImageRatingTask_S3,2021.1.4,Win32,60.09976561,,,,,,,,,
,,,,,,,,,,,,0,5,5,5,1,sixth,5,21,female,R,Donders,2021-07-08_13h39.22.270,ImageRatingTask_S3,2021.1.4,Win32,60.09976561,,,,,,,,,
,,,,,,,,,,,,0,6,6,6,1,seventh,5,21,female,R,Donders,2021-07-08_13h39.22.270,ImageRatingTask_S3,2021.1.4,Win32,60.09976561,,,,,,,,,
,,,,,,,,,,,,0,7,7,7,1,last,5,21,female,R,Donders,2021-07-08_13h39.22.270,ImageRatingTask_S3,2021.1.4,Win32,60.09976561,,,,,,,,,
,,,,,,,,,,,,,,,,,,5,21,female,R,Donders,2021-07-08_13h39.22.270,ImageRatingTask_S3,2021.1.4,Win32,60.09976561,0,76,76,1,1,DreamStudyImages_rs1000x750g/Mammals/1410.jpg,,,
,,5,1.2929,5,0.0633,7,3.4493,1,1.0662,2,0.0159,0,0,0,0,1,main,5,21,female,R,Donders,2021-07-08_13h39.22.270,ImageRatingTask_S3,2021.1.4,Win32,60.09976561,,,,,,,,,
,,,,,,,,,,,,0,1,1,1,1,second,5,21,female,R,Donders,2021-07-08_13h39.22.270,ImageRatingTask_S3,2021.1.4,Win32,60.09976561,,,,,,,,,
,,,,,,,,,,,,0,2,2,2,1,third,5,21,female,R,Donders,2021-07-08_13h39.22.270,ImageRatingTask_S3,2021.1.4,Win32,60.09976561,,,,,,,,,
,,,,,,,,,,,,0,3,3,3,1,fourth,5,21,female,R,Donders,2021-07-08_13h39.22.270,ImageRatingTask_S3,2021.1.4,Win32,60.09976561,,,,,,,,,
,,,,,,,,,,,,0,4,4,4,1,fifth,5,21,female,R,Donders,2021-07-08_13h39.22.270,ImageRatingTask_S3,2021.1.4,Win32,60.09976561,,,,,,,,,
,,,,,,,,,,,,0,5,5,5,1,sixth,5,21,female,R,Donders,2021-07-08_13h39.22.270,ImageRatingTask_S3,2021.1.4,Win32,60.09976561,,,,,,,,,
,,,,,,,,,,,,0,6,6,6,1,seventh,5,21,female,R,Donders,2021-07-08_13h39.22.270,ImageRatingTask_S3,2021.1.4,Win32,60.09976561,,,,,,,,,
,,,,,,,,,,,,0,7,7,7,1,last,5,21,female,R,Donders,2021-07-08_13h39.22.270,ImageRatingTask_S3,2021.1.4,Win32,60.09976561,,,,,,,,,
,,,,,,,,,,,,,,,,,,5,21,female,R,Donders,2021-07-08_13h39.22.270,ImageRatingTask_S3,2021.1.4,Win32,60.09976561,0,77,77,119,1,DreamStudyImages_rs1000x750g/Children/2045.jpg,,,
,,2,1.6616,5,1.6999,8,2.9563,8,0.2472,6,6.6636,0,0,0,0,1,main,5,21,female,R,Donders,2021-07-08_13h39.22.270,ImageRatingTask_S3,2021.1.4,Win32,60.09976561,,,,,,,,,
,,,,,,,,,,6,0.274,0,1,1,1,1,second,5,21,female,R,Donders,2021-07-08_13h39.22.270,ImageRatingTask_S3,2021.1.4,Win32,60.09976561,,,,,,,,,
,,,,,,,,,,6,0.2007,0,2,2,2,1,third,5,21,female,R,Donders,2021-07-08_13h39.22.270,ImageRatingTask_S3,2021.1.4,Win32,60.09976561,,,,,,,,,
,,,,,,,,,,6,0.182,0,3,3,3,1,fourth,5,21,female,R,Donders,2021-07-08_13h39.22.270,ImageRatingTask_S3,2021.1.4,Win32,60.09976561,,,,,,,,,
,,,,,,,,,,6,0.1671,0,4,4,4,1,fifth,5,21,female,R,Donders,2021-07-08_13h39.22.270,ImageRatingTask_S3,2021.1.4,Win32,60.09976561,,,,,,,,,
,,,,,,,,,,6,0.3376,0,5,5,5,1,sixth,5,21,female,R,Donders,2021-07-08_13h39.22.270,ImageRatingTask_S3,2021.1.4,Win32,60.09976561,,,,,,,,,
,,,,,,,,,,6,0.3572,0,6,6,6,1,seventh,5,21,female,R,Donders,2021-07-08_13h39.22.270,ImageRatingTask_S3,2021.1.4,Win32,60.09976561,,,,,,,,,
,,,,,,,,,,6,0.3669,0,7,7,7,1,last,5,21,female,R,Donders,2021-07-08_13h39.22.270,ImageRatingTask_S3,2021.1.4,Win32,60.09976561,,,,,,,,,
,,,,,,,,,,,,,,,,,,5,21,female,R,Donders,2021-07-08_13h39.22.270,ImageRatingTask_S3,2021.1.4,Win32,60.09976561,0,78,78,46,1,DreamStudyImages_rs1000x750g/Houses/Landscapes_025_h.jpg,,,
,,5,4.1857,5,0.2824,7,3.4855,1,1.5406,3,0.4562,0,0,0,0,1,main,5,21,female,R,Donders,2021-07-08_13h39.22.270,ImageRatingTask_S3,2021.1.4,Win32,60.09976561,,,,,,,,,
,,,,,,,,,,,,0,1,1,1,1,second,5,21,female,R,Donders,2021-07-08_13h39.22.270,ImageRatingTask_S3,2021.1.4,Win32,60.09976561,,,,,,,,,
,,,,,,,,,,,,0,2,2,2,1,third,5,21,female,R,Donders,2021-07-08_13h39.22.270,ImageRatingTask_S3,2021.1.4,Win32,60.09976561,,,,,,,,,
,,,,,,,,,,,,0,3,3,3,1,fourth,5,21,female,R,Donders,2021-07-08_13h39.22.270,ImageRatingTask_S3,2021.1.4,Win32,60.09976561,,,,,,,,,
,,,,,,,,,,,,0,4,4,4,1,fifth,5,21,female,R,Donders,2021-07-08_13h39.22.270,ImageRatingTask_S3,2021.1.4,Win32,60.09976561,,,,,,,,,
