test_key_val.keys,test_key_val.rt,test_key_aro.keys,test_key_aro.rt,test_key_qual.keys,test_key_qual.rt,test_key_ncat.keys,test_key_ncat.rt,test_key_cats.keys,test_ncat_order.thisRepN,test_ncat_order.thisTrialN,test_ncat_order.thisN,test_ncat_order.thisIndex,test_ncat_order.ran,cond_cat,participant,age,gender,handedness (L/R),site (IMT/Donders),date,expName,psychopyVersion,OS,frameRate,test_trials.thisRepN,test_trials.thisTrialN,test_trials.thisN,test_trials.thisIndex,test_trials.ran,test_filename,link,copyright,slider_pre.response,slider_pre.rt,key_val.keys,key_val.rt,key_aro.keys,key_aro.rt,key_qual.keys,key_qual.rt,key_ncat.keys,key_ncat.rt,key_cats.keys,key_cats.rt,ncat_order.thisRepN,ncat_order.thisTrialN,ncat_order.thisN,ncat_order.thisIndex,ncat_order.ran,img_trials.thisRepN,img_trials.thisTrialN,img_trials.thisN,img_trials.thisIndex,img_trials.ran,filename,slider_post.response,slider_post.rt,textbox_openfb.text
5,2.2912,5,0.0533,5,0.3796,0,1.3273,,0,0,0,0,1,main,5,21,female,R,Donders,2021-07-07_10h53.26.356,ImageRatingTask_S1,2021.1.4,Win32,59.97001499,,,,,,,,,,,,,,,,,,,,,,,,,,,,,,,,,,
,,,,,,,,,0,1,1,1,1,second,5,21,female,R,Donders,2021-07-07_10h53.26.356,ImageRatingTask_S1,2021.1.4,Win32,59.97001499,,,,,,,,,,,,,,,,,,,,,,,,,,,,,,,,,,
,,,,,,,,,0,2,2,2,1,third,5,21,female,R,Donders,2021-07-07_10h53.26.356,ImageRatingTask_S1,2021.1.4,Win32,59.97001499,,,,,,,,,,,,,,,,,,,,,,,,,,,,,,,,,,
,,,,,,,,,0,3,3,3,1,fourth,5,21,female,R,Donders,2021-07-07_10h53.26.356,ImageRatingTask_S1,2021.1.4,Win32,59.97001499,,,,,,,,,,,,,,,,,,,,,,,,,,,,,,,,,,
,,,,,,,,,0,4,4,4,1,fifth,5,21,female,R,Donders,2021-07-07_10h53.26.356,ImageRatingTask_S1,2021.1.4,Win32,59.97001499,,,,,,,,,,,,,,,,,,,,,,,,,,,,,,,,,,
,,,,,,,,,0,5,5,5,1,sixth,5,21,female,R,Donders,2021-07-07_10h53.26.356,ImageRatingTask_S1,2021.1.4,Win32,59.97001499,,,,,,,,,,,,,,,,,,,,,,,,,,,,,,,,,,
,,,,,,,,,0,6,6,6,1,seventh,5,21,female,R,Donders,2021-07-07_10h53.26.356,ImageRatingTask_S1,2021.1.4,Win32,59.97001499,,,,,,,,,,,,,,,,,,,,,,,,,,,,,,,,,,
,,,,,,,,,0,7,7,7,1,last,5,21,female,R,Donders,2021-07-07_10h53.26.356,ImageRatingTask_S1,2021.1.4,Win32,59.97001499,,,,,,,,,,,,,,,,,,,,,,,,,,,,,,,,,,
,,,,,,,,,,,,,,,5,21,female,R,Donders,2021-07-07_10h53.26.356,ImageRatingTask_S1,2021.1.4,Win32,59.97001499,0,0,0,2,1,test3.jpg,https://www.flickr.com/photos/7487886@N04/35810127921/in/photolist-WyqgqD-DQSoP-6SrFCE-39ywib-39Bezs-9gt8aT-9gt83Z-eEgA9B-KnLx9-9gt8dK-HXwdie-2b6FA2g-4ekt5k-9ECfRg-2Zr5GQ-2Zr5mC-2Zr6kW-2Zr5Xu-2Zmyac-98TgbK-7U5XRj-am4oXb-98ThEB-2Bw3gh-vXo6D-Wt9U8o-DGiErb-DGiEqE-2m3CpV6-6E2aGG-6DXgqc-4PC3pQ-6HwMbx-dHYvkg-a2ycs-JLvMv-7k6DhM-bA81AL-8zwPFe-5nMrZu-3Ep2da-nhhd2L-DvDkr-81RkjZ-E1HXA-GzGH8Z-83vZYf-9krgXK-5nMxuU-DGiEqu,CC BY-NC 2.0,,,,,,,,,,,,,,,,,,,,,,,,,,
5,0.6271,5,0.0937,5,0.126,0,0.465,,0,0,0,0,1,main,5,21,female,R,Donders,2021-07-07_10h53.26.356,ImageRatingTask_S1,2021.1.4,Win32,59.97001499,,,,,,,,,,,,,,,,,,,,,,,,,,,,,,,,,,
,,,,,,,,,0,1,1,1,1,second,5,21,female,R,Donders,2021-07-07_10h53.26.356,ImageRatingTask_S1,2021.1.4,Win32,59.97001499,,,,,,,,,,,,,,,,,,,,,,,,,,,,,,,,,,
,,,,,,,,,0,2,2,2,1,third,5,21,female,R,Donders,2021-07-07_10h53.26.356,ImageRatingTask_S1,2021.1.4,Win32,59.97001499,,,,,,,,,,,,,,,,,,,,,,,,,,,,,,,,,,
,,,,,,,,,0,3,3,3,1,fourth,5,21,female,R,Donders,2021-07-07_10h53.26.356,ImageRatingTask_S1,2021.1.4,Win32,59.97001499,,,,,,,,,,,,,,,,,,,,,,,,,,,,,,,,,,
,,,,,,,,,0,4,4,4,1,fifth,5,21,female,R,Donders,2021-07-07_10h53.26.356,ImageRatingTask_S1,2021.1.4,Win32,59.97001499,,,,,,,,,,,,,,,,,,,,,,,,,,,,,,,,,,
,,,,,,,,,0,5,5,5,1,sixth,5,21,female,R,Donders,2021-07-07_10h53.26.356,ImageRatingTask_S1,2021.1.4,Win32,59.97001499,,,,,,,,,,,,,,,,,,,,,,,,,,,,,,,,,,
,,,,,,,,,0,6,6,6,1,seventh,5,21,female,R,Donders,2021-07-07_10h53.26.356,ImageRatingTask_S1,2021.1.4,Win32,59.97001499,,,,,,,,,,,,,,,,,,,,,,,,,,,,,,,,,,
,,,,,,,,,0,7,7,7,1,last,5,21,female,R,Donders,2021-07-07_10h53.26.356,ImageRatingTask_S1,2021.1.4,Win32,59.97001499,,,,,,,,,,,,,,,,,,,,,,,,,,,,,,,,,,
,,,,,,,,,,,,,,,5,21,female,R,Donders,2021-07-07_10h53.26.356,ImageRatingTask_S1,2021.1.4,Win32,59.97001499,0,1,1,4,1,test5.jpg,https://www.flickr.com/photos/silkebaron/2778692021/in/photolist-5exwk8-CeHF3S-5gg796-95cM2x-LGUrp7-oFgB6-2k7B5QN-aufKzz-hn8Di-8A3htc-8EagiU-4Hvk3Y-2b7s1f8-KSEPr-KSseq-KSrU3-KSu4o-KSsS3-Tp6nDS-KSCUM-VpC5Br-4j8meK-bdrepT-7GRM78-e6Zw96-8cCPed-9ANgBi-oFg73-2GGRxm-5dcivP-7sa8oG-2GGRzW-7CFUnh-3giGx-5Bz4op-3gTuGh-5cSvq6-pUnXj-hwTpWT-48n3iY-e5zg7q-7u7zP8-49195x-3iQDe9-aL7cWX-5exvLk-48n2Yy-toytsg-rw5VR-78NSA2,CC BY 2.0,,,,,,,,,,,,,,,,,,,,,,,,,,
5,0.5667,5,0.0869,5,0.1301,0,0.4872,,0,0,0,0,1,main,5,21,female,R,Donders,2021-07-07_10h53.26.356,ImageRatingTask_S1,2021.1.4,Win32,59.97001499,,,,,,,,,,,,,,,,,,,,,,,,,,,,,,,,,,
,,,,,,,,,0,1,1,1,1,second,5,21,female,R,Donders,2021-07-07_10h53.26.356,ImageRatingTask_S1,2021.1.4,Win32,59.97001499,,,,,,,,,,,,,,,,,,,,,,,,,,,,,,,,,,
,,,,,,,,,0,2,2,2,1,third,5,21,female,R,Donders,2021-07-07_10h53.26.356,ImageRatingTask_S1,2021.1.4,Win32,59.97001499,,,,,,,,,,,,,,,,,,,,,,,,,,,,,,,,,,
,,,,,,,,,0,3,3,3,1,fourth,5,21,female,R,Donders,2021-07-07_10h53.26.356,ImageRatingTask_S1,2021.1.4,Win32,59.97001499,,,,,,,,,,,,,,,,,,,,,,,,,,,,,,,,,,
,,,,,,,,,0,4,4,4,1,fifth,5,21,female,R,Donders,2021-07-07_10h53.26.356,ImageRatingTask_S1,2021.1.4,Win32,59.97001499,,,,,,,,,,,,,,,,,,,,,,,,,,,,,,,,,,
,,,,,,,,,0,5,5,5,1,sixth,5,21,female,R,Donders,2021-07-07_10h53.26.356,ImageRatingTask_S1,2021.1.4,Win32,59.97001499,,,,,,,,,,,,,,,,,,,,,,,,,,,,,,,,,,
,,,,,,,,,0,6,6,6,1,seventh,5,21,female,R,Donders,2021-07-07_10h53.26.356,ImageRatingTask_S1,2021.1.4,Win32,59.97001499,,,,,,,,,,,,,,,,,,,,,,,,,,,,,,,,,,
,,,,,,,,,0,7,7,7,1,last,5,21,female,R,Donders,2021-07-07_10h53.26.356,ImageRatingTask_S1,2021.1.4,Win32,59.97001499,,,,,,,,,,,,,,,,,,,,,,,,,,,,,,,,,,
,,,,,,,,,,,,,,,5,21,female,R,Donders,2021-07-07_10h53.26.356,ImageRatingTask_S1,2021.1.4,Win32,59.97001499,0,2,2,1,1,test2.jpg,https://www.flickr.com/photos/cavalier92/16036265548/,CC BY-NC-ND 2.0,,,,,,,,,,,,,,,,,,,,,,,,,,
5,0.3734,5,0.0506,5,0.8425,0,0.3391,,0,0,0,0,1,main,5,21,female,R,Donders,2021-07-07_10h53.26.356,ImageRatingTask_S1,2021.1.4,Win32,59.97001499,,,,,,,,,,,,,,,,,,,,,,,,,,,,,,,,,,
,,,,,,,,,0,1,1,1,1,second,5,21,female,R,Donders,2021-07-07_10h53.26.356,ImageRatingTask_S1,2021.1.4,Win32,59.97001499,,,,,,,,,,,,,,,,,,,,,,,,,,,,,,,,,,
,,,,,,,,,0,2,2,2,1,third,5,21,female,R,Donders,2021-07-07_10h53.26.356,ImageRatingTask_S1,2021.1.4,Win32,59.97001499,,,,,,,,,,,,,,,,,,,,,,,,,,,,,,,,,,
,,,,,,,,,0,3,3,3,1,fourth,5,21,female,R,Donders,2021-07-07_10h53.26.356,ImageRatingTask_S1,2021.1.4,Win32,59.97001499,,,,,,,,,,,,,,,,,,,,,,,,,,,,,,,,,,
,,,,,,,,,0,4,4,4,1,fifth,5,21,female,R,Donders,2021-07-07_10h53.26.356,ImageRatingTask_S1,2021.1.4,Win32,59.97001499,,,,,,,,,,,,,,,,,,,,,,,,,,,,,,,,,,
,,,,,,,,,0,5,5,5,1,sixth,5,21,female,R,Donders,2021-07-07_10h53.26.356,ImageRatingTask_S1,2021.1.4,Win32,59.97001499,,,,,,,,,,,,,,,,,,,,,,,,,,,,,,,,,,
,,,,,,,,,0,6,6,6,1,seventh,5,21,female,R,Donders,2021-07-07_10h53.26.356,ImageRatingTask_S1,2021.1.4,Win32,59.97001499,,,,,,,,,,,,,,,,,,,,,,,,,,,,,,,,,,
,,,,,,,,,0,7,7,7,1,last,5,21,female,R,Donders,2021-07-07_10h53.26.356,ImageRatingTask_S1,2021.1.4,Win32,59.97001499,,,,,,,,,,,,,,,,,,,,,,,,,,,,,,,,,,
,,,,,,,,,,,,,,,5,21,female,R,Donders,2021-07-07_10h53.26.356,ImageRatingTask_S1,2021.1.4,Win32,59.97001499,0,3,3,0,1,test1.jpg,https://www.flickr.com/photos/julzyax1/8713189147/in/photolist-egXnz6-Kg97g6-paYQjg-cDWcvy-e84vQU-fyRQKZ-dzuwVL-nzCPJw-dzp3r6-SXXSvw-aEgXGF-dzp1D8-aEgZ6F-prcoQG-aEgYd8-dt9EJ8-qTHZUL-dX8ut3-6eqh7x-aEkMyA-avjf71-6eqgKg-pNpDbJ-6euqa5-bo2EMC-q8hCLb-od8yyX-daaz4w-26cjVxB-CXaGmV-C7hSHf-aqmunq-9ek8a1-YcbBUe-apPWHB-HnB8rt-pHQLfh-8YgHaC-aqHteN-d5THbj-5dgTxP-afp2aV-8hNoSm-qhSjJS-d5TqoA-98WoKM-cjnSxo-9b4u7a-d5Tnzf-f7AETL,CC BY-NC 2.0,,,,,,,,,,,,,,,,,,,,,,,,,,
5,0.5102,5,0.0926,5,0.1944,0,0.5775,,0,0,0,0,1,main,5,21,female,R,Donders,2021-07-07_10h53.26.356,ImageRatingTask_S1,2021.1.4,Win32,59.97001499,,,,,,,,,,,,,,,,,,,,,,,,,,,,,,,,,,
,,,,,,,,,0,1,1,1,1,second,5,21,female,R,Donders,2021-07-07_10h53.26.356,ImageRatingTask_S1,2021.1.4,Win32,59.97001499,,,,,,,,,,,,,,,,,,,,,,,,,,,,,,,,,,
,,,,,,,,,0,2,2,2,1,third,5,21,female,R,Donders,2021-07-07_10h53.26.356,ImageRatingTask_S1,2021.1.4,Win32,59.97001499,,,,,,,,,,,,,,,,,,,,,,,,,,,,,,,,,,
,,,,,,,,,0,3,3,3,1,fourth,5,21,female,R,Donders,2021-07-07_10h53.26.356,ImageRatingTask_S1,2021.1.4,Win32,59.97001499,,,,,,,,,,,,,,,,,,,,,,,,,,,,,,,,,,
,,,,,,,,,0,4,4,4,1,fifth,5,21,female,R,Donders,2021-07-07_10h53.26.356,ImageRatingTask_S1,2021.1.4,Win32,59.97001499,,,,,,,,,,,,,,,,,,,,,,,,,,,,,,,,,,
,,,,,,,,,0,5,5,5,1,sixth,5,21,female,R,Donders,2021-07-07_10h53.26.356,ImageRatingTask_S1,2021.1.4,Win32,59.97001499,,,,,,,,,,,,,,,,,,,,,,,,,,,,,,,,,,
,,,,,,,,,0,6,6,6,1,seventh,5,21,female,R,Donders,2021-07-07_10h53.26.356,ImageRatingTask_S1,2021.1.4,Win32,59.97001499,,,,,,,,,,,,,,,,,,,,,,,,,,,,,,,,,,
,,,,,,,,,0,7,7,7,1,last,5,21,female,R,Donders,2021-07-07_10h53.26.356,ImageRatingTask_S1,2021.1.4,Win32,59.97001499,,,,,,,,,,,,,,,,,,,,,,,,,,,,,,,,,,
,,,,,,,,,,,,,,,5,21,female,R,Donders,2021-07-07_10h53.26.356,ImageRatingTask_S1,2021.1.4,Win32,59.97001499,0,4,4,3,1,test4.jpg,https://www.flickr.com/photos/8782469@N05/33550256294/in/photolist-T7HQjJ-6bL62X-gQ2ptt-eARbhf-dbgLvQ-uKUpgG-e6GNPD-e6iDuV-RwYJie-Ur28At-u6Dvwk-fwts3x-CgqS5E-dgJSNE-fwHPg9-bFQoWv-9qgCN-TQZT7E-475QF-v3ZBG9-v5TFQL-aQVeNV-49XCzE-e5Va7j-v3WosE-5jvzS-cBxjA5-fwJ2P3-TP86kq-eREpVC-rMTQZx-Um3k-ajziHj-CgqSzN-dgP2Ci-e6putY-652ZqG-eARzQm-6ikz1-vrGjvh-Chgvpm-pFFnYq-8bKoVw-eAsukg-daANXC-MwMMfW-5ArWsa-GMcDmn-bLo6CH-9KgagR,CC BY 2.0,,,,,,,,,,,,,,,,,,,,,,,,,,
,,,,,,,,,,,,,,main,5,21,female,R,Donders,2021-07-07_10h53.26.356,ImageRatingTask_S1,2021.1.4,Win32,59.97001499,,,,,,,,,4,6.6677,7,3.5018,2,6.6471,8,4.8943,2,6.276,3,1.3304,0,0,0,0,1,,,,,,,,,
,,,,,,,,,,,,,,second,5,21,female,R,Donders,2021-07-07_10h53.26.356,ImageRatingTask_S1,2021.1.4,Win32,59.97001499,,,,,,,,,,,,,,,,,,,5,0.3508,0,1,1,1,1,,,,,,,,,
,,,,,,,,,,,,,,third,5,21,female,R,Donders,2021-07-07_10h53.26.356,ImageRatingTask_S1,2021.1.4,Win32,59.97001499,,,,,,,,,,,,,,,,,,,,,0,2,2,2,1,,,,,,,,,
,,,,,,,,,,,,,,fourth,5,21,female,R,Donders,2021-07-07_10h53.26.356,ImageRatingTask_S1,2021.1.4,Win32,59.97001499,,,,,,,,,,,,,,,,,,,,,0,3,3,3,1,,,,,,,,,
,,,,,,,,,,,,,,fifth,5,21,female,R,Donders,2021-07-07_10h53.26.356,ImageRatingTask_S1,2021.1.4,Win32,59.97001499,,,,,,,,,,,,,,,,,,,,,0,4,4,4,1,,,,,,,,,
,,,,,,,,,,,,,,sixth,5,21,female,R,Donders,2021-07-07_10h53.26.356,ImageRatingTask_S1,2021.1.4,Win32,59.97001499,,,,,,,,,,,,,,,,,,,,,0,5,5,5,1,,,,,,,,,
,,,,,,,,,,,,,,seventh,5,21,female,R,Donders,2021-07-07_10h53.26.356,ImageRatingTask_S1,2021.1.4,Win32,59.97001499,,,,,,,,,,,,,,,,,,,,,0,6,6,6,1,,,,,,,,,
,,,,,,,,,,,,,,last,5,21,female,R,Donders,2021-07-07_10h53.26.356,ImageRatingTask_S1,2021.1.4,Win32,59.97001499,,,,,,,,,,,,,,,,,,,,,0,7,7,7,1,,,,,,,,,
,,,,,,,,,,,,,,,5,21,female,R,Donders,2021-07-07_10h53.26.356,ImageRatingTask_S1,2021.1.4,Win32,59.97001499,,,,,,,,,,,,,,,,,,,,,,,,,,0,0,0,37,1,DreamStudyImages_rs1000x750g/Mammals/Animals_205_h.jpg,,,
,,,,,,,,,,,,,,main,5,21,female,R,Donders,2021-07-07_10h53.26.356,ImageRatingTask_S1,2021.1.4,Win32,59.97001499,,,,,,,,,,,7,3.3616,2,1.6251,8,2.4239,1,4.747,8,0.8423,0,0,0,0,1,,,,,,,,,
,,,,,,,,,,,,,,second,5,21,female,R,Donders,2021-07-07_10h53.26.356,ImageRatingTask_S1,2021.1.4,Win32,59.97001499,,,,,,,,,,,,,,,,,,,,,0,1,1,1,1,,,,,,,,,
,,,,,,,,,,,,,,third,5,21,female,R,Donders,2021-07-07_10h53.26.356,ImageRatingTask_S1,2021.1.4,Win32,59.97001499,,,,,,,,,,,,,,,,,,,,,0,2,2,2,1,,,,,,,,,
,,,,,,,,,,,,,,fourth,5,21,female,R,Donders,2021-07-07_10h53.26.356,ImageRatingTask_S1,2021.1.4,Win32,59.97001499,,,,,,,,,,,,,,,,,,,,,0,3,3,3,1,,,,,,,,,
,,,,,,,,,,,,,,fifth,5,21,female,R,Donders,2021-07-07_10h53.26.356,ImageRatingTask_S1,2021.1.4,Win32,59.97001499,,,,,,,,,,,,,,,,,,,,,0,4,4,4,1,,,,,,,,,
,,,,,,,,,,,,,,sixth,5,21,female,R,Donders,2021-07-07_10h53.26.356,ImageRatingTask_S1,2021.1.4,Win32,59.97001499,,,,,,,,,,,,,,,,,,,,,0,5,5,5,1,,,,,,,,,
,,,,,,,,,,,,,,seventh,5,21,female,R,Donders,2021-07-07_10h53.26.356,ImageRatingTask_S1,2021.1.4,Win32,59.97001499,,,,,,,,,,,,,,,,,,,,,0,6,6,6,1,,,,,,,,,
,,,,,,,,,,,,,,last,5,21,female,R,Donders,2021-07-07_10h53.26.356,ImageRatingTask_S1,2021.1.4,Win32,59.97001499,,,,,,,,,,,,,,,,,,,,,0,7,7,7,1,,,,,,,,,
,,,,,,,,,,,,,,,5,21,female,R,Donders,2021-07-07_10h53.26.356,ImageRatingTask_S1,2021.1.4,Win32,59.97001499,,,,,,,,,,,,,,,,,,,,,,,,,,0,1,1,6,1,DreamStudyImages_rs1000x750g/Water/NDPS155_lake2.jpg,,,
,,,,,,,,,,,,,,main,5,21,female,R,Donders,2021-07-07_10h53.26.356,ImageRatingTask_S1,2021.1.4,Win32,59.97001499,,,,,,,,,,,2,2.5209,1,0.7223,8,1.9354,0,5.9125,,,0,0,0,0,1,,,,,,,,,
,,,,,,,,,,,,,,second,5,21,female,R,Donders,2021-07-07_10h53.26.356,ImageRatingTask_S1,2021.1.4,Win32,59.97001499,,,,,,,,,,,,,,,,,,,,,0,1,1,1,1,,,,,,,,,
,,,,,,,,,,,,,,third,5,21,female,R,Donders,2021-07-07_10h53.26.356,ImageRatingTask_S1,2021.1.4,Win32,59.97001499,,,,,,,,,,,,,,,,,,,,,0,2,2,2,1,,,,,,,,,
,,,,,,,,,,,,,,fourth,5,21,female,R,Donders,2021-07-07_10h53.26.356,ImageRatingTask_S1,2021.1.4,Win32,59.97001499,,,,,,,,,,,,,,,,,,,,,0,3,3,3,1,,,,,,,,,
,,,,,,,,,,,,,,fifth,5,21,female,R,Donders,2021-07-07_10h53.26.356,ImageRatingTask_S1,2021.1.4,Win32,59.97001499,,,,,,,,,,,,,,,,,,,,,0,4,4,4,1,,,,,,,,,
,,,,,,,,,,,,,,sixth,5,21,female,R,Donders,2021-07-07_10h53.26.356,ImageRatingTask_S1,2021.1.4,Win32,59.97001499,,,,,,,,,,,,,,,,,,,,,0,5,5,5,1,,,,,,,,,
,,,,,,,,,,,,,,seventh,5,21,female,R,Donders,2021-07-07_10h53.26.356,ImageRatingTask_S1,2021.1.4,Win32,59.97001499,,,,,,,,,,,,,,,,,,,,,0,6,6,6,1,,,,,,,,,
,,,,,,,,,,,,,,last,5,21,female,R,Donders,2021-07-07_10h53.26.356,ImageRatingTask_S1,2021.1.4,Win32,59.97001499,,,,,,,,,,,,,,,,,,,,,0,7,7,7,1,,,,,,,,,
,,,,,,,,,,,,,,,5,21,female,R,Donders,2021-07-07_10h53.26.356,ImageRatingTask_S1,2021.1.4,Win32,59.97001499,,,,,,,,,,,,,,,,,,,,,,,,,,0,2,2,86,1,DreamStudyImages_rs1000x750g/Food/food_neg_3bis.jpg,,,
,,,,,,,,,,,,,,main,5,21,female,R,Donders,2021-07-07_10h53.26.356,ImageRatingTask_S1,2021.1.4,Win32,59.97001499,,,,,,,,,,,3,3.3056,1,0.8598,8,1.5891,1,5.6143,7,0.9238,0,0,0,0,1,,,,,,,,,
,,,,,,,,,,,,,,second,5,21,female,R,Donders,2021-07-07_10h53.26.356,ImageRatingTask_S1,2021.1.4,Win32,59.97001499,,,,,,,,,,,,,,,,,,,,,0,1,1,1,1,,,,,,,,,
,,,,,,,,,,,,,,third,5,21,female,R,Donders,2021-07-07_10h53.26.356,ImageRatingTask_S1,2021.1.4,Win32,59.97001499,,,,,,,,,,,,,,,,,,,,,0,2,2,2,1,,,,,,,,,
,,,,,,,,,,,,,,fourth,5,21,female,R,Donders,2021-07-07_10h53.26.356,ImageRatingTask_S1,2021.1.4,Win32,59.97001499,,,,,,,,,,,,,,,,,,,,,0,3,3,3,1,,,,,,,,,
,,,,,,,,,,,,,,fifth,5,21,female,R,Donders,2021-07-07_10h53.26.356,ImageRatingTask_S1,2021.1.4,Win32,59.97001499,,,,,,,,,,,,,,,,,,,,,0,4,4,4,1,,,,,,,,,
,,,,,,,,,,,,,,sixth,5,21,female,R,Donders,2021-07-07_10h53.26.356,ImageRatingTask_S1,2021.1.4,Win32,59.97001499,,,,,,,,,,,,,,,,,,,,,0,5,5,5,1,,,,,,,,,
,,,,,,,,,,,,,,seventh,5,21,female,R,Donders,2021-07-07_10h53.26.356,ImageRatingTask_S1,2021.1.4,Win32,59.97001499,,,,,,,,,,,,,,,,,,,,,0,6,6,6,1,,,,,,,,,
,,,,,,,,,,,,,,last,5,21,female,R,Donders,2021-07-07_10h53.26.356,ImageRatingTask_S1,2021.1.4,Win32,59.97001499,,,,,,,,,,,,,,,,,,,,,0,7,7,7,1,,,,,,,,,
,,,,,,,,,,,,,,,5,21,female,R,Donders,2021-07-07_10h53.26.356,ImageRatingTask_S1,2021.1.4,Win32,59.97001499,,,,,,,,,,,,,,,,,,,,,,,,,,0,3,3,58,1,DreamStudyImages_rs1000x750g/Vehicles/Explosion 1.jpg,,,
,,,,,,,,,,,,,,main,5,21,female,R,Donders,2021-07-07_10h53.26.356,ImageRatingTask_S1,2021.1.4,Win32,59.97001499,,,,,,,,,,,6,5.0549,1,1.4098,7,4.2213,1,1.782,8,0.9097,0,0,0,0,1,,,,,,,,,
,,,,,,,,,,,,,,second,5,21,female,R,Donders,2021-07-07_10h53.26.356,ImageRatingTask_S1,2021.1.4,Win32,59.97001499,,,,,,,,,,,,,,,,,,,,,0,1,1,1,1,,,,,,,,,
,,,,,,,,,,,,,,third,5,21,female,R,Donders,2021-07-07_10h53.26.356,ImageRatingTask_S1,2021.1.4,Win32,59.97001499,,,,,,,,,,,,,,,,,,,,,0,2,2,2,1,,,,,,,,,
,,,,,,,,,,,,,,fourth,5,21,female,R,Donders,2021-07-07_10h53.26.356,ImageRatingTask_S1,2021.1.4,Win32,59.97001499,,,,,,,,,,,,,,,,,,,,,0,3,3,3,1,,,,,,,,,
,,,,,,,,,,,,,,fifth,5,21,female,R,Donders,2021-07-07_10h53.26.356,ImageRatingTask_S1,2021.1.4,Win32,59.97001499,,,,,,,,,,,,,,,,,,,,,0,4,4,4,1,,,,,,,,,
,,,,,,,,,,,,,,sixth,5,21,female,R,Donders,2021-07-07_10h53.26.356,ImageRatingTask_S1,2021.1.4,Win32,59.97001499,,,,,,,,,,,,,,,,,,,,,0,5,5,5,1,,,,,,,,,
,,,,,,,,,,,,,,seventh,5,21,female,R,Donders,2021-07-07_10h53.26.356,ImageRatingTask_S1,2021.1.4,Win32,59.97001499,,,,,,,,,,,,,,,,,,,,,0,6,6,6,1,,,,,,,,,
,,,,,,,,,,,,,,last,5,21,female,R,Donders,2021-07-07_10h53.26.356,ImageRatingTask_S1,2021.1.4,Win32,59.97001499,,,,,,,,,,,,,,,,,,,,,0,7,7,7,1,,,,,,,,,
,,,,,,,,,,,,,,,5,21,female,R,Donders,2021-07-07_10h53.26.356,ImageRatingTask_S1,2021.1.4,Win32,59.97001499,,,,,,,,,,,,,,,,,,,,,,,,,,0,4,4,28,1,DreamStudyImages_rs1000x750g/Water/Landscapes_108_v.jpg,,,
,,,,,,,,,,,,,,main,5,21,female,R,Donders,2021-07-07_10h53.26.356,ImageRatingTask_S1,2021.1.4,Win32,59.97001499,,,,,,,,,,,3,6.6207,1,1.2069,7,1.3858,0,4.3876,,,0,0,0,0,1,,,,,,,,,
,,,,,,,,,,,,,,second,5,21,female,R,Donders,2021-07-07_10h53.26.356,ImageRatingTask_S1,2021.1.4,Win32,59.97001499,,,,,,,,,,,,,,,,,,,,,0,1,1,1,1,,,,,,,,,
,,,,,,,,,,,,,,third,5,21,female,R,Donders,2021-07-07_10h53.26.356,ImageRatingTask_S1,2021.1.4,Win32,59.97001499,,,,,,,,,,,,,,,,,,,,,0,2,2,2,1,,,,,,,,,
,,,,,,,,,,,,,,fourth,5,21,female,R,Donders,2021-07-07_10h53.26.356,ImageRatingTask_S1,2021.1.4,Win32,59.97001499,,,,,,,,,,,,,,,,,,,,,0,3,3,3,1,,,,,,,,,
,,,,,,,,,,,,,,fifth,5,21,female,R,Donders,2021-07-07_10h53.26.356,ImageRatingTask_S1,2021.1.4,Win32,59.97001499,,,,,,,,,,,,,,,,,,,,,0,4,4,4,1,,,,,,,,,
,,,,,,,,,,,,,,sixth,5,21,female,R,Donders,2021-07-07_10h53.26.356,ImageRatingTask_S1,2021.1.4,Win32,59.97001499,,,,,,,,,,,,,,,,,,,,,0,5,5,5,1,,,,,,,,,
,,,,,,,,,,,,,,seventh,5,21,female,R,Donders,2021-07-07_10h53.26.356,ImageRatingTask_S1,2021.1.4,Win32,59.97001499,,,,,,,,,,,,,,,,,,,,,0,6,6,6,1,,,,,,,,,
,,,,,,,,,,,,,,last,5,21,female,R,Donders,2021-07-07_10h53.26.356,ImageRatingTask_S1,2021.1.4,Win32,59.97001499,,,,,,,,,,,,,,,,,,,,,0,7,7,7,1,,,,,,,,,
,,,,,,,,,,,,,,,5,21,female,R,Donders,2021-07-07_10h53.26.356,ImageRatingTask_S1,2021.1.4,Win32,59.97001499,,,,,,,,,,,,,,,,,,,,,,,,,,0,5,5,144,1,DreamStudyImages_rs1000x750g/Food/Objects_151_h.jpg,,,
,,,,,,,,,,,,,,main,5,21,female,R,Donders,2021-07-07_10h53.26.356,ImageRatingTask_S1,2021.1.4,Win32,59.97001499,,,,,,,,,,,1,2.3346,1,0.3163,8,1.4024,1,2.5725,6,1.1689,0,0,0,0,1,,,,,,,,,
,,,,,,,,,,,,,,second,5,21,female,R,Donders,2021-07-07_10h53.26.356,ImageRatingTask_S1,2021.1.4,Win32,59.97001499,,,,,,,,,,,,,,,,,,,,,0,1,1,1,1,,,,,,,,,
,,,,,,,,,,,,,,third,5,21,female,R,Donders,2021-07-07_10h53.26.356,ImageRatingTask_S1,2021.1.4,Win32,59.97001499,,,,,,,,,,,,,,,,,,,,,0,2,2,2,1,,,,,,,,,
,,,,,,,,,,,,,,fourth,5,21,female,R,Donders,2021-07-07_10h53.26.356,ImageRatingTask_S1,2021.1.4,Win32,59.97001499,,,,,,,,,,,,,,,,,,,,,0,3,3,3,1,,,,,,,,,
,,,,,,,,,,,,,,fifth,5,21,female,R,Donders,2021-07-07_10h53.26.356,ImageRatingTask_S1,2021.1.4,Win32,59.97001499,,,,,,,,,,,,,,,,,,,,,0,4,4,4,1,,,,,,,,,
,,,,,,,,,,,,,,sixth,5,21,female,R,Donders,2021-07-07_10h53.26.356,ImageRatingTask_S1,2021.1.4,Win32,59.97001499,,,,,,,,,,,,,,,,,,,,,0,5,5,5,1,,,,,,,,,
,,,,,,,,,,,,,,seventh,5,21,female,R,Donders,2021-07-07_10h53.26.356,ImageRatingTask_S1,2021.1.4,Win32,59.97001499,,,,,,,,,,,,,,,,,,,,,0,6,6,6,1,,,,,,,,,
,,,,,,,,,,,,,,last,5,21,female,R,Donders,2021-07-07_10h53.26.356,ImageRatingTask_S1,2021.1.4,Win32,59.97001499,,,,,,,,,,,,,,,,,,,,,0,7,7,7,1,,,,,,,,,
,,,,,,,,,,,,,,,5,21,female,R,Donders,2021-07-07_10h53.26.356,ImageRatingTask_S1,2021.1.4,Win32,59.97001499,,,,,,,,,,,,,,,,,,,,,,,,,,0,6,6,101,1,DreamStudyImages_rs1000x750g/Houses/NDPS110_buriedhouse.jpg,,,
,,,,,,,,,,,,,,main,5,21,female,R,Donders,2021-07-07_10h53.26.356,ImageRatingTask_S1,2021.1.4,Win32,59.97001499,,,,,,,,,,,1,3.0578,1,0.3786,7,5.4706,1,2.0321,3,2.9605,0,0,0,0,1,,,,,,,,,
,,,,,,,,,,,,,,second,5,21,female,R,Donders,2021-07-07_10h53.26.356,ImageRatingTask_S1,2021.1.4,Win32,59.97001499,,,,,,,,,,,,,,,,,,,,,0,1,1,1,1,,,,,,,,,
,,,,,,,,,,,,,,third,5,21,female,R,Donders,2021-07-07_10h53.26.356,ImageRatingTask_S1,2021.1.4,Win32,59.97001499,,,,,,,,,,,,,,,,,,,,,0,2,2,2,1,,,,,,,,,
,,,,,,,,,,,,,,fourth,5,21,female,R,Donders,2021-07-07_10h53.26.356,ImageRatingTask_S1,2021.1.4,Win32,59.97001499,,,,,,,,,,,,,,,,,,,,,0,3,3,3,1,,,,,,,,,
,,,,,,,,,,,,,,fifth,5,21,female,R,Donders,2021-07-07_10h53.26.356,ImageRatingTask_S1,2021.1.4,Win32,59.97001499,,,,,,,,,,,,,,,,,,,,,0,4,4,4,1,,,,,,,,,
,,,,,,,,,,,,,,sixth,5,21,female,R,Donders,2021-07-07_10h53.26.356,ImageRatingTask_S1,2021.1.4,Win32,59.97001499,,,,,,,,,,,,,,,,,,,,,0,5,5,5,1,,,,,,,,,
,,,,,,,,,,,,,,seventh,5,21,female,R,Donders,2021-07-07_10h53.26.356,ImageRatingTask_S1,2021.1.4,Win32,59.97001499,,,,,,,,,,,,,,,,,,,,,0,6,6,6,1,,,,,,,,,
,,,,,,,,,,,,,,last,5,21,female,R,Donders,2021-07-07_10h53.26.356,ImageRatingTask_S1,2021.1.4,Win32,59.97001499,,,,,,,,,,,,,,,,,,,,,0,7,7,7,1,,,,,,,,,
,,,,,,,,,,,,,,,5,21,female,R,Donders,2021-07-07_10h53.26.356,ImageRatingTask_S1,2021.1.4,Win32,59.97001499,,,,,,,,,,,,,,,,,,,,,,,,,,0,7,7,44,1,DreamStudyImages_rs1000x750g/Mammals/Lion 2.jpg,,,
,,,,,,,,,,,,,,main,5,21,female,R,Donders,2021-07-07_10h53.26.356,ImageRatingTask_S1,2021.1.4,Win32,59.97001499,,,,,,,,,,,4,2.592,1,1.041,8,4.4506,1,1.6515,7,0.7171,0,0,0,0,1,,,,,,,,,
,,,,,,,,,,,,,,second,5,21,female,R,Donders,2021-07-07_10h53.26.356,ImageRatingTask_S1,2021.1.4,Win32,59.97001499,,,,,,,,,,,,,,,,,,,,,0,1,1,1,1,,,,,,,,,
,,,,,,,,,,,,,,third,5,21,female,R,Donders,2021-07-07_10h53.26.356,ImageRatingTask_S1,2021.1.4,Win32,59.97001499,,,,,,,,,,,,,,,,,,,,,0,2,2,2,1,,,,,,,,,
,,,,,,,,,,,,,,fourth,5,21,female,R,Donders,2021-07-07_10h53.26.356,ImageRatingTask_S1,2021.1.4,Win32,59.97001499,,,,,,,,,,,,,,,,,,,,,0,3,3,3,1,,,,,,,,,
,,,,,,,,,,,,,,fifth,5,21,female,R,Donders,2021-07-07_10h53.26.356,ImageRatingTask_S1,2021.1.4,Win32,59.97001499,,,,,,,,,,,,,,,,,,,,,0,4,4,4,1,,,,,,,,,
,,,,,,,,,,,,,,sixth,5,21,female,R,Donders,2021-07-07_10h53.26.356,ImageRatingTask_S1,2021.1.4,Win32,59.97001499,,,,,,,,,,,,,,,,,,,,,0,5,5,5,1,,,,,,,,,
,,,,,,,,,,,,,,seventh,5,21,female,R,Donders,2021-07-07_10h53.26.356,ImageRatingTask_S1,2021.1.4,Win32,59.97001499,,,,,,,,,,,,,,,,,,,,,0,6,6,6,1,,,,,,,,,
,,,,,,,,,,,,,,last,5,21,female,R,Donders,2021-07-07_10h53.26.356,ImageRatingTask_S1,2021.1.4,Win32,59.97001499,,,,,,,,,,,,,,,,,,,,,0,7,7,7,1,,,,,,,,,
,,,,,,,,,,,,,,,5,21,female,R,Donders,2021-07-07_10h53.26.356,ImageRatingTask_S1,2021.1.4,Win32,59.97001499,,,,,,,,,,,,,,,,,,,,,,,,,,0,8,8,141,1,DreamStudyImages_rs1000x750g/Vehicles/Objects_284_h.jpg,,,
,,,,,,,,,,,,,,main,5,21,female,R,Donders,2021-07-07_10h53.26.356,ImageRatingTask_S1,2021.1.4,Win32,59.97001499,,,,,,,,,,,5,61.667,1,1.123,6,1.9568,1,2.0721,2,0.5587,0,0,0,0,1,,,,,,,,,
,,,,,,,,,,,,,,second,5,21,female,R,Donders,2021-07-07_10h53.26.356,ImageRatingTask_S1,2021.1.4,Win32,59.97001499,,,,,,,,,,,,,,,,,,,,,0,1,1,1,1,,,,,,,,,
,,,,,,,,,,,,,,third,5,21,female,R,Donders,2021-07-07_10h53.26.356,ImageRatingTask_S1,2021.1.4,Win32,59.97001499,,,,,,,,,,,,,,,,,,,,,0,2,2,2,1,,,,,,,,,
,,,,,,,,,,,,,,fourth,5,21,female,R,Donders,2021-07-07_10h53.26.356,ImageRatingTask_S1,2021.1.4,Win32,59.97001499,,,,,,,,,,,,,,,,,,,,,0,3,3,3,1,,,,,,,,,
,,,,,,,,,,,,,,fifth,5,21,female,R,Donders,2021-07-07_10h53.26.356,ImageRatingTask_S1,2021.1.4,Win32,59.97001499,,,,,,,,,,,,,,,,,,,,,0,4,4,4,1,,,,,,,,,
,,,,,,,,,,,,,,sixth,5,21,female,R,Donders,2021-07-07_10h53.26.356,ImageRatingTask_S1,2021.1.4,Win32,59.97001499,,,,,,,,,,,,,,,,,,,,,0,5,5,5,1,,,,,,,,,
,,,,,,,,,,,,,,seventh,5,21,female,R,Donders,2021-07-07_10h53.26.356,ImageRatingTask_S1,2021.1.4,Win32,59.97001499,,,,,,,,,,,,,,,,,,,,,0,6,6,6,1,,,,,,,,,
,,,,,,,,,,,,,,last,5,21,female,R,Donders,2021-07-07_10h53.26.356,ImageRatingTask_S1,2021.1.4,Win32,59.97001499,,,,,,,,,,,,,,,,,,,,,0,7,7,7,1,,,,,,,,,
,,,,,,,,,,,,,,,5,21,female,R,Donders,2021-07-07_10h53.26.356,ImageRatingTask_S1,2021.1.4,Win32,59.97001499,,,,,,,,,,,,,,,,,,,,,,,,,,0,9,9,106,1,DreamStudyImages_rs1000x750g/Children/IAPS2345.1_boy7.jpg,,,
,,,,,,,,,,,,,,main,5,21,female,R,Donders,2021-07-07_10h53.26.356,ImageRatingTask_S1,2021.1.4,Win32,59.97001499,,,,,,,,,,,5,4.939,1,1.0566,7,4.4838,0,1.797,,,0,0,0,0,1,,,,,,,,,
,,,,,,,,,,,,,,second,5,21,female,R,Donders,2021-07-07_10h53.26.356,ImageRatingTask_S1,2021.1.4,Win32,59.97001499,,,,,,,,,,,,,,,,,,,,,0,1,1,1,1,,,,,,,,,
,,,,,,,,,,,,,,third,5,21,female,R,Donders,2021-07-07_10h53.26.356,ImageRatingTask_S1,2021.1.4,Win32,59.97001499,,,,,,,,,,,,,,,,,,,,,0,2,2,2,1,,,,,,,,,
,,,,,,,,,,,,,,fourth,5,21,female,R,Donders,2021-07-07_10h53.26.356,ImageRatingTask_S1,2021.1.4,Win32,59.97001499,,,,,,,,,,,,,,,,,,,,,0,3,3,3,1,,,,,,,,,
,,,,,,,,,,,,,,fifth,5,21,female,R,Donders,2021-07-07_10h53.26.356,ImageRatingTask_S1,2021.1.4,Win32,59.97001499,,,,,,,,,,,,,,,,,,,,,0,4,4,4,1,,,,,,,,,
,,,,,,,,,,,,,,sixth,5,21,female,R,Donders,2021-07-07_10h53.26.356,ImageRatingTask_S1,2021.1.4,Win32,59.97001499,,,,,,,,,,,,,,,,,,,,,0,5,5,5,1,,,,,,,,,
,,,,,,,,,,,,,,seventh,5,21,female,R,Donders,2021-07-07_10h53.26.356,ImageRatingTask_S1,2021.1.4,Win32,59.97001499,,,,,,,,,,,,,,,,,,,,,0,6,6,6,1,,,,,,,,,
,,,,,,,,,,,,,,last,5,21,female,R,Donders,2021-07-07_10h53.26.356,ImageRatingTask_S1,2021.1.4,Win32,59.97001499,,,,,,,,,,,,,,,,,,,,,0,7,7,7,1,,,,,,,,,
,,,,,,,,,,,,,,,5,21,female,R,Donders,2021-07-07_10h53.26.356,ImageRatingTask_S1,2021.1.4,Win32,59.97001499,,,,,,,,,,,,,,,,,,,,,,,,,,0,10,10,102,1,DreamStudyImages_rs1000x750g/Food/Objects_093_h.jpg,,,
,,,,,,,,,,,,,,main,5,21,female,R,Donders,2021-07-07_10h53.26.356,ImageRatingTask_S1,2021.1.4,Win32,59.97001499,,,,,,,,,,,1,3.5293,1,0.637,6,3.675,1,1.6409,2,0.5831,0,0,0,0,1,,,,,,,,,
,,,,,,,,,,,,,,second,5,21,female,R,Donders,2021-07-07_10h53.26.356,ImageRatingTask_S1,2021.1.4,Win32,59.97001499,,,,,,,,,,,,,,,,,,,,,0,1,1,1,1,,,,,,,,,
,,,,,,,,,,,,,,third,5,21,female,R,Donders,2021-07-07_10h53.26.356,ImageRatingTask_S1,2021.1.4,Win32,59.97001499,,,,,,,,,,,,,,,,,,,,,0,2,2,2,1,,,,,,,,,
,,,,,,,,,,,,,,fourth,5,21,female,R,Donders,2021-07-07_10h53.26.356,ImageRatingTask_S1,2021.1.4,Win32,59.97001499,,,,,,,,,,,,,,,,,,,,,0,3,3,3,1,,,,,,,,,
,,,,,,,,,,,,,,fifth,5,21,female,R,Donders,2021-07-07_10h53.26.356,ImageRatingTask_S1,2021.1.4,Win32,59.97001499,,,,,,,,,,,,,,,,,,,,,0,4,4,4,1,,,,,,,,,
,,,,,,,,,,,,,,sixth,5,21,female,R,Donders,2021-07-07_10h53.26.356,ImageRatingTask_S1,2021.1.4,Win32,59.97001499,,,,,,,,,,,,,,,,,,,,,0,5,5,5,1,,,,,,,,,
,,,,,,,,,,,,,,seventh,5,21,female,R,Donders,2021-07-07_10h53.26.356,ImageRatingTask_S1,2021.1.4,Win32,59.97001499,,,,,,,,,,,,,,,,,,,,,0,6,6,6,1,,,,,,,,,
,,,,,,,,,,,,,,last,5,21,female,R,Donders,2021-07-07_10h53.26.356,ImageRatingTask_S1,2021.1.4,Win32,59.97001499,,,,,,,,,,,,,,,,,,,,,0,7,7,7,1,,,,,,,,,
,,,,,,,,,,,,,,,5,21,female,R,Donders,2021-07-07_10h53.26.356,ImageRatingTask_S1,2021.1.4,Win32,59.97001499,,,,,,,,,,,,,,,,,,,,,,,,,,0,11,11,82,1,DreamStudyImages_rs1000x750g/Children/Faces_009_h.jpg,,,
,,,,,,,,,,,,,,main,5,21,female,R,Donders,2021-07-07_10h53.26.356,ImageRatingTask_S1,2021.1.4,Win32,59.97001499,,,,,,,,,,,1,2.1036,1,0.3295,7,2.0152,1,2.9499,3,1.11,0,0,0,0,1,,,,,,,,,
,,,,,,,,,,,,,,second,5,21,female,R,Donders,2021-07-07_10h53.26.356,ImageRatingTask_S1,2021.1.4,Win32,59.97001499,,,,,,,,,,,,,,,,,,,,,0,1,1,1,1,,,,,,,,,
,,,,,,,,,,,,,,third,5,21,female,R,Donders,2021-07-07_10h53.26.356,ImageRatingTask_S1,2021.1.4,Win32,59.97001499,,,,,,,,,,,,,,,,,,,,,0,2,2,2,1,,,,,,,,,
,,,,,,,,,,,,,,fourth,5,21,female,R,Donders,2021-07-07_10h53.26.356,ImageRatingTask_S1,2021.1.4,Win32,59.97001499,,,,,,,,,,,,,,,,,,,,,0,3,3,3,1,,,,,,,,,
,,,,,,,,,,,,,,fifth,5,21,female,R,Donders,2021-07-07_10h53.26.356,ImageRatingTask_S1,2021.1.4,Win32,59.97001499,,,,,,,,,,,,,,,,,,,,,0,4,4,4,1,,,,,,,,,
,,,,,,,,,,,,,,sixth,5,21,female,R,Donders,2021-07-07_10h53.26.356,ImageRatingTask_S1,2021.1.4,Win32,59.97001499,,,,,,,,,,,,,,,,,,,,,0,5,5,5,1,,,,,,,,,
,,,,,,,,,,,,,,seventh,5,21,female,R,Donders,2021-07-07_10h53.26.356,ImageRatingTask_S1,2021.1.4,Win32,59.97001499,,,,,,,,,,,,,,,,,,,,,0,6,6,6,1,,,,,,,,,
,,,,,,,,,,,,,,last,5,21,female,R,Donders,2021-07-07_10h53.26.356,ImageRatingTask_S1,2021.1.4,Win32,59.97001499,,,,,,,,,,,,,,,,,,,,,0,7,7,7,1,,,,,,,,,
,,,,,,,,,,,,,,,5,21,female,R,Donders,2021-07-07_10h53.26.356,ImageRatingTask_S1,2021.1.4,Win32,59.97001499,,,,,,,,,,,,,,,,,,,,,,,,,,0,12,12,77,1,DreamStudyImages_rs1000x750g/Mammals/Animals_019_h.jpg,,,
,,,,,,,,,,,,,,main,5,21,female,R,Donders,2021-07-07_10h53.26.356,ImageRatingTask_S1,2021.1.4,Win32,59.97001499,,,,,,,,,,,5,3.5292,1,1.2102,7,2.776,1,2.4286,5,1.1132,0,0,0,0,1,,,,,,,,,
,,,,,,,,,,,,,,second,5,21,female,R,Donders,2021-07-07_10h53.26.356,ImageRatingTask_S1,2021.1.4,Win32,59.97001499,,,,,,,,,,,,,,,,,,,,,0,1,1,1,1,,,,,,,,,
,,,,,,,,,,,,,,third,5,21,female,R,Donders,2021-07-07_10h53.26.356,ImageRatingTask_S1,2021.1.4,Win32,59.97001499,,,,,,,,,,,,,,,,,,,,,0,2,2,2,1,,,,,,,,,
,,,,,,,,,,,,,,fourth,5,21,female,R,Donders,2021-07-07_10h53.26.356,ImageRatingTask_S1,2021.1.4,Win32,59.97001499,,,,,,,,,,,,,,,,,,,,,0,3,3,3,1,,,,,,,,,
,,,,,,,,,,,,,,fifth,5,21,female,R,Donders,2021-07-07_10h53.26.356,ImageRatingTask_S1,2021.1.4,Win32,59.97001499,,,,,,,,,,,,,,,,,,,,,0,4,4,4,1,,,,,,,,,
,,,,,,,,,,,,,,sixth,5,21,female,R,Donders,2021-07-07_10h53.26.356,ImageRatingTask_S1,2021.1.4,Win32,59.97001499,,,,,,,,,,,,,,,,,,,,,0,5,5,5,1,,,,,,,,,
,,,,,,,,,,,,,,seventh,5,21,female,R,Donders,2021-07-07_10h53.26.356,ImageRatingTask_S1,2021.1.4,Win32,59.97001499,,,,,,,,,,,,,,,,,,,,,0,6,6,6,1,,,,,,,,,
,,,,,,,,,,,,,,last,5,21,female,R,Donders,2021-07-07_10h53.26.356,ImageRatingTask_S1,2021.1.4,Win32,59.97001499,,,,,,,,,,,,,,,,,,,,,0,7,7,7,1,,,,,,,,,
,,,,,,,,,,,,,,,5,21,female,R,Donders,2021-07-07_10h53.26.356,ImageRatingTask_S1,2021.1.4,Win32,59.97001499,,,,,,,,,,,,,,,,,,,,,,,,,,0,13,13,56,1,DreamStudyImages_rs1000x750g/Food/Objects_082_h.jpg,,,
,,,,,,,,,,,,,,main,5,21,female,R,Donders,2021-07-07_10h53.26.356,ImageRatingTask_S1,2021.1.4,Win32,59.97001499,,,,,,,,,,,8,5.4648,2,1.7065,7,2.854,1,1.8301,3,0.9135,0,0,0,0,1,,,,,,,,,
,,,,,,,,,,,,,,second,5,21,female,R,Donders,2021-07-07_10h53.26.356,ImageRatingTask_S1,2021.1.4,Win32,59.97001499,,,,,,,,,,,,,,,,,,,,,0,1,1,1,1,,,,,,,,,
,,,,,,,,,,,,,,third,5,21,female,R,Donders,2021-07-07_10h53.26.356,ImageRatingTask_S1,2021.1.4,Win32,59.97001499,,,,,,,,,,,,,,,,,,,,,0,2,2,2,1,,,,,,,,,
,,,,,,,,,,,,,,fourth,5,21,female,R,Donders,2021-07-07_10h53.26.356,ImageRatingTask_S1,2021.1.4,Win32,59.97001499,,,,,,,,,,,,,,,,,,,,,0,3,3,3,1,,,,,,,,,
,,,,,,,,,,,,,,fifth,5,21,female,R,Donders,2021-07-07_10h53.26.356,ImageRatingTask_S1,2021.1.4,Win32,59.97001499,,,,,,,,,,,,,,,,,,,,,0,4,4,4,1,,,,,,,,,
,,,,,,,,,,,,,,sixth,5,21,female,R,Donders,2021-07-07_10h53.26.356,ImageRatingTask_S1,2021.1.4,Win32,59.97001499,,,,,,,,,,,,,,,,,,,,,0,5,5,5,1,,,,,,,,,
,,,,,,,,,,,,,,seventh,5,21,female,R,Donders,2021-07-07_10h53.26.356,ImageRatingTask_S1,2021.1.4,Win32,59.97001499,,,,,,,,,,,,,,,,,,,,,0,6,6,6,1,,,,,,,,,
,,,,,,,,,,,,,,last,5,21,female,R,Donders,2021-07-07_10h53.26.356,ImageRatingTask_S1,2021.1.4,Win32,59.97001499,,,,,,,,,,,,,,,,,,,,,0,7,7,7,1,,,,,,,,,
,,,,,,,,,,,,,,,5,21,female,R,Donders,2021-07-07_10h53.26.356,ImageRatingTask_S1,2021.1.4,Win32,59.97001499,,,,,,,,,,,,,,,,,,,,,,,,,,0,14,14,64,1,DreamStudyImages_rs1000x750g/Mammals/IAPS1722_leopardcubs.jpg,,,
,,,,,,,,,,,,,,main,5,21,female,R,Donders,2021-07-07_10h53.26.356,ImageRatingTask_S1,2021.1.4,Win32,59.97001499,,,,,,,,,,,1,5.5626,1,0.7456,7,1.7005,0,1.9662,,,0,0,0,0,1,,,,,,,,,
,,,,,,,,,,,,,,second,5,21,female,R,Donders,2021-07-07_10h53.26.356,ImageRatingTask_S1,2021.1.4,Win32,59.97001499,,,,,,,,,,,,,,,,,,,,,0,1,1,1,1,,,,,,,,,
,,,,,,,,,,,,,,third,5,21,female,R,Donders,2021-07-07_10h53.26.356,ImageRatingTask_S1,2021.1.4,Win32,59.97001499,,,,,,,,,,,,,,,,,,,,,0,2,2,2,1,,,,,,,,,
,,,,,,,,,,,,,,fourth,5,21,female,R,Donders,2021-07-07_10h53.26.356,ImageRatingTask_S1,2021.1.4,Win32,59.97001499,,,,,,,,,,,,,,,,,,,,,0,3,3,3,1,,,,,,,,,
,,,,,,,,,,,,,,fifth,5,21,female,R,Donders,2021-07-07_10h53.26.356,ImageRatingTask_S1,2021.1.4,Win32,59.97001499,,,,,,,,,,,,,,,,,,,,,0,4,4,4,1,,,,,,,,,
,,,,,,,,,,,,,,sixth,5,21,female,R,Donders,2021-07-07_10h53.26.356,ImageRatingTask_S1,2021.1.4,Win32,59.97001499,,,,,,,,,,,,,,,,,,,,,0,5,5,5,1,,,,,,,,,
,,,,,,,,,,,,,,seventh,5,21,female,R,Donders,2021-07-07_10h53.26.356,ImageRatingTask_S1,2021.1.4,Win32,59.97001499,,,,,,,,,,,,,,,,,,,,,0,6,6,6,1,,,,,,,,,
,,,,,,,,,,,,,,last,5,21,female,R,Donders,2021-07-07_10h53.26.356,ImageRatingTask_S1,2021.1.4,Win32,59.97001499,,,,,,,,,,,,,,,,,,,,,0,7,7,7,1,,,,,,,,,
,,,,,,,,,,,,,,,5,21,female,R,Donders,2021-07-07_10h53.26.356,ImageRatingTask_S1,2021.1.4,Win32,59.97001499,,,,,,,,,,,,,,,,,,,,,,,,,,0,15,15,5,1,DreamStudyImages_rs1000x750g/Houses/Landscapes_007_h.jpg,,,
,,,,,,,,,,,,,,main,5,21,female,R,Donders,2021-07-07_10h53.26.356,ImageRatingTask_S1,2021.1.4,Win32,59.97001499,,,,,,,,,,,8,2.8325,2,8.468,7,1.696,1,1.8342,8,1.0664,0,0,0,0,1,,,,,,,,,
,,,,,,,,,,,,,,second,5,21,female,R,Donders,2021-07-07_10h53.26.356,ImageRatingTask_S1,2021.1.4,Win32,59.97001499,,,,,,,,,,,,,,,,,,,,,0,1,1,1,1,,,,,,,,,
,,,,,,,,,,,,,,third,5,21,female,R,Donders,2021-07-07_10h53.26.356,ImageRatingTask_S1,2021.1.4,Win32,59.97001499,,,,,,,,,,,,,,,,,,,,,0,2,2,2,1,,,,,,,,,
,,,,,,,,,,,,,,fourth,5,21,female,R,Donders,2021-07-07_10h53.26.356,ImageRatingTask_S1,2021.1.4,Win32,59.97001499,,,,,,,,,,,,,,,,,,,,,0,3,3,3,1,,,,,,,,,
,,,,,,,,,,,,,,fifth,5,21,female,R,Donders,2021-07-07_10h53.26.356,ImageRatingTask_S1,2021.1.4,Win32,59.97001499,,,,,,,,,,,,,,,,,,,,,0,4,4,4,1,,,,,,,,,
,,,,,,,,,,,,,,sixth,5,21,female,R,Donders,2021-07-07_10h53.26.356,ImageRatingTask_S1,2021.1.4,Win32,59.97001499,,,,,,,,,,,,,,,,,,,,,0,5,5,5,1,,,,,,,,,
,,,,,,,,,,,,,,seventh,5,21,female,R,Donders,2021-07-07_10h53.26.356,ImageRatingTask_S1,2021.1.4,Win32,59.97001499,,,,,,,,,,,,,,,,,,,,,0,6,6,6,1,,,,,,,,,
,,,,,,,,,,,,,,last,5,21,female,R,Donders,2021-07-07_10h53.26.356,ImageRatingTask_S1,2021.1.4,Win32,59.97001499,,,,,,,,,,,,,,,,,,,,,0,7,7,7,1,,,,,,,,,
,,,,,,,,,,,,,,,5,21,female,R,Donders,2021-07-07_10h53.26.356,ImageRatingTask_S1,2021.1.4,Win32,59.97001499,,,,,,,,,,,,,,,,,,,,,,,,,,0,16,16,96,1,DreamStudyImages_rs1000x750g/Water/waveonrocks.jpg,,,
,,,,,,,,,,,,,,main,5,21,female,R,Donders,2021-07-07_10h53.26.356,ImageRatingTask_S1,2021.1.4,Win32,59.97001499,,,,,,,,,,,9,1.9517,4,2.0288,7,4.8177,1,1.3411,8,1.2595,0,0,0,0,1,,,,,,,,,
,,,,,,,,,,,,,,second,5,21,female,R,Donders,2021-07-07_10h53.26.356,ImageRatingTask_S1,2021.1.4,Win32,59.97001499,,,,,,,,,,,,,,,,,,,,,0,1,1,1,1,,,,,,,,,
,,,,,,,,,,,,,,third,5,21,female,R,Donders,2021-07-07_10h53.26.356,ImageRatingTask_S1,2021.1.4,Win32,59.97001499,,,,,,,,,,,,,,,,,,,,,0,2,2,2,1,,,,,,,,,
,,,,,,,,,,,,,,fourth,5,21,female,R,Donders,2021-07-07_10h53.26.356,ImageRatingTask_S1,2021.1.4,Win32,59.97001499,,,,,,,,,,,,,,,,,,,,,0,3,3,3,1,,,,,,,,,
,,,,,,,,,,,,,,fifth,5,21,female,R,Donders,2021-07-07_10h53.26.356,ImageRatingTask_S1,2021.1.4,Win32,59.97001499,,,,,,,,,,,,,,,,,,,,,0,4,4,4,1,,,,,,,,,
,,,,,,,,,,,,,,sixth,5,21,female,R,Donders,2021-07-07_10h53.26.356,ImageRatingTask_S1,2021.1.4,Win32,59.97001499,,,,,,,,,,,,,,,,,,,,,0,5,5,5,1,,,,,,,,,
,,,,,,,,,,,,,,seventh,5,21,female,R,Donders,2021-07-07_10h53.26.356,ImageRatingTask_S1,2021.1.4,Win32,59.97001499,,,,,,,,,,,,,,,,,,,,,0,6,6,6,1,,,,,,,,,
,,,,,,,,,,,,,,last,5,21,female,R,Donders,2021-07-07_10h53.26.356,ImageRatingTask_S1,2021.1.4,Win32,59.97001499,,,,,,,,,,,,,,,,,,,,,0,7,7,7,1,,,,,,,,,
,,,,,,,,,,,,,,,5,21,female,R,Donders,2021-07-07_10h53.26.356,ImageRatingTask_S1,2021.1.4,Win32,59.97001499,,,,,,,,,,,,,,,,,,,,,,,,,,0,17,17,32,1,DreamStudyImages_rs1000x750g/Water/Beach 2.jpg,,,
,,,,,,,,,,,,,,main,5,21,female,R,Donders,2021-07-07_10h53.26.356,ImageRatingTask_S1,2021.1.4,Win32,59.97001499,,,,,,,,,,,5,4.4878,1,0.892,7,1.838,1,1.9522,2,0.7939,0,0,0,0,1,,,,,,,,,
,,,,,,,,,,,,,,second,5,21,female,R,Donders,2021-07-07_10h53.26.356,ImageRatingTask_S1,2021.1.4,Win32,59.97001499,,,,,,,,,,,,,,,,,,,,,0,1,1,1,1,,,,,,,,,
,,,,,,,,,,,,,,third,5,21,female,R,Donders,2021-07-07_10h53.26.356,ImageRatingTask_S1,2021.1.4,Win32,59.97001499,,,,,,,,,,,,,,,,,,,,,0,2,2,2,1,,,,,,,,,
,,,,,,,,,,,,,,fourth,5,21,female,R,Donders,2021-07-07_10h53.26.356,ImageRatingTask_S1,2021.1.4,Win32,59.97001499,,,,,,,,,,,,,,,,,,,,,0,3,3,3,1,,,,,,,,,
,,,,,,,,,,,,,,fifth,5,21,female,R,Donders,2021-07-07_10h53.26.356,ImageRatingTask_S1,2021.1.4,Win32,59.97001499,,,,,,,,,,,,,,,,,,,,,0,4,4,4,1,,,,,,,,,
,,,,,,,,,,,,,,sixth,5,21,female,R,Donders,2021-07-07_10h53.26.356,ImageRatingTask_S1,2021.1.4,Win32,59.97001499,,,,,,,,,,,,,,,,,,,,,0,5,5,5,1,,,,,,,,,
,,,,,,,,,,,,,,seventh,5,21,female,R,Donders,2021-07-07_10h53.26.356,ImageRatingTask_S1,2021.1.4,Win32,59.97001499,,,,,,,,,,,,,,,,,,,,,0,6,6,6,1,,,,,,,,,
,,,,,,,,,,,,,,last,5,21,female,R,Donders,2021-07-07_10h53.26.356,ImageRatingTask_S1,2021.1.4,Win32,59.97001499,,,,,,,,,,,,,,,,,,,,,0,7,7,7,1,,,,,,,,,
,,,,,,,,,,,,,,,5,21,female,R,Donders,2021-07-07_10h53.26.356,ImageRatingTask_S1,2021.1.4,Win32,59.97001499,,,,,,,,,,,,,,,,,,,,,,,,,,0,18,18,25,1,DreamStudyImages_rs1000x750g/Children/Faces_033_h.jpg,,,
,,,,,,,,,,,,,,main,5,21,female,R,Donders,2021-07-07_10h53.26.356,ImageRatingTask_S1,2021.1.4,Win32,59.97001499,,,,,,,,,,,5,2.9299,1,0.8037,8,1.4985,1,1.0295,2,0.4839,0,0,0,0,1,,,,,,,,,
,,,,,,,,,,,,,,second,5,21,female,R,Donders,2021-07-07_10h53.26.356,ImageRatingTask_S1,2021.1.4,Win32,59.97001499,,,,,,,,,,,,,,,,,,,,,0,1,1,1,1,,,,,,,,,
,,,,,,,,,,,,,,third,5,21,female,R,Donders,2021-07-07_10h53.26.356,ImageRatingTask_S1,2021.1.4,Win32,59.97001499,,,,,,,,,,,,,,,,,,,,,0,2,2,2,1,,,,,,,,,
,,,,,,,,,,,,,,fourth,5,21,female,R,Donders,2021-07-07_10h53.26.356,ImageRatingTask_S1,2021.1.4,Win32,59.97001499,,,,,,,,,,,,,,,,,,,,,0,3,3,3,1,,,,,,,,,
,,,,,,,,,,,,,,fifth,5,21,female,R,Donders,2021-07-07_10h53.26.356,ImageRatingTask_S1,2021.1.4,Win32,59.97001499,,,,,,,,,,,,,,,,,,,,,0,4,4,4,1,,,,,,,,,
,,,,,,,,,,,,,,sixth,5,21,female,R,Donders,2021-07-07_10h53.26.356,ImageRatingTask_S1,2021.1.4,Win32,59.97001499,,,,,,,,,,,,,,,,,,,,,0,5,5,5,1,,,,,,,,,
,,,,,,,,,,,,,,seventh,5,21,female,R,Donders,2021-07-07_10h53.26.356,ImageRatingTask_S1,2021.1.4,Win32,59.97001499,,,,,,,,,,,,,,,,,,,,,0,6,6,6,1,,,,,,,,,
,,,,,,,,,,,,,,last,5,21,female,R,Donders,2021-07-07_10h53.26.356,ImageRatingTask_S1,2021.1.4,Win32,59.97001499,,,,,,,,,,,,,,,,,,,,,0,7,7,7,1,,,,,,,,,
,,,,,,,,,,,,,,,5,21,female,R,Donders,2021-07-07_10h53.26.356,ImageRatingTask_S1,2021.1.4,Win32,59.97001499,,,,,,,,,,,,,,,,,,,,,,,,,,0,19,19,117,1,DreamStudyImages_rs1000x750g/Children/Sad face 2.jpg,,,
,,,,,,,,,,,,,,main,5,21,female,R,Donders,2021-07-07_10h53.26.356,ImageRatingTask_S1,2021.1.4,Win32,59.97001499,,,,,,,,,,,3,3.3363,1,1.1502,7,1.7785,1,1.7515,7,1.1796,0,0,0,0,1,,,,,,,,,
,,,,,,,,,,,,,,second,5,21,female,R,Donders,2021-07-07_10h53.26.356,ImageRatingTask_S1,2021.1.4,Win32,59.97001499,,,,,,,,,,,,,,,,,,,,,0,1,1,1,1,,,,,,,,,
,,,,,,,,,,,,,,third,5,21,female,R,Donders,2021-07-07_10h53.26.356,ImageRatingTask_S1,2021.1.4,Win32,59.97001499,,,,,,,,,,,,,,,,,,,,,0,2,2,2,1,,,,,,,,,
,,,,,,,,,,,,,,fourth,5,21,female,R,Donders,2021-07-07_10h53.26.356,ImageRatingTask_S1,2021.1.4,Win32,59.97001499,,,,,,,,,,,,,,,,,,,,,0,3,3,3,1,,,,,,,,,
,,,,,,,,,,,,,,fifth,5,21,female,R,Donders,2021-07-07_10h53.26.356,ImageRatingTask_S1,2021.1.4,Win32,59.97001499,,,,,,,,,,,,,,,,,,,,,0,4,4,4,1,,,,,,,,,
,,,,,,,,,,,,,,sixth,5,21,female,R,Donders,2021-07-07_10h53.26.356,ImageRatingTask_S1,2021.1.4,Win32,59.97001499,,,,,,,,,,,,,,,,,,,,,0,5,5,5,1,,,,,,,,,
,,,,,,,,,,,,,,seventh,5,21,female,R,Donders,2021-07-07_10h53.26.356,ImageRatingTask_S1,2021.1.4,Win32,59.97001499,,,,,,,,,,,,,,,,,,,,,0,6,6,6,1,,,,,,,,,
,,,,,,,,,,,,,,last,5,21,female,R,Donders,2021-07-07_10h53.26.356,ImageRatingTask_S1,2021.1.4,Win32,59.97001499,,,,,,,,,,,,,,,,,,,,,0,7,7,7,1,,,,,,,,,
,,,,,,,,,,,,,,,5,21,female,R,Donders,2021-07-07_10h53.26.356,ImageRatingTask_S1,2021.1.4,Win32,59.97001499,,,,,,,,,,,,,,,,,,,,,,,,,,0,20,20,119,1,DreamStudyImages_rs1000x750g/Vehicles/Ambulance 2.jpg,,,
,,,,,,,,,,,,,,main,5,21,female,R,Donders,2021-07-07_10h53.26.356,ImageRatingTask_S1,2021.1.4,Win32,59.97001499,,,,,,,,,,,8,2.0502,3,1.6293,8,2.1254,1,1.0947,3,2.2611,0,0,0,0,1,,,,,,,,,
,,,,,,,,,,,,,,second,5,21,female,R,Donders,2021-07-07_10h53.26.356,ImageRatingTask_S1,2021.1.4,Win32,59.97001499,,,,,,,,,,,,,,,,,,,,,0,1,1,1,1,,,,,,,,,
,,,,,,,,,,,,,,third,5,21,female,R,Donders,2021-07-07_10h53.26.356,ImageRatingTask_S1,2021.1.4,Win32,59.97001499,,,,,,,,,,,,,,,,,,,,,0,2,2,2,1,,,,,,,,,
,,,,,,,,,,,,,,fourth,5,21,female,R,Donders,2021-07-07_10h53.26.356,ImageRatingTask_S1,2021.1.4,Win32,59.97001499,,,,,,,,,,,,,,,,,,,,,0,3,3,3,1,,,,,,,,,
,,,,,,,,,,,,,,fifth,5,21,female,R,Donders,2021-07-07_10h53.26.356,ImageRatingTask_S1,2021.1.4,Win32,59.97001499,,,,,,,,,,,,,,,,,,,,,0,4,4,4,1,,,,,,,,,
,,,,,,,,,,,,,,sixth,5,21,female,R,Donders,2021-07-07_10h53.26.356,ImageRatingTask_S1,2021.1.4,Win32,59.97001499,,,,,,,,,,,,,,,,,,,,,0,5,5,5,1,,,,,,,,,
,,,,,,,,,,,,,,seventh,5,21,female,R,Donders,2021-07-07_10h53.26.356,ImageRatingTask_S1,2021.1.4,Win32,59.97001499,,,,,,,,,,,,,,,,,,,,,0,6,6,6,1,,,,,,,,,
,,,,,,,,,,,,,,last,5,21,female,R,Donders,2021-07-07_10h53.26.356,ImageRatingTask_S1,2021.1.4,Win32,59.97001499,,,,,,,,,,,,,,,,,,,,,0,7,7,7,1,,,,,,,,,
,,,,,,,,,,,,,,,5,21,female,R,Donders,2021-07-07_10h53.26.356,ImageRatingTask_S1,2021.1.4,Win32,59.97001499,,,,,,,,,,,,,,,,,,,,,,,,,,0,21,21,31,1,DreamStudyImages_rs1000x750g/Mammals/Animals_163_h.jpg,,,
,,,,,,,,,,,,,,main,5,21,female,R,Donders,2021-07-07_10h53.26.356,ImageRatingTask_S1,2021.1.4,Win32,59.97001499,,,,,,,,,,,6,3.0836,1,1.2409,9,2.8001,1,1.9037,3,1.085,0,0,0,0,1,,,,,,,,,
,,,,,,,,,,,,,,second,5,21,female,R,Donders,2021-07-07_10h53.26.356,ImageRatingTask_S1,2021.1.4,Win32,59.97001499,,,,,,,,,,,,,,,,,,,,,0,1,1,1,1,,,,,,,,,
,,,,,,,,,,,,,,third,5,21,female,R,Donders,2021-07-07_10h53.26.356,ImageRatingTask_S1,2021.1.4,Win32,59.97001499,,,,,,,,,,,,,,,,,,,,,0,2,2,2,1,,,,,,,,,
,,,,,,,,,,,,,,fourth,5,21,female,R,Donders,2021-07-07_10h53.26.356,ImageRatingTask_S1,2021.1.4,Win32,59.97001499,,,,,,,,,,,,,,,,,,,,,0,3,3,3,1,,,,,,,,,
,,,,,,,,,,,,,,fifth,5,21,female,R,Donders,2021-07-07_10h53.26.356,ImageRatingTask_S1,2021.1.4,Win32,59.97001499,,,,,,,,,,,,,,,,,,,,,0,4,4,4,1,,,,,,,,,
,,,,,,,,,,,,,,sixth,5,21,female,R,Donders,2021-07-07_10h53.26.356,ImageRatingTask_S1,2021.1.4,Win32,59.97001499,,,,,,,,,,,,,,,,,,,,,0,5,5,5,1,,,,,,,,,
,,,,,,,,,,,,,,seventh,5,21,female,R,Donders,2021-07-07_10h53.26.356,ImageRatingTask_S1,2021.1.4,Win32,59.97001499,,,,,,,,,,,,,,,,,,,,,0,6,6,6,1,,,,,,,,,
,,,,,,,,,,,,,,last,5,21,female,R,Donders,2021-07-07_10h53.26.356,ImageRatingTask_S1,2021.1.4,Win32,59.97001499,,,,,,,,,,,,,,,,,,,,,0,7,7,7,1,,,,,,,,,
,,,,,,,,,,,,,,,5,21,female,R,Donders,2021-07-07_10h53.26.356,ImageRatingTask_S1,2021.1.4,Win32,59.97001499,,,,,,,,,,,,,,,,,,,,,,,,,,0,22,22,18,1,DreamStudyImages_rs1000x750g/Mammals/Animals_168_h.jpg,,,
,,,,,,,,,,,,,,main,5,21,female,R,Donders,2021-07-07_10h53.26.356,ImageRatingTask_S1,2021.1.4,Win32,59.97001499,,,,,,,,,,,7,5.9568,1,1.3565,7,2.5422,1,2.2844,5,1.2022,0,0,0,0,1,,,,,,,,,
,,,,,,,,,,,,,,second,5,21,female,R,Donders,2021-07-07_10h53.26.356,ImageRatingTask_S1,2021.1.4,Win32,59.97001499,,,,,,,,,,,,,,,,,,,,,0,1,1,1,1,,,,,,,,,
,,,,,,,,,,,,,,third,5,21,female,R,Donders,2021-07-07_10h53.26.356,ImageRatingTask_S1,2021.1.4,Win32,59.97001499,,,,,,,,,,,,,,,,,,,,,0,2,2,2,1,,,,,,,,,
,,,,,,,,,,,,,,fourth,5,21,female,R,Donders,2021-07-07_10h53.26.356,ImageRatingTask_S1,2021.1.4,Win32,59.97001499,,,,,,,,,,,,,,,,,,,,,0,3,3,3,1,,,,,,,,,
,,,,,,,,,,,,,,fifth,5,21,female,R,Donders,2021-07-07_10h53.26.356,ImageRatingTask_S1,2021.1.4,Win32,59.97001499,,,,,,,,,,,,,,,,,,,,,0,4,4,4,1,,,,,,,,,
,,,,,,,,,,,,,,sixth,5,21,female,R,Donders,2021-07-07_10h53.26.356,ImageRatingTask_S1,2021.1.4,Win32,59.97001499,,,,,,,,,,,,,,,,,,,,,0,5,5,5,1,,,,,,,,,
,,,,,,,,,,,,,,seventh,5,21,female,R,Donders,2021-07-07_10h53.26.356,ImageRatingTask_S1,2021.1.4,Win32,59.97001499,,,,,,,,,,,,,,,,,,,,,0,6,6,6,1,,,,,,,,,
,,,,,,,,,,,,,,last,5,21,female,R,Donders,2021-07-07_10h53.26.356,ImageRatingTask_S1,2021.1.4,Win32,59.97001499,,,,,,,,,,,,,,,,,,,,,0,7,7,7,1,,,,,,,,,
,,,,,,,,,,,,,,,5,21,female,R,Donders,2021-07-07_10h53.26.356,ImageRatingTask_S1,2021.1.4,Win32,59.97001499,,,,,,,,,,,,,,,,,,,,,,,,,,0,23,23,47,1,DreamStudyImages_rs1000x750g/Food/IAPS7482_diner4.jpg,,,
,,,,,,,,,,,,,,main,5,21,female,R,Donders,2021-07-07_10h53.26.356,ImageRatingTask_S1,2021.1.4,Win32,59.97001499,,,,,,,,,,,6,8.6293,1,1.9442,6,3.4782,1,1.0801,5,1.4236,0,0,0,0,1,,,,,,,,,
,,,,,,,,,,,,,,second,5,21,female,R,Donders,2021-07-07_10h53.26.356,ImageRatingTask_S1,2021.1.4,Win32,59.97001499,,,,,,,,,,,,,,,,,,,,,0,1,1,1,1,,,,,,,,,
,,,,,,,,,,,,,,third,5,21,female,R,Donders,2021-07-07_10h53.26.356,ImageRatingTask_S1,2021.1.4,Win32,59.97001499,,,,,,,,,,,,,,,,,,,,,0,2,2,2,1,,,,,,,,,
,,,,,,,,,,,,,,fourth,5,21,female,R,Donders,2021-07-07_10h53.26.356,ImageRatingTask_S1,2021.1.4,Win32,59.97001499,,,,,,,,,,,,,,,,,,,,,0,3,3,3,1,,,,,,,,,
,,,,,,,,,,,,,,fifth,5,21,female,R,Donders,2021-07-07_10h53.26.356,ImageRatingTask_S1,2021.1.4,Win32,59.97001499,,,,,,,,,,,,,,,,,,,,,0,4,4,4,1,,,,,,,,,
,,,,,,,,,,,,,,sixth,5,21,female,R,Donders,2021-07-07_10h53.26.356,ImageRatingTask_S1,2021.1.4,Win32,59.97001499,,,,,,,,,,,,,,,,,,,,,0,5,5,5,1,,,,,,,,,
,,,,,,,,,,,,,,seventh,5,21,female,R,Donders,2021-07-07_10h53.26.356,ImageRatingTask_S1,2021.1.4,Win32,59.97001499,,,,,,,,,,,,,,,,,,,,,0,6,6,6,1,,,,,,,,,
,,,,,,,,,,,,,,last,5,21,female,R,Donders,2021-07-07_10h53.26.356,ImageRatingTask_S1,2021.1.4,Win32,59.97001499,,,,,,,,,,,,,,,,,,,,,0,7,7,7,1,,,,,,,,,
,,,,,,,,,,,,,,,5,21,female,R,Donders,2021-07-07_10h53.26.356,ImageRatingTask_S1,2021.1.4,Win32,59.97001499,,,,,,,,,,,,,,,,,,,,,,,,,,0,24,24,14,1,DreamStudyImages_rs1000x750g/Food/IAPS7481_diner3.jpg,,,
,,,,,,,,,,,,,,main,5,21,female,R,Donders,2021-07-07_10h53.26.356,ImageRatingTask_S1,2021.1.4,Win32,59.97001499,,,,,,,,,,,6,3.8569,1,1.0394,7,5.8253,1,1.2671,6,2.1068,0,0,0,0,1,,,,,,,,,
,,,,,,,,,,,,,,second,5,21,female,R,Donders,2021-07-07_10h53.26.356,ImageRatingTask_S1,2021.1.4,Win32,59.97001499,,,,,,,,,,,,,,,,,,,,,0,1,1,1,1,,,,,,,,,
,,,,,,,,,,,,,,third,5,21,female,R,Donders,2021-07-07_10h53.26.356,ImageRatingTask_S1,2021.1.4,Win32,59.97001499,,,,,,,,,,,,,,,,,,,,,0,2,2,2,1,,,,,,,,,
,,,,,,,,,,,,,,fourth,5,21,female,R,Donders,2021-07-07_10h53.26.356,ImageRatingTask_S1,2021.1.4,Win32,59.97001499,,,,,,,,,,,,,,,,,,,,,0,3,3,3,1,,,,,,,,,
,,,,,,,,,,,,,,fifth,5,21,female,R,Donders,2021-07-07_10h53.26.356,ImageRatingTask_S1,2021.1.4,Win32,59.97001499,,,,,,,,,,,,,,,,,,,,,0,4,4,4,1,,,,,,,,,
,,,,,,,,,,,,,,sixth,5,21,female,R,Donders,2021-07-07_10h53.26.356,ImageRatingTask_S1,2021.1.4,Win32,59.97001499,,,,,,,,,,,,,,,,,,,,,0,5,5,5,1,,,,,,,,,
,,,,,,,,,,,,,,seventh,5,21,female,R,Donders,2021-07-07_10h53.26.356,ImageRatingTask_S1,2021.1.4,Win32,59.97001499,,,,,,,,,,,,,,,,,,,,,0,6,6,6,1,,,,,,,,,
,,,,,,,,,,,,,,last,5,21,female,R,Donders,2021-07-07_10h53.26.356,ImageRatingTask_S1,2021.1.4,Win32,59.97001499,,,,,,,,,,,,,,,,,,,,,0,7,7,7,1,,,,,,,,,
,,,,,,,,,,,,,,,5,21,female,R,Donders,2021-07-07_10h53.26.356,ImageRatingTask_S1,2021.1.4,Win32,59.97001499,,,,,,,,,,,,,,,,,,,,,,,,,,0,25,25,100,1,DreamStudyImages_rs1000x750g/Houses/Landscapes_056_h.jpg,,,
,,,,,,,,,,,,,,main,5,21,female,R,Donders,2021-07-07_10h53.26.356,ImageRatingTask_S1,2021.1.4,Win32,59.97001499,,,,,,,,,,,9,3.2056,4,1.4172,8,2.3575,1,10.9986,3,0.4518,0,0,0,0,1,,,,,,,,,
,,,,,,,,,,,,,,second,5,21,female,R,Donders,2021-07-07_10h53.26.356,ImageRatingTask_S1,2021.1.4,Win32,59.97001499,,,,,,,,,,,,,,,,,,,,,0,1,1,1,1,,,,,,,,,
,,,,,,,,,,,,,,third,5,21,female,R,Donders,2021-07-07_10h53.26.356,ImageRatingTask_S1,2021.1.4,Win32,59.97001499,,,,,,,,,,,,,,,,,,,,,0,2,2,2,1,,,,,,,,,
,,,,,,,,,,,,,,fourth,5,21,female,R,Donders,2021-07-07_10h53.26.356,ImageRatingTask_S1,2021.1.4,Win32,59.97001499,,,,,,,,,,,,,,,,,,,,,0,3,3,3,1,,,,,,,,,
,,,,,,,,,,,,,,fifth,5,21,female,R,Donders,2021-07-07_10h53.26.356,ImageRatingTask_S1,2021.1.4,Win32,59.97001499,,,,,,,,,,,,,,,,,,,,,0,4,4,4,1,,,,,,,,,
,,,,,,,,,,,,,,sixth,5,21,female,R,Donders,2021-07-07_10h53.26.356,ImageRatingTask_S1,2021.1.4,Win32,59.97001499,,,,,,,,,,,,,,,,,,,,,0,5,5,5,1,,,,,,,,,
,,,,,,,,,,,,,,seventh,5,21,female,R,Donders,2021-07-07_10h53.26.356,ImageRatingTask_S1,2021.1.4,Win32,59.97001499,,,,,,,,,,,,,,,,,,,,,0,6,6,6,1,,,,,,,,,
,,,,,,,,,,,,,,last,5,21,female,R,Donders,2021-07-07_10h53.26.356,ImageRatingTask_S1,2021.1.4,Win32,59.97001499,,,,,,,,,,,,,,,,,,,,,0,7,7,7,1,,,,,,,,,
,,,,,,,,,,,,,,,5,21,female,R,Donders,2021-07-07_10h53.26.356,ImageRatingTask_S1,2021.1.4,Win32,59.97001499,,,,,,,,,,,,,,,,,,,,,,,,,,0,26,26,74,1,DreamStudyImages_rs1000x750g/Mammals/Animals_207_h.jpg,,,
,,,,,,,,,,,,,,main,5,21,female,R,Donders,2021-07-07_10h53.26.356,ImageRatingTask_S1,2021.1.4,Win32,59.97001499,,,,,,,,,,,8,2.5845,3,1.49,7,3.1675,1,1.049,5,1.0568,0,0,0,0,1,,,,,,,,,
,,,,,,,,,,,,,,second,5,21,female,R,Donders,2021-07-07_10h53.26.356,ImageRatingTask_S1,2021.1.4,Win32,59.97001499,,,,,,,,,,,,,,,,,,,,,0,1,1,1,1,,,,,,,,,
,,,,,,,,,,,,,,third,5,21,female,R,Donders,2021-07-07_10h53.26.356,ImageRatingTask_S1,2021.1.4,Win32,59.97001499,,,,,,,,,,,,,,,,,,,,,0,2,2,2,1,,,,,,,,,
,,,,,,,,,,,,,,fourth,5,21,female,R,Donders,2021-07-07_10h53.26.356,ImageRatingTask_S1,2021.1.4,Win32,59.97001499,,,,,,,,,,,,,,,,,,,,,0,3,3,3,1,,,,,,,,,
,,,,,,,,,,,,,,fifth,5,21,female,R,Donders,2021-07-07_10h53.26.356,ImageRatingTask_S1,2021.1.4,Win32,59.97001499,,,,,,,,,,,,,,,,,,,,,0,4,4,4,1,,,,,,,,,
,,,,,,,,,,,,,,sixth,5,21,female,R,Donders,2021-07-07_10h53.26.356,ImageRatingTask_S1,2021.1.4,Win32,59.97001499,,,,,,,,,,,,,,,,,,,,,0,5,5,5,1,,,,,,,,,
,,,,,,,,,,,,,,seventh,5,21,female,R,Donders,2021-07-07_10h53.26.356,ImageRatingTask_S1,2021.1.4,Win32,59.97001499,,,,,,,,,,,,,,,,,,,,,0,6,6,6,1,,,,,,,,,
,,,,,,,,,,,,,,last,5,21,female,R,Donders,2021-07-07_10h53.26.356,ImageRatingTask_S1,2021.1.4,Win32,59.97001499,,,,,,,,,,,,,,,,,,,,,0,7,7,7,1,,,,,,,,,
,,,,,,,,,,,,,,,5,21,female,R,Donders,2021-07-07_10h53.26.356,ImageRatingTask_S1,2021.1.4,Win32,59.97001499,,,,,,,,,,,,,,,,,,,,,,,,,,0,27,27,122,1,DreamStudyImages_rs1000x750g/Food/Food 5.jpg,,,
,,,,,,,,,,,,,,main,5,21,female,R,Donders,2021-07-07_10h53.26.356,ImageRatingTask_S1,2021.1.4,Win32,59.97001499,,,,,,,,,,,6,3.5533,2,1.1696,6,4.1061,2,5.7728,7,1.0533,0,0,0,0,1,,,,,,,,,
,,,,,,,,,,,,,,second,5,21,female,R,Donders,2021-07-07_10h53.26.356,ImageRatingTask_S1,2021.1.4,Win32,59.97001499,,,,,,,,,,,,,,,,,,,8,0.8201,0,1,1,1,1,,,,,,,,,
,,,,,,,,,,,,,,third,5,21,female,R,Donders,2021-07-07_10h53.26.356,ImageRatingTask_S1,2021.1.4,Win32,59.97001499,,,,,,,,,,,,,,,,,,,,,0,2,2,2,1,,,,,,,,,
,,,,,,,,,,,,,,fourth,5,21,female,R,Donders,2021-07-07_10h53.26.356,ImageRatingTask_S1,2021.1.4,Win32,59.97001499,,,,,,,,,,,,,,,,,,,,,0,3,3,3,1,,,,,,,,,
,,,,,,,,,,,,,,fifth,5,21,female,R,Donders,2021-07-07_10h53.26.356,ImageRatingTask_S1,2021.1.4,Win32,59.97001499,,,,,,,,,,,,,,,,,,,,,0,4,4,4,1,,,,,,,,,
,,,,,,,,,,,,,,sixth,5,21,female,R,Donders,2021-07-07_10h53.26.356,ImageRatingTask_S1,2021.1.4,Win32,59.97001499,,,,,,,,,,,,,,,,,,,,,0,5,5,5,1,,,,,,,,,
,,,,,,,,,,,,,,seventh,5,21,female,R,Donders,2021-07-07_10h53.26.356,ImageRatingTask_S1,2021.1.4,Win32,59.97001499,,,,,,,,,,,,,,,,,,,,,0,6,6,6,1,,,,,,,,,
,,,,,,,,,,,,,,last,5,21,female,R,Donders,2021-07-07_10h53.26.356,ImageRatingTask_S1,2021.1.4,Win32,59.97001499,,,,,,,,,,,,,,,,,,,,,0,7,7,7,1,,,,,,,,,
,,,,,,,,,,,,,,,5,21,female,R,Donders,2021-07-07_10h53.26.356,ImageRatingTask_S1,2021.1.4,Win32,59.97001499,,,,,,,,,,,,,,,,,,,,,,,,,,0,28,28,11,1,DreamStudyImages_rs1000x750g/Vehicles/Thunderstorm 3.jpg,,,
,,,,,,,,,,,,,,main,5,21,female,R,Donders,2021-07-07_10h53.26.356,ImageRatingTask_S1,2021.1.4,Win32,59.97001499,,,,,,,,,,,4,5.4447,1,0.8608,8,2.3544,1,1.5967,2,0.9321,0,0,0,0,1,,,,,,,,,
,,,,,,,,,,,,,,second,5,21,female,R,Donders,2021-07-07_10h53.26.356,ImageRatingTask_S1,2021.1.4,Win32,59.97001499,,,,,,,,,,,,,,,,,,,,,0,1,1,1,1,,,,,,,,,
,,,,,,,,,,,,,,third,5,21,female,R,Donders,2021-07-07_10h53.26.356,ImageRatingTask_S1,2021.1.4,Win32,59.97001499,,,,,,,,,,,,,,,,,,,,,0,2,2,2,1,,,,,,,,,
,,,,,,,,,,,,,,fourth,5,21,female,R,Donders,2021-07-07_10h53.26.356,ImageRatingTask_S1,2021.1.4,Win32,59.97001499,,,,,,,,,,,,,,,,,,,,,0,3,3,3,1,,,,,,,,,
,,,,,,,,,,,,,,fifth,5,21,female,R,Donders,2021-07-07_10h53.26.356,ImageRatingTask_S1,2021.1.4,Win32,59.97001499,,,,,,,,,,,,,,,,,,,,,0,4,4,4,1,,,,,,,,,
,,,,,,,,,,,,,,sixth,5,21,female,R,Donders,2021-07-07_10h53.26.356,ImageRatingTask_S1,2021.1.4,Win32,59.97001499,,,,,,,,,,,,,,,,,,,,,0,5,5,5,1,,,,,,,,,
,,,,,,,,,,,,,,seventh,5,21,female,R,Donders,2021-07-07_10h53.26.356,ImageRatingTask_S1,2021.1.4,Win32,59.97001499,,,,,,,,,,,,,,,,,,,,,0,6,6,6,1,,,,,,,,,
,,,,,,,,,,,,,,last,5,21,female,R,Donders,2021-07-07_10h53.26.356,ImageRatingTask_S1,2021.1.4,Win32,59.97001499,,,,,,,,,,,,,,,,,,,,,0,7,7,7,1,,,,,,,,,
,,,,,,,,,,,,,,,5,21,female,R,Donders,2021-07-07_10h53.26.356,ImageRatingTask_S1,2021.1.4,Win32,59.97001499,,,,,,,,,,,,,,,,,,,,,,,,,,0,29,29,151,1,DreamStudyImages_rs1000x750g/Children/Faces_369_v.jpg,,,
,,,,,,,,,,,,,,main,5,21,female,R,Donders,2021-07-07_10h53.26.356,ImageRatingTask_S1,2021.1.4,Win32,59.97001499,,,,,,,,,,,7,4.2014,1,0.758,8,3.3244,1,2.3091,3,0.7866,0,0,0,0,1,,,,,,,,,
,,,,,,,,,,,,,,second,5,21,female,R,Donders,2021-07-07_10h53.26.356,ImageRatingTask_S1,2021.1.4,Win32,59.97001499,,,,,,,,,,,,,,,,,,,,,0,1,1,1,1,,,,,,,,,
,,,,,,,,,,,,,,third,5,21,female,R,Donders,2021-07-07_10h53.26.356,ImageRatingTask_S1,2021.1.4,Win32,59.97001499,,,,,,,,,,,,,,,,,,,,,0,2,2,2,1,,,,,,,,,
,,,,,,,,,,,,,,fourth,5,21,female,R,Donders,2021-07-07_10h53.26.356,ImageRatingTask_S1,2021.1.4,Win32,59.97001499,,,,,,,,,,,,,,,,,,,,,0,3,3,3,1,,,,,,,,,
,,,,,,,,,,,,,,fifth,5,21,female,R,Donders,2021-07-07_10h53.26.356,ImageRatingTask_S1,2021.1.4,Win32,59.97001499,,,,,,,,,,,,,,,,,,,,,0,4,4,4,1,,,,,,,,,
,,,,,,,,,,,,,,sixth,5,21,female,R,Donders,2021-07-07_10h53.26.356,ImageRatingTask_S1,2021.1.4,Win32,59.97001499,,,,,,,,,,,,,,,,,,,,,0,5,5,5,1,,,,,,,,,
,,,,,,,,,,,,,,seventh,5,21,female,R,Donders,2021-07-07_10h53.26.356,ImageRatingTask_S1,2021.1.4,Win32,59.97001499,,,,,,,,,,,,,,,,,,,,,0,6,6,6,1,,,,,,,,,
,,,,,,,,,,,,,,last,5,21,female,R,Donders,2021-07-07_10h53.26.356,ImageRatingTask_S1,2021.1.4,Win32,59.97001499,,,,,,,,,,,,,,,,,,,,,0,7,7,7,1,,,,,,,,,
,,,,,,,,,,,,,,,5,21,female,R,Donders,2021-07-07_10h53.26.356,ImageRatingTask_S1,2021.1.4,Win32,59.97001499,,,,,,,,,,,,,,,,,,,,,,,,,,0,30,30,68,1,DreamStudyImages_rs1000x750g/Mammals/Scared cat 1.jpg,,,
,,,,,,,,,,,,,,main,5,21,female,R,Donders,2021-07-07_10h53.26.356,ImageRatingTask_S1,2021.1.4,Win32,59.97001499,,,,,,,,,,,5,6.0222,1,0.749,7,1.9146,1,2.5929,6,1.0883,0,0,0,0,1,,,,,,,,,
,,,,,,,,,,,,,,second,5,21,female,R,Donders,2021-07-07_10h53.26.356,ImageRatingTask_S1,2021.1.4,Win32,59.97001499,,,,,,,,,,,,,,,,,,,,,0,1,1,1,1,,,,,,,,,
,,,,,,,,,,,,,,third,5,21,female,R,Donders,2021-07-07_10h53.26.356,ImageRatingTask_S1,2021.1.4,Win32,59.97001499,,,,,,,,,,,,,,,,,,,,,0,2,2,2,1,,,,,,,,,
,,,,,,,,,,,,,,fourth,5,21,female,R,Donders,2021-07-07_10h53.26.356,ImageRatingTask_S1,2021.1.4,Win32,59.97001499,,,,,,,,,,,,,,,,,,,,,0,3,3,3,1,,,,,,,,,
,,,,,,,,,,,,,,fifth,5,21,female,R,Donders,2021-07-07_10h53.26.356,ImageRatingTask_S1,2021.1.4,Win32,59.97001499,,,,,,,,,,,,,,,,,,,,,0,4,4,4,1,,,,,,,,,
,,,,,,,,,,,,,,sixth,5,21,female,R,Donders,2021-07-07_10h53.26.356,ImageRatingTask_S1,2021.1.4,Win32,59.97001499,,,,,,,,,,,,,,,,,,,,,0,5,5,5,1,,,,,,,,,
,,,,,,,,,,,,,,seventh,5,21,female,R,Donders,2021-07-07_10h53.26.356,ImageRatingTask_S1,2021.1.4,Win32,59.97001499,,,,,,,,,,,,,,,,,,,,,0,6,6,6,1,,,,,,,,,
,,,,,,,,,,,,,,last,5,21,female,R,Donders,2021-07-07_10h53.26.356,ImageRatingTask_S1,2021.1.4,Win32,59.97001499,,,,,,,,,,,,,,,,,,,,,0,7,7,7,1,,,,,,,,,
,,,,,,,,,,,,,,,5,21,female,R,Donders,2021-07-07_10h53.26.356,ImageRatingTask_S1,2021.1.4,Win32,59.97001499,,,,,,,,,,,,,,,,,,,,,,,,,,0,31,31,30,1,DreamStudyImages_rs1000x750g/Houses/Landscapes_015_h.jpg,,,
,,,,,,,,,,,,,,main,5,21,female,R,Donders,2021-07-07_10h53.26.356,ImageRatingTask_S1,2021.1.4,Win32,59.97001499,,,,,,,,,,,9,2.1531,5,2.586,9,5.1923,1,1.6869,5,1.3124,0,0,0,0,1,,,,,,,,,
,,,,,,,,,,,,,,second,5,21,female,R,Donders,2021-07-07_10h53.26.356,ImageRatingTask_S1,2021.1.4,Win32,59.97001499,,,,,,,,,,,,,,,,,,,,,0,1,1,1,1,,,,,,,,,
,,,,,,,,,,,,,,third,5,21,female,R,Donders,2021-07-07_10h53.26.356,ImageRatingTask_S1,2021.1.4,Win32,59.97001499,,,,,,,,,,,,,,,,,,,,,0,2,2,2,1,,,,,,,,,
,,,,,,,,,,,,,,fourth,5,21,female,R,Donders,2021-07-07_10h53.26.356,ImageRatingTask_S1,2021.1.4,Win32,59.97001499,,,,,,,,,,,,,,,,,,,,,0,3,3,3,1,,,,,,,,,
,,,,,,,,,,,,,,fifth,5,21,female,R,Donders,2021-07-07_10h53.26.356,ImageRatingTask_S1,2021.1.4,Win32,59.97001499,,,,,,,,,,,,,,,,,,,,,0,4,4,4,1,,,,,,,,,
,,,,,,,,,,,,,,sixth,5,21,female,R,Donders,2021-07-07_10h53.26.356,ImageRatingTask_S1,2021.1.4,Win32,59.97001499,,,,,,,,,,,,,,,,,,,,,0,5,5,5,1,,,,,,,,,
,,,,,,,,,,,,,,seventh,5,21,female,R,Donders,2021-07-07_10h53.26.356,ImageRatingTask_S1,2021.1.4,Win32,59.97001499,,,,,,,,,,,,,,,,,,,,,0,6,6,6,1,,,,,,,,,
,,,,,,,,,,,,,,last,5,21,female,R,Donders,2021-07-07_10h53.26.356,ImageRatingTask_S1,2021.1.4,Win32,59.97001499,,,,,,,,,,,,,,,,,,,,,0,7,7,7,1,,,,,,,,,
,,,,,,,,,,,,,,,5,21,female,R,Donders,2021-07-07_10h53.26.356,ImageRatingTask_S1,2021.1.4,Win32,59.97001499,,,,,,,,,,,,,,,,,,,,,,,,,,0,32,32,113,1,DreamStudyImages_rs1000x750g/Food/Objects_062_h.jpg,,,
,,,,,,,,,,,,,,main,5,21,female,R,Donders,2021-07-07_10h53.26.356,ImageRatingTask_S1,2021.1.4,Win32,59.97001499,,,,,,,,,,,5,5.7277,1,0.5033,5,2.3292,1,2.875,7,0.9299,0,0,0,0,1,,,,,,,,,
,,,,,,,,,,,,,,second,5,21,female,R,Donders,2021-07-07_10h53.26.356,ImageRatingTask_S1,2021.1.4,Win32,59.97001499,,,,,,,,,,,,,,,,,,,,,0,1,1,1,1,,,,,,,,,
,,,,,,,,,,,,,,third,5,21,female,R,Donders,2021-07-07_10h53.26.356,ImageRatingTask_S1,2021.1.4,Win32,59.97001499,,,,,,,,,,,,,,,,,,,,,0,2,2,2,1,,,,,,,,,
,,,,,,,,,,,,,,fourth,5,21,female,R,Donders,2021-07-07_10h53.26.356,ImageRatingTask_S1,2021.1.4,Win32,59.97001499,,,,,,,,,,,,,,,,,,,,,0,3,3,3,1,,,,,,,,,
,,,,,,,,,,,,,,fifth,5,21,female,R,Donders,2021-07-07_10h53.26.356,ImageRatingTask_S1,2021.1.4,Win32,59.97001499,,,,,,,,,,,,,,,,,,,,,0,4,4,4,1,,,,,,,,,
,,,,,,,,,,,,,,sixth,5,21,female,R,Donders,2021-07-07_10h53.26.356,ImageRatingTask_S1,2021.1.4,Win32,59.97001499,,,,,,,,,,,,,,,,,,,,,0,5,5,5,1,,,,,,,,,
,,,,,,,,,,,,,,seventh,5,21,female,R,Donders,2021-07-07_10h53.26.356,ImageRatingTask_S1,2021.1.4,Win32,59.97001499,,,,,,,,,,,,,,,,,,,,,0,6,6,6,1,,,,,,,,,
,,,,,,,,,,,,,,last,5,21,female,R,Donders,2021-07-07_10h53.26.356,ImageRatingTask_S1,2021.1.4,Win32,59.97001499,,,,,,,,,,,,,,,,,,,,,0,7,7,7,1,,,,,,,,,
,,,,,,,,,,,,,,,5,21,female,R,Donders,2021-07-07_10h53.26.356,ImageRatingTask_S1,2021.1.4,Win32,59.97001499,,,,,,,,,,,,,,,,,,,,,,,,,,0,33,33,93,1,DreamStudyImages_rs1000x750g/Vehicles/Desert 1.jpg,,,
,,,,,,,,,,,,,,main,5,21,female,R,Donders,2021-07-07_10h53.26.356,ImageRatingTask_S1,2021.1.4,Win32,59.97001499,,,,,,,,,,,8,5.1659,3,2.995,8,2.7755,1,1.3074,5,1.2525,0,0,0,0,1,,,,,,,,,
,,,,,,,,,,,,,,second,5,21,female,R,Donders,2021-07-07_10h53.26.356,ImageRatingTask_S1,2021.1.4,Win32,59.97001499,,,,,,,,,,,,,,,,,,,,,0,1,1,1,1,,,,,,,,,
,,,,,,,,,,,,,,third,5,21,female,R,Donders,2021-07-07_10h53.26.356,ImageRatingTask_S1,2021.1.4,Win32,59.97001499,,,,,,,,,,,,,,,,,,,,,0,2,2,2,1,,,,,,,,,
,,,,,,,,,,,,,,fourth,5,21,female,R,Donders,2021-07-07_10h53.26.356,ImageRatingTask_S1,2021.1.4,Win32,59.97001499,,,,,,,,,,,,,,,,,,,,,0,3,3,3,1,,,,,,,,,
,,,,,,,,,,,,,,fifth,5,21,female,R,Donders,2021-07-07_10h53.26.356,ImageRatingTask_S1,2021.1.4,Win32,59.97001499,,,,,,,,,,,,,,,,,,,,,0,4,4,4,1,,,,,,,,,
,,,,,,,,,,,,,,sixth,5,21,female,R,Donders,2021-07-07_10h53.26.356,ImageRatingTask_S1,2021.1.4,Win32,59.97001499,,,,,,,,,,,,,,,,,,,,,0,5,5,5,1,,,,,,,,,
,,,,,,,,,,,,,,seventh,5,21,female,R,Donders,2021-07-07_10h53.26.356,ImageRatingTask_S1,2021.1.4,Win32,59.97001499,,,,,,,,,,,,,,,,,,,,,0,6,6,6,1,,,,,,,,,
,,,,,,,,,,,,,,last,5,21,female,R,Donders,2021-07-07_10h53.26.356,ImageRatingTask_S1,2021.1.4,Win32,59.97001499,,,,,,,,,,,,,,,,,,,,,0,7,7,7,1,,,,,,,,,
,,,,,,,,,,,,,,,5,21,female,R,Donders,2021-07-07_10h53.26.356,ImageRatingTask_S1,2021.1.4,Win32,59.97001499,,,,,,,,,,,,,,,,,,,,,,,,,,0,34,34,4,1,DreamStudyImages_rs1000x750g/Food/Objects_024_v.jpg,,,
,,,,,,,,,,,,,,main,5,21,female,R,Donders,2021-07-07_10h53.26.356,ImageRatingTask_S1,2021.1.4,Win32,59.97001499,,,,,,,,,,,7,3.2564,3,1.7523,8,1.9882,1,2.0576,6,2.9829,0,0,0,0,1,,,,,,,,,
,,,,,,,,,,,,,,second,5,21,female,R,Donders,2021-07-07_10h53.26.356,ImageRatingTask_S1,2021.1.4,Win32,59.97001499,,,,,,,,,,,,,,,,,,,,,0,1,1,1,1,,,,,,,,,
,,,,,,,,,,,,,,third,5,21,female,R,Donders,2021-07-07_10h53.26.356,ImageRatingTask_S1,2021.1.4,Win32,59.97001499,,,,,,,,,,,,,,,,,,,,,0,2,2,2,1,,,,,,,,,
,,,,,,,,,,,,,,fourth,5,21,female,R,Donders,2021-07-07_10h53.26.356,ImageRatingTask_S1,2021.1.4,Win32,59.97001499,,,,,,,,,,,,,,,,,,,,,0,3,3,3,1,,,,,,,,,
,,,,,,,,,,,,,,fifth,5,21,female,R,Donders,2021-07-07_10h53.26.356,ImageRatingTask_S1,2021.1.4,Win32,59.97001499,,,,,,,,,,,,,,,,,,,,,0,4,4,4,1,,,,,,,,,
,,,,,,,,,,,,,,sixth,5,21,female,R,Donders,2021-07-07_10h53.26.356,ImageRatingTask_S1,2021.1.4,Win32,59.97001499,,,,,,,,,,,,,,,,,,,,,0,5,5,5,1,,,,,,,,,
,,,,,,,,,,,,,,seventh,5,21,female,R,Donders,2021-07-07_10h53.26.356,ImageRatingTask_S1,2021.1.4,Win32,59.97001499,,,,,,,,,,,,,,,,,,,,,0,6,6,6,1,,,,,,,,,
,,,,,,,,,,,,,,last,5,21,female,R,Donders,2021-07-07_10h53.26.356,ImageRatingTask_S1,2021.1.4,Win32,59.97001499,,,,,,,,,,,,,,,,,,,,,0,7,7,7,1,,,,,,,,,
,,,,,,,,,,,,,,,5,21,female,R,Donders,2021-07-07_10h53.26.356,ImageRatingTask_S1,2021.1.4,Win32,59.97001499,,,,,,,,,,,,,,,,,,,,,,,,,,0,35,35,54,1,DreamStudyImages_rs1000x750g/Houses/NDPS150_houses11.jpg,,,
,,,,,,,,,,,,,,main,5,21,female,R,Donders,2021-07-07_10h53.26.356,ImageRatingTask_S1,2021.1.4,Win32,59.97001499,,,,,,,,,,,5,2.9047,1,0.4223,8,4.9887,1,1.3857,7,1.5389,0,0,0,0,1,,,,,,,,,
,,,,,,,,,,,,,,second,5,21,female,R,Donders,2021-07-07_10h53.26.356,ImageRatingTask_S1,2021.1.4,Win32,59.97001499,,,,,,,,,,,,,,,,,,,,,0,1,1,1,1,,,,,,,,,
,,,,,,,,,,,,,,third,5,21,female,R,Donders,2021-07-07_10h53.26.356,ImageRatingTask_S1,2021.1.4,Win32,59.97001499,,,,,,,,,,,,,,,,,,,,,0,2,2,2,1,,,,,,,,,
,,,,,,,,,,,,,,fourth,5,21,female,R,Donders,2021-07-07_10h53.26.356,ImageRatingTask_S1,2021.1.4,Win32,59.97001499,,,,,,,,,,,,,,,,,,,,,0,3,3,3,1,,,,,,,,,
,,,,,,,,,,,,,,fifth,5,21,female,R,Donders,2021-07-07_10h53.26.356,ImageRatingTask_S1,2021.1.4,Win32,59.97001499,,,,,,,,,,,,,,,,,,,,,0,4,4,4,1,,,,,,,,,
,,,,,,,,,,,,,,sixth,5,21,female,R,Donders,2021-07-07_10h53.26.356,ImageRatingTask_S1,2021.1.4,Win32,59.97001499,,,,,,,,,,,,,,,,,,,,,0,5,5,5,1,,,,,,,,,
,,,,,,,,,,,,,,seventh,5,21,female,R,Donders,2021-07-07_10h53.26.356,ImageRatingTask_S1,2021.1.4,Win32,59.97001499,,,,,,,,,,,,,,,,,,,,,0,6,6,6,1,,,,,,,,,
,,,,,,,,,,,,,,last,5,21,female,R,Donders,2021-07-07_10h53.26.356,ImageRatingTask_S1,2021.1.4,Win32,59.97001499,,,,,,,,,,,,,,,,,,,,,0,7,7,7,1,,,,,,,,,
,,,,,,,,,,,,,,,5,21,female,R,Donders,2021-07-07_10h53.26.356,ImageRatingTask_S1,2021.1.4,Win32,59.97001499,,,,,,,,,,,,,,,,,,,,,,,,,,0,36,36,112,1,DreamStudyImages_rs1000x750g/Vehicles/paintedvan.jpg,,,
,,,,,,,,,,,,,,main,5,21,female,R,Donders,2021-07-07_10h53.26.356,ImageRatingTask_S1,2021.1.4,Win32,59.97001499,,,,,,,,,,,5,2.4883,1,0.2806,9,1.9419,1,1.8296,7,0.7787,0,0,0,0,1,,,,,,,,,
,,,,,,,,,,,,,,second,5,21,female,R,Donders,2021-07-07_10h53.26.356,ImageRatingTask_S1,2021.1.4,Win32,59.97001499,,,,,,,,,,,,,,,,,,,,,0,1,1,1,1,,,,,,,,,
,,,,,,,,,,,,,,third,5,21,female,R,Donders,2021-07-07_10h53.26.356,ImageRatingTask_S1,2021.1.4,Win32,59.97001499,,,,,,,,,,,,,,,,,,,,,0,2,2,2,1,,,,,,,,,
,,,,,,,,,,,,,,fourth,5,21,female,R,Donders,2021-07-07_10h53.26.356,ImageRatingTask_S1,2021.1.4,Win32,59.97001499,,,,,,,,,,,,,,,,,,,,,0,3,3,3,1,,,,,,,,,
,,,,,,,,,,,,,,fifth,5,21,female,R,Donders,2021-07-07_10h53.26.356,ImageRatingTask_S1,2021.1.4,Win32,59.97001499,,,,,,,,,,,,,,,,,,,,,0,4,4,4,1,,,,,,,,,
,,,,,,,,,,,,,,sixth,5,21,female,R,Donders,2021-07-07_10h53.26.356,ImageRatingTask_S1,2021.1.4,Win32,59.97001499,,,,,,,,,,,,,,,,,,,,,0,5,5,5,1,,,,,,,,,
,,,,,,,,,,,,,,seventh,5,21,female,R,Donders,2021-07-07_10h53.26.356,ImageRatingTask_S1,2021.1.4,Win32,59.97001499,,,,,,,,,,,,,,,,,,,,,0,6,6,6,1,,,,,,,,,
,,,,,,,,,,,,,,last,5,21,female,R,Donders,2021-07-07_10h53.26.356,ImageRatingTask_S1,2021.1.4,Win32,59.97001499,,,,,,,,,,,,,,,,,,,,,0,7,7,7,1,,,,,,,,,
,,,,,,,,,,,,,,,5,21,female,R,Donders,2021-07-07_10h53.26.356,ImageRatingTask_S1,2021.1.4,Win32,59.97001499,,,,,,,,,,,,,,,,,,,,,,,,,,0,37,37,114,1,DreamStudyImages_rs1000x750g/Vehicles/whitecar.jpg,,,
,,,,,,,,,,,,,,main,5,21,female,R,Donders,2021-07-07_10h53.26.356,ImageRatingTask_S1,2021.1.4,Win32,59.97001499,,,,,,,,,,,7,3.0285,3,1.4689,6,2.1377,1,3.2432,8,0.8289,0,0,0,0,1,,,,,,,,,
,,,,,,,,,,,,,,second,5,21,female,R,Donders,2021-07-07_10h53.26.356,ImageRatingTask_S1,2021.1.4,Win32,59.97001499,,,,,,,,,,,,,,,,,,,,,0,1,1,1,1,,,,,,,,,
,,,,,,,,,,,,,,third,5,21,female,R,Donders,2021-07-07_10h53.26.356,ImageRatingTask_S1,2021.1.4,Win32,59.97001499,,,,,,,,,,,,,,,,,,,,,0,2,2,2,1,,,,,,,,,
,,,,,,,,,,,,,,fourth,5,21,female,R,Donders,2021-07-07_10h53.26.356,ImageRatingTask_S1,2021.1.4,Win32,59.97001499,,,,,,,,,,,,,,,,,,,,,0,3,3,3,1,,,,,,,,,
,,,,,,,,,,,,,,fifth,5,21,female,R,Donders,2021-07-07_10h53.26.356,ImageRatingTask_S1,2021.1.4,Win32,59.97001499,,,,,,,,,,,,,,,,,,,,,0,4,4,4,1,,,,,,,,,
,,,,,,,,,,,,,,sixth,5,21,female,R,Donders,2021-07-07_10h53.26.356,ImageRatingTask_S1,2021.1.4,Win32,59.97001499,,,,,,,,,,,,,,,,,,,,,0,5,5,5,1,,,,,,,,,
,,,,,,,,,,,,,,seventh,5,21,female,R,Donders,2021-07-07_10h53.26.356,ImageRatingTask_S1,2021.1.4,Win32,59.97001499,,,,,,,,,,,,,,,,,,,,,0,6,6,6,1,,,,,,,,,
,,,,,,,,,,,,,,last,5,21,female,R,Donders,2021-07-07_10h53.26.356,ImageRatingTask_S1,2021.1.4,Win32,59.97001499,,,,,,,,,,,,,,,,,,,,,0,7,7,7,1,,,,,,,,,
,,,,,,,,,,,,,,,5,21,female,R,Donders,2021-07-07_10h53.26.356,ImageRatingTask_S1,2021.1.4,Win32,59.97001499,,,,,,,,,,,,,,,,,,,,,,,,,,0,38,38,45,1,DreamStudyImages_rs1000x750g/Water/Lake 4.jpg,,,
,,,,,,,,,,,,,,main,5,21,female,R,Donders,2021-07-07_10h53.26.356,ImageRatingTask_S1,2021.1.4,Win32,59.97001499,,,,,,,,,,,4,4.1743,1,1.3856,5,1.9738,1,2.1328,7,1.8118,0,0,0,0,1,,,,,,,,,
,,,,,,,,,,,,,,second,5,21,female,R,Donders,2021-07-07_10h53.26.356,ImageRatingTask_S1,2021.1.4,Win32,59.97001499,,,,,,,,,,,,,,,,,,,,,0,1,1,1,1,,,,,,,,,
,,,,,,,,,,,,,,third,5,21,female,R,Donders,2021-07-07_10h53.26.356,ImageRatingTask_S1,2021.1.4,Win32,59.97001499,,,,,,,,,,,,,,,,,,,,,0,2,2,2,1,,,,,,,,,
,,,,,,,,,,,,,,fourth,5,21,female,R,Donders,2021-07-07_10h53.26.356,ImageRatingTask_S1,2021.1.4,Win32,59.97001499,,,,,,,,,,,,,,,,,,,,,0,3,3,3,1,,,,,,,,,
,,,,,,,,,,,,,,fifth,5,21,female,R,Donders,2021-07-07_10h53.26.356,ImageRatingTask_S1,2021.1.4,Win32,59.97001499,,,,,,,,,,,,,,,,,,,,,0,4,4,4,1,,,,,,,,,
,,,,,,,,,,,,,,sixth,5,21,female,R,Donders,2021-07-07_10h53.26.356,ImageRatingTask_S1,2021.1.4,Win32,59.97001499,,,,,,,,,,,,,,,,,,,,,0,5,5,5,1,,,,,,,,,
,,,,,,,,,,,,,,seventh,5,21,female,R,Donders,2021-07-07_10h53.26.356,ImageRatingTask_S1,2021.1.4,Win32,59.97001499,,,,,,,,,,,,,,,,,,,,,0,6,6,6,1,,,,,,,,,
,,,,,,,,,,,,,,last,5,21,female,R,Donders,2021-07-07_10h53.26.356,ImageRatingTask_S1,2021.1.4,Win32,59.97001499,,,,,,,,,,,,,,,,,,,,,0,7,7,7,1,,,,,,,,,
,,,,,,,,,,,,,,,5,21,female,R,Donders,2021-07-07_10h53.26.356,ImageRatingTask_S1,2021.1.4,Win32,59.97001499,,,,,,,,,,,,,,,,,,,,,,,,,,0,39,39,108,1,DreamStudyImages_rs1000x750g/Vehicles/rheingoldtrain_CROPPED.jpg,,,
,,,,,,,,,,,,,,main,5,21,female,R,Donders,2021-07-07_10h53.26.356,ImageRatingTask_S1,2021.1.4,Win32,59.97001499,,,,,,,,,,,8,5.3829,4,2.5754,6,3.4241,1,1.7904,5,0.9462,0,0,0,0,1,,,,,,,,,
,,,,,,,,,,,,,,second,5,21,female,R,Donders,2021-07-07_10h53.26.356,ImageRatingTask_S1,2021.1.4,Win32,59.97001499,,,,,,,,,,,,,,,,,,,,,0,1,1,1,1,,,,,,,,,
,,,,,,,,,,,,,,third,5,21,female,R,Donders,2021-07-07_10h53.26.356,ImageRatingTask_S1,2021.1.4,Win32,59.97001499,,,,,,,,,,,,,,,,,,,,,0,2,2,2,1,,,,,,,,,
,,,,,,,,,,,,,,fourth,5,21,female,R,Donders,2021-07-07_10h53.26.356,ImageRatingTask_S1,2021.1.4,Win32,59.97001499,,,,,,,,,,,,,,,,,,,,,0,3,3,3,1,,,,,,,,,
,,,,,,,,,,,,,,fifth,5,21,female,R,Donders,2021-07-07_10h53.26.356,ImageRatingTask_S1,2021.1.4,Win32,59.97001499,,,,,,,,,,,,,,,,,,,,,0,4,4,4,1,,,,,,,,,
,,,,,,,,,,,,,,sixth,5,21,female,R,Donders,2021-07-07_10h53.26.356,ImageRatingTask_S1,2021.1.4,Win32,59.97001499,,,,,,,,,,,,,,,,,,,,,0,5,5,5,1,,,,,,,,,
,,,,,,,,,,,,,,seventh,5,21,female,R,Donders,2021-07-07_10h53.26.356,ImageRatingTask_S1,2021.1.4,Win32,59.97001499,,,,,,,,,,,,,,,,,,,,,0,6,6,6,1,,,,,,,,,
,,,,,,,,,,,,,,last,5,21,female,R,Donders,2021-07-07_10h53.26.356,ImageRatingTask_S1,2021.1.4,Win32,59.97001499,,,,,,,,,,,,,,,,,,,,,0,7,7,7,1,,,,,,,,,
,,,,,,,,,,,,,,,5,21,female,R,Donders,2021-07-07_10h53.26.356,ImageRatingTask_S1,2021.1.4,Win32,59.97001499,,,,,,,,,,,,,,,,,,,,,,,,,,0,40,40,136,1,DreamStudyImages_rs1000x750g/Food/IAPS7400_chocolate.jpg,,,
,,,,,,,,,,,,,,main,5,21,female,R,Donders,2021-07-07_10h53.26.356,ImageRatingTask_S1,2021.1.4,Win32,59.97001499,,,,,,,,,,,4,2.5637,1,0.7954,6,1.5937,1,1.6395,2,0.8202,0,0,0,0,1,,,,,,,,,
,,,,,,,,,,,,,,second,5,21,female,R,Donders,2021-07-07_10h53.26.356,ImageRatingTask_S1,2021.1.4,Win32,59.97001499,,,,,,,,,,,,,,,,,,,,,0,1,1,1,1,,,,,,,,,
,,,,,,,,,,,,,,third,5,21,female,R,Donders,2021-07-07_10h53.26.356,ImageRatingTask_S1,2021.1.4,Win32,59.97001499,,,,,,,,,,,,,,,,,,,,,0,2,2,2,1,,,,,,,,,
,,,,,,,,,,,,,,fourth,5,21,female,R,Donders,2021-07-07_10h53.26.356,ImageRatingTask_S1,2021.1.4,Win32,59.97001499,,,,,,,,,,,,,,,,,,,,,0,3,3,3,1,,,,,,,,,
,,,,,,,,,,,,,,fifth,5,21,female,R,Donders,2021-07-07_10h53.26.356,ImageRatingTask_S1,2021.1.4,Win32,59.97001499,,,,,,,,,,,,,,,,,,,,,0,4,4,4,1,,,,,,,,,
,,,,,,,,,,,,,,sixth,5,21,female,R,Donders,2021-07-07_10h53.26.356,ImageRatingTask_S1,2021.1.4,Win32,59.97001499,,,,,,,,,,,,,,,,,,,,,0,5,5,5,1,,,,,,,,,
,,,,,,,,,,,,,,seventh,5,21,female,R,Donders,2021-07-07_10h53.26.356,ImageRatingTask_S1,2021.1.4,Win32,59.97001499,,,,,,,,,,,,,,,,,,,,,0,6,6,6,1,,,,,,,,,
,,,,,,,,,,,,,,last,5,21,female,R,Donders,2021-07-07_10h53.26.356,ImageRatingTask_S1,2021.1.4,Win32,59.97001499,,,,,,,,,,,,,,,,,,,,,0,7,7,7,1,,,,,,,,,
,,,,,,,,,,,,,,,5,21,female,R,Donders,2021-07-07_10h53.26.356,ImageRatingTask_S1,2021.1.4,Win32,59.97001499,,,,,,,,,,,,,,,,,,,,,,,,,,0,41,41,118,1,DreamStudyImages_rs1000x750g/Children/IAPS2276_girl3.jpg,,,
,,,,,,,,,,,,,,main,5,21,female,R,Donders,2021-07-07_10h53.26.356,ImageRatingTask_S1,2021.1.4,Win32,59.97001499,,,,,,,,,,,5,2.1515,1,0.8641,8,3.5489,1,1.4642,7,0.8236,0,0,0,0,1,,,,,,,,,
,,,,,,,,,,,,,,second,5,21,female,R,Donders,2021-07-07_10h53.26.356,ImageRatingTask_S1,2021.1.4,Win32,59.97001499,,,,,,,,,,,,,,,,,,,,,0,1,1,1,1,,,,,,,,,
,,,,,,,,,,,,,,third,5,21,female,R,Donders,2021-07-07_10h53.26.356,ImageRatingTask_S1,2021.1.4,Win32,59.97001499,,,,,,,,,,,,,,,,,,,,,0,2,2,2,1,,,,,,,,,
,,,,,,,,,,,,,,fourth,5,21,female,R,Donders,2021-07-07_10h53.26.356,ImageRatingTask_S1,2021.1.4,Win32,59.97001499,,,,,,,,,,,,,,,,,,,,,0,3,3,3,1,,,,,,,,,
,,,,,,,,,,,,,,fifth,5,21,female,R,Donders,2021-07-07_10h53.26.356,ImageRatingTask_S1,2021.1.4,Win32,59.97001499,,,,,,,,,,,,,,,,,,,,,0,4,4,4,1,,,,,,,,,
,,,,,,,,,,,,,,sixth,5,21,female,R,Donders,2021-07-07_10h53.26.356,ImageRatingTask_S1,2021.1.4,Win32,59.97001499,,,,,,,,,,,,,,,,,,,,,0,5,5,5,1,,,,,,,,,
,,,,,,,,,,,,,,seventh,5,21,female,R,Donders,2021-07-07_10h53.26.356,ImageRatingTask_S1,2021.1.4,Win32,59.97001499,,,,,,,,,,,,,,,,,,,,,0,6,6,6,1,,,,,,,,,
,,,,,,,,,,,,,,last,5,21,female,R,Donders,2021-07-07_10h53.26.356,ImageRatingTask_S1,2021.1.4,Win32,59.97001499,,,,,,,,,,,,,,,,,,,,,0,7,7,7,1,,,,,,,,,
,,,,,,,,,,,,,,,5,21,female,R,Donders,2021-07-07_10h53.26.356,ImageRatingTask_S1,2021.1.4,Win32,59.97001499,,,,,,,,,,,,,,,,,,,,,,,,,,0,42,42,39,1,DreamStudyImages_rs1000x750g/Vehicles/bigtruck.jpg,,,
,,,,,,,,,,,,,,main,5,21,female,R,Donders,2021-07-07_10h53.26.356,ImageRatingTask_S1,2021.1.4,Win32,59.97001499,,,,,,,,,,,7,4.6509,2,1.0833,9,4.3296,1,1.0947,2,0.8281,0,0,0,0,1,,,,,,,,,
,,,,,,,,,,,,,,second,5,21,female,R,Donders,2021-07-07_10h53.26.356,ImageRatingTask_S1,2021.1.4,Win32,59.97001499,,,,,,,,,,,,,,,,,,,,,0,1,1,1,1,,,,,,,,,
,,,,,,,,,,,,,,third,5,21,female,R,Donders,2021-07-07_10h53.26.356,ImageRatingTask_S1,2021.1.4,Win32,59.97001499,,,,,,,,,,,,,,,,,,,,,0,2,2,2,1,,,,,,,,,
,,,,,,,,,,,,,,fourth,5,21,female,R,Donders,2021-07-07_10h53.26.356,ImageRatingTask_S1,2021.1.4,Win32,59.97001499,,,,,,,,,,,,,,,,,,,,,0,3,3,3,1,,,,,,,,,
,,,,,,,,,,,,,,fifth,5,21,female,R,Donders,2021-07-07_10h53.26.356,ImageRatingTask_S1,2021.1.4,Win32,59.97001499,,,,,,,,,,,,,,,,,,,,,0,4,4,4,1,,,,,,,,,
,,,,,,,,,,,,,,sixth,5,21,female,R,Donders,2021-07-07_10h53.26.356,ImageRatingTask_S1,2021.1.4,Win32,59.97001499,,,,,,,,,,,,,,,,,,,,,0,5,5,5,1,,,,,,,,,
,,,,,,,,,,,,,,seventh,5,21,female,R,Donders,2021-07-07_10h53.26.356,ImageRatingTask_S1,2021.1.4,Win32,59.97001499,,,,,,,,,,,,,,,,,,,,,0,6,6,6,1,,,,,,,,,
,,,,,,,,,,,,,,last,5,21,female,R,Donders,2021-07-07_10h53.26.356,ImageRatingTask_S1,2021.1.4,Win32,59.97001499,,,,,,,,,,,,,,,,,,,,,0,7,7,7,1,,,,,,,,,
,,,,,,,,,,,,,,,5,21,female,R,Donders,2021-07-07_10h53.26.356,ImageRatingTask_S1,2021.1.4,Win32,59.97001499,,,,,,,,,,,,,,,,,,,,,,,,,,0,43,43,22,1,DreamStudyImages_rs1000x750g/Children/Siblings 1.jpg,,,
,,,,,,,,,,,,,,main,5,21,female,R,Donders,2021-07-07_10h53.26.356,ImageRatingTask_S1,2021.1.4,Win32,59.97001499,,,,,,,,,,,3,2.538,1,0.9292,5,2.4549,1,9.5065,6,2.3042,0,0,0,0,1,,,,,,,,,
,,,,,,,,,,,,,,second,5,21,female,R,Donders,2021-07-07_10h53.26.356,ImageRatingTask_S1,2021.1.4,Win32,59.97001499,,,,,,,,,,,,,,,,,,,,,0,1,1,1,1,,,,,,,,,
,,,,,,,,,,,,,,third,5,21,female,R,Donders,2021-07-07_10h53.26.356,ImageRatingTask_S1,2021.1.4,Win32,59.97001499,,,,,,,,,,,,,,,,,,,,,0,2,2,2,1,,,,,,,,,
,,,,,,,,,,,,,,fourth,5,21,female,R,Donders,2021-07-07_10h53.26.356,ImageRatingTask_S1,2021.1.4,Win32,59.97001499,,,,,,,,,,,,,,,,,,,,,0,3,3,3,1,,,,,,,,,
,,,,,,,,,,,,,,fifth,5,21,female,R,Donders,2021-07-07_10h53.26.356,ImageRatingTask_S1,2021.1.4,Win32,59.97001499,,,,,,,,,,,,,,,,,,,,,0,4,4,4,1,,,,,,,,,
,,,,,,,,,,,,,,sixth,5,21,female,R,Donders,2021-07-07_10h53.26.356,ImageRatingTask_S1,2021.1.4,Win32,59.97001499,,,,,,,,,,,,,,,,,,,,,0,5,5,5,1,,,,,,,,,
,,,,,,,,,,,,,,seventh,5,21,female,R,Donders,2021-07-07_10h53.26.356,ImageRatingTask_S1,2021.1.4,Win32,59.97001499,,,,,,,,,,,,,,,,,,,,,0,6,6,6,1,,,,,,,,,
,,,,,,,,,,,,,,last,5,21,female,R,Donders,2021-07-07_10h53.26.356,ImageRatingTask_S1,2021.1.4,Win32,59.97001499,,,,,,,,,,,,,,,,,,,,,0,7,7,7,1,,,,,,,,,
,,,,,,,,,,,,,,,5,21,female,R,Donders,2021-07-07_10h53.26.356,ImageRatingTask_S1,2021.1.4,Win32,59.97001499,,,,,,,,,,,,,,,,,,,,,,,,,,0,44,44,40,1,DreamStudyImages_rs1000x750g/Houses/Pollution 1.jpg,,,
,,,,,,,,,,,,,,main,5,21,female,R,Donders,2021-07-07_10h53.26.356,ImageRatingTask_S1,2021.1.4,Win32,59.97001499,,,,,,,,,,,6,2.5017,1,1.1965,6,1.6099,1,2.0084,3,1.1948,0,0,0,0,1,,,,,,,,,
,,,,,,,,,,,,,,second,5,21,female,R,Donders,2021-07-07_10h53.26.356,ImageRatingTask_S1,2021.1.4,Win32,59.97001499,,,,,,,,,,,,,,,,,,,,,0,1,1,1,1,,,,,,,,,
,,,,,,,,,,,,,,third,5,21,female,R,Donders,2021-07-07_10h53.26.356,ImageRatingTask_S1,2021.1.4,Win32,59.97001499,,,,,,,,,,,,,,,,,,,,,0,2,2,2,1,,,,,,,,,
,,,,,,,,,,,,,,fourth,5,21,female,R,Donders,2021-07-07_10h53.26.356,ImageRatingTask_S1,2021.1.4,Win32,59.97001499,,,,,,,,,,,,,,,,,,,,,0,3,3,3,1,,,,,,,,,
,,,,,,,,,,,,,,fifth,5,21,female,R,Donders,2021-07-07_10h53.26.356,ImageRatingTask_S1,2021.1.4,Win32,59.97001499,,,,,,,,,,,,,,,,,,,,,0,4,4,4,1,,,,,,,,,
,,,,,,,,,,,,,,sixth,5,21,female,R,Donders,2021-07-07_10h53.26.356,ImageRatingTask_S1,2021.1.4,Win32,59.97001499,,,,,,,,,,,,,,,,,,,,,0,5,5,5,1,,,,,,,,,
,,,,,,,,,,,,,,seventh,5,21,female,R,Donders,2021-07-07_10h53.26.356,ImageRatingTask_S1,2021.1.4,Win32,59.97001499,,,,,,,,,,,,,,,,,,,,,0,6,6,6,1,,,,,,,,,
,,,,,,,,,,,,,,last,5,21,female,R,Donders,2021-07-07_10h53.26.356,ImageRatingTask_S1,2021.1.4,Win32,59.97001499,,,,,,,,,,,,,,,,,,,,,0,7,7,7,1,,,,,,,,,
,,,,,,,,,,,,,,,5,21,female,R,Donders,2021-07-07_10h53.26.356,ImageRatingTask_S1,2021.1.4,Win32,59.97001499,,,,,,,,,,,,,,,,,,,,,,,,,,0,45,45,12,1,DreamStudyImages_rs1000x750g/Mammals/Elephant 1.jpg,,,
,,,,,,,,,,,,,,main,5,21,female,R,Donders,2021-07-07_10h53.26.356,ImageRatingTask_S1,2021.1.4,Win32,59.97001499,,,,,,,,,,,2,3.1142,1,0.6018,6,3.1761,1,2.6923,6,1.2429,0,0,0,0,1,,,,,,,,,
,,,,,,,,,,,,,,second,5,21,female,R,Donders,2021-07-07_10h53.26.356,ImageRatingTask_S1,2021.1.4,Win32,59.97001499,,,,,,,,,,,,,,,,,,,,,0,1,1,1,1,,,,,,,,,
,,,,,,,,,,,,,,third,5,21,female,R,Donders,2021-07-07_10h53.26.356,ImageRatingTask_S1,2021.1.4,Win32,59.97001499,,,,,,,,,,,,,,,,,,,,,0,2,2,2,1,,,,,,,,,
,,,,,,,,,,,,,,fourth,5,21,female,R,Donders,2021-07-07_10h53.26.356,ImageRatingTask_S1,2021.1.4,Win32,59.97001499,,,,,,,,,,,,,,,,,,,,,0,3,3,3,1,,,,,,,,,
,,,,,,,,,,,,,,fifth,5,21,female,R,Donders,2021-07-07_10h53.26.356,ImageRatingTask_S1,2021.1.4,Win32,59.97001499,,,,,,,,,,,,,,,,,,,,,0,4,4,4,1,,,,,,,,,
,,,,,,,,,,,,,,sixth,5,21,female,R,Donders,2021-07-07_10h53.26.356,ImageRatingTask_S1,2021.1.4,Win32,59.97001499,,,,,,,,,,,,,,,,,,,,,0,5,5,5,1,,,,,,,,,
,,,,,,,,,,,,,,seventh,5,21,female,R,Donders,2021-07-07_10h53.26.356,ImageRatingTask_S1,2021.1.4,Win32,59.97001499,,,,,,,,,,,,,,,,,,,,,0,6,6,6,1,,,,,,,,,
,,,,,,,,,,,,,,last,5,21,female,R,Donders,2021-07-07_10h53.26.356,ImageRatingTask_S1,2021.1.4,Win32,59.97001499,,,,,,,,,,,,,,,,,,,,,0,7,7,7,1,,,,,,,,,
,,,,,,,,,,,,,,,5,21,female,R,Donders,2021-07-07_10h53.26.356,ImageRatingTask_S1,2021.1.4,Win32,59.97001499,,,,,,,,,,,,,,,,,,,,,,,,,,0,46,46,147,1,DreamStudyImages_rs1000x750g/Houses/NDPS95_cityskyline.jpg,,,
,,,,,,,,,,,,,,main,5,21,female,R,Donders,2021-07-07_10h53.26.356,ImageRatingTask_S1,2021.1.4,Win32,59.97001499,,,,,,,,,,,7,4.4029,4,2.394,7,2.8184,1,4.4567,5,2.3433,0,0,0,0,1,,,,,,,,,
,,,,,,,,,,,,,,second,5,21,female,R,Donders,2021-07-07_10h53.26.356,ImageRatingTask_S1,2021.1.4,Win32,59.97001499,,,,,,,,,,,,,,,,,,,,,0,1,1,1,1,,,,,,,,,
,,,,,,,,,,,,,,third,5,21,female,R,Donders,2021-07-07_10h53.26.356,ImageRatingTask_S1,2021.1.4,Win32,59.97001499,,,,,,,,,,,,,,,,,,,,,0,2,2,2,1,,,,,,,,,
,,,,,,,,,,,,,,fourth,5,21,female,R,Donders,2021-07-07_10h53.26.356,ImageRatingTask_S1,2021.1.4,Win32,59.97001499,,,,,,,,,,,,,,,,,,,,,0,3,3,3,1,,,,,,,,,
,,,,,,,,,,,,,,fifth,5,21,female,R,Donders,2021-07-07_10h53.26.356,ImageRatingTask_S1,2021.1.4,Win32,59.97001499,,,,,,,,,,,,,,,,,,,,,0,4,4,4,1,,,,,,,,,
,,,,,,,,,,,,,,sixth,5,21,female,R,Donders,2021-07-07_10h53.26.356,ImageRatingTask_S1,2021.1.4,Win32,59.97001499,,,,,,,,,,,,,,,,,,,,,0,5,5,5,1,,,,,,,,,
,,,,,,,,,,,,,,seventh,5,21,female,R,Donders,2021-07-07_10h53.26.356,ImageRatingTask_S1,2021.1.4,Win32,59.97001499,,,,,,,,,,,,,,,,,,,,,0,6,6,6,1,,,,,,,,,
,,,,,,,,,,,,,,last,5,21,female,R,Donders,2021-07-07_10h53.26.356,ImageRatingTask_S1,2021.1.4,Win32,59.97001499,,,,,,,,,,,,,,,,,,,,,0,7,7,7,1,,,,,,,,,
,,,,,,,,,,,,,,,5,21,female,R,Donders,2021-07-07_10h53.26.356,ImageRatingTask_S1,2021.1.4,Win32,59.97001499,,,,,,,,,,,,,,,,,,,,,,,,,,0,47,47,143,1,DreamStudyImages_rs1000x750g/Food/IAPS7282_pudding.jpg,,,
,,,,,,,,,,,,,,main,5,21,female,R,Donders,2021-07-07_10h53.26.356,ImageRatingTask_S1,2021.1.4,Win32,59.97001499,,,,,,,,,,,5,2.6977,2,3.629,8,1.9528,1,1.6956,7,0.9951,0,0,0,0,1,,,,,,,,,
,,,,,,,,,,,,,,second,5,21,female,R,Donders,2021-07-07_10h53.26.356,ImageRatingTask_S1,2021.1.4,Win32,59.97001499,,,,,,,,,,,,,,,,,,,,,0,1,1,1,1,,,,,,,,,
,,,,,,,,,,,,,,third,5,21,female,R,Donders,2021-07-07_10h53.26.356,ImageRatingTask_S1,2021.1.4,Win32,59.97001499,,,,,,,,,,,,,,,,,,,,,0,2,2,2,1,,,,,,,,,
,,,,,,,,,,,,,,fourth,5,21,female,R,Donders,2021-07-07_10h53.26.356,ImageRatingTask_S1,2021.1.4,Win32,59.97001499,,,,,,,,,,,,,,,,,,,,,0,3,3,3,1,,,,,,,,,
,,,,,,,,,,,,,,fifth,5,21,female,R,Donders,2021-07-07_10h53.26.356,ImageRatingTask_S1,2021.1.4,Win32,59.97001499,,,,,,,,,,,,,,,,,,,,,0,4,4,4,1,,,,,,,,,
,,,,,,,,,,,,,,sixth,5,21,female,R,Donders,2021-07-07_10h53.26.356,ImageRatingTask_S1,2021.1.4,Win32,59.97001499,,,,,,,,,,,,,,,,,,,,,0,5,5,5,1,,,,,,,,,
,,,,,,,,,,,,,,seventh,5,21,female,R,Donders,2021-07-07_10h53.26.356,ImageRatingTask_S1,2021.1.4,Win32,59.97001499,,,,,,,,,,,,,,,,,,,,,0,6,6,6,1,,,,,,,,,
,,,,,,,,,,,,,,last,5,21,female,R,Donders,2021-07-07_10h53.26.356,ImageRatingTask_S1,2021.1.4,Win32,59.97001499,,,,,,,,,,,,,,,,,,,,,0,7,7,7,1,,,,,,,,,
,,,,,,,,,,,,,,,5,21,female,R,Donders,2021-07-07_10h53.26.356,ImageRatingTask_S1,2021.1.4,Win32,59.97001499,,,,,,,,,,,,,,,,,,,,,,,,,,0,48,48,48,1,DreamStudyImages_rs1000x750g/Vehicles/Car race 3.jpg,,,
,,,,,,,,,,,,,,main,5,21,female,R,Donders,2021-07-07_10h53.26.356,ImageRatingTask_S1,2021.1.4,Win32,59.97001499,,,,,,,,,,,4,4.7156,1,0.8627,8,2.8954,2,3.5166,8,1.2226,0,0,0,0,1,,,,,,,,,
,,,,,,,,,,,,,,second,5,21,female,R,Donders,2021-07-07_10h53.26.356,ImageRatingTask_S1,2021.1.4,Win32,59.97001499,,,,,,,,,,,,,,,,,,,1,0.3992,0,1,1,1,1,,,,,,,,,
,,,,,,,,,,,,,,third,5,21,female,R,Donders,2021-07-07_10h53.26.356,ImageRatingTask_S1,2021.1.4,Win32,59.97001499,,,,,,,,,,,,,,,,,,,,,0,2,2,2,1,,,,,,,,,
,,,,,,,,,,,,,,fourth,5,21,female,R,Donders,2021-07-07_10h53.26.356,ImageRatingTask_S1,2021.1.4,Win32,59.97001499,,,,,,,,,,,,,,,,,,,,,0,3,3,3,1,,,,,,,,,
,,,,,,,,,,,,,,fifth,5,21,female,R,Donders,2021-07-07_10h53.26.356,ImageRatingTask_S1,2021.1.4,Win32,59.97001499,,,,,,,,,,,,,,,,,,,,,0,4,4,4,1,,,,,,,,,
,,,,,,,,,,,,,,sixth,5,21,female,R,Donders,2021-07-07_10h53.26.356,ImageRatingTask_S1,2021.1.4,Win32,59.97001499,,,,,,,,,,,,,,,,,,,,,0,5,5,5,1,,,,,,,,,
,,,,,,,,,,,,,,seventh,5,21,female,R,Donders,2021-07-07_10h53.26.356,ImageRatingTask_S1,2021.1.4,Win32,59.97001499,,,,,,,,,,,,,,,,,,,,,0,6,6,6,1,,,,,,,,,
,,,,,,,,,,,,,,last,5,21,female,R,Donders,2021-07-07_10h53.26.356,ImageRatingTask_S1,2021.1.4,Win32,59.97001499,,,,,,,,,,,,,,,,,,,,,0,7,7,7,1,,,,,,,,,
,,,,,,,,,,,,,,,5,21,female,R,Donders,2021-07-07_10h53.26.356,ImageRatingTask_S1,2021.1.4,Win32,59.97001499,,,,,,,,,,,,,,,,,,,,,,,,,,0,49,49,123,1,DreamStudyImages_rs1000x750g/Water/water_neg_bis.jpg,,,
,,,,,,,,,,,,,,main,5,21,female,R,Donders,2021-07-07_10h53.26.356,ImageRatingTask_S1,2021.1.4,Win32,59.97001499,,,,,,,,,,,5,2.6434,1,0.9959,8,3.5218,1,1.8551,2,0.2597,0,0,0,0,1,,,,,,,,,
,,,,,,,,,,,,,,second,5,21,female,R,Donders,2021-07-07_10h53.26.356,ImageRatingTask_S1,2021.1.4,Win32,59.97001499,,,,,,,,,,,,,,,,,,,,,0,1,1,1,1,,,,,,,,,
,,,,,,,,,,,,,,third,5,21,female,R,Donders,2021-07-07_10h53.26.356,ImageRatingTask_S1,2021.1.4,Win32,59.97001499,,,,,,,,,,,,,,,,,,,,,0,2,2,2,1,,,,,,,,,
,,,,,,,,,,,,,,fourth,5,21,female,R,Donders,2021-07-07_10h53.26.356,ImageRatingTask_S1,2021.1.4,Win32,59.97001499,,,,,,,,,,,,,,,,,,,,,0,3,3,3,1,,,,,,,,,
,,,,,,,,,,,,,,fifth,5,21,female,R,Donders,2021-07-07_10h53.26.356,ImageRatingTask_S1,2021.1.4,Win32,59.97001499,,,,,,,,,,,,,,,,,,,,,0,4,4,4,1,,,,,,,,,
,,,,,,,,,,,,,,sixth,5,21,female,R,Donders,2021-07-07_10h53.26.356,ImageRatingTask_S1,2021.1.4,Win32,59.97001499,,,,,,,,,,,,,,,,,,,,,0,5,5,5,1,,,,,,,,,
,,,,,,,,,,,,,,seventh,5,21,female,R,Donders,2021-07-07_10h53.26.356,ImageRatingTask_S1,2021.1.4,Win32,59.97001499,,,,,,,,,,,,,,,,,,,,,0,6,6,6,1,,,,,,,,,
,,,,,,,,,,,,,,last,5,21,female,R,Donders,2021-07-07_10h53.26.356,ImageRatingTask_S1,2021.1.4,Win32,59.97001499,,,,,,,,,,,,,,,,,,,,,0,7,7,7,1,,,,,,,,,
,,,,,,,,,,,,,,,5,21,female,R,Donders,2021-07-07_10h53.26.356,ImageRatingTask_S1,2021.1.4,Win32,59.97001499,,,,,,,,,,,,,,,,,,,,,,,,,,0,50,50,17,1,DreamStudyImages_rs1000x750g/Children/IAPS2457_boy10.jpg,,,
,,,,,,,,,,,,,,main,5,21,female,R,Donders,2021-07-07_10h53.26.356,ImageRatingTask_S1,2021.1.4,Win32,59.97001499,,,,,,,,,,,6,3.9972,1,0.8438,7,4.051,2,2.8382,2,0.9983,0,0,0,0,1,,,,,,,,,
,,,,,,,,,,,,,,second,5,21,female,R,Donders,2021-07-07_10h53.26.356,ImageRatingTask_S1,2021.1.4,Win32,59.97001499,,,,,,,,,,,,,,,,,,,6,0.9511,0,1,1,1,1,,,,,,,,,
,,,,,,,,,,,,,,third,5,21,female,R,Donders,2021-07-07_10h53.26.356,ImageRatingTask_S1,2021.1.4,Win32,59.97001499,,,,,,,,,,,,,,,,,,,,,0,2,2,2,1,,,,,,,,,
,,,,,,,,,,,,,,fourth,5,21,female,R,Donders,2021-07-07_10h53.26.356,ImageRatingTask_S1,2021.1.4,Win32,59.97001499,,,,,,,,,,,,,,,,,,,,,0,3,3,3,1,,,,,,,,,
,,,,,,,,,,,,,,fifth,5,21,female,R,Donders,2021-07-07_10h53.26.356,ImageRatingTask_S1,2021.1.4,Win32,59.97001499,,,,,,,,,,,,,,,,,,,,,0,4,4,4,1,,,,,,,,,
,,,,,,,,,,,,,,sixth,5,21,female,R,Donders,2021-07-07_10h53.26.356,ImageRatingTask_S1,2021.1.4,Win32,59.97001499,,,,,,,,,,,,,,,,,,,,,0,5,5,5,1,,,,,,,,,
,,,,,,,,,,,,,,seventh,5,21,female,R,Donders,2021-07-07_10h53.26.356,ImageRatingTask_S1,2021.1.4,Win32,59.97001499,,,,,,,,,,,,,,,,,,,,,0,6,6,6,1,,,,,,,,,
,,,,,,,,,,,,,,last,5,21,female,R,Donders,2021-07-07_10h53.26.356,ImageRatingTask_S1,2021.1.4,Win32,59.97001499,,,,,,,,,,,,,,,,,,,,,0,7,7,7,1,,,,,,,,,
,,,,,,,,,,,,,,,5,21,female,R,Donders,2021-07-07_10h53.26.356,ImageRatingTask_S1,2021.1.4,Win32,59.97001499,,,,,,,,,,,,,,,,,,,,,,,,,,0,51,51,95,1,DreamStudyImages_rs1000x750g/Children/IAPS2274_children7.jpg,,,
,,,,,,,,,,,,,,main,5,21,female,R,Donders,2021-07-07_10h53.26.356,ImageRatingTask_S1,2021.1.4,Win32,59.97001499,,,,,,,,,,,4,3.1645,1,0.8261,8,1.5941,1,5.2698,8,1.191,0,0,0,0,1,,,,,,,,,
,,,,,,,,,,,,,,second,5,21,female,R,Donders,2021-07-07_10h53.26.356,ImageRatingTask_S1,2021.1.4,Win32,59.97001499,,,,,,,,,,,,,,,,,,,,,0,1,1,1,1,,,,,,,,,
,,,,,,,,,,,,,,third,5,21,female,R,Donders,2021-07-07_10h53.26.356,ImageRatingTask_S1,2021.1.4,Win32,59.97001499,,,,,,,,,,,,,,,,,,,,,0,2,2,2,1,,,,,,,,,
,,,,,,,,,,,,,,fourth,5,21,female,R,Donders,2021-07-07_10h53.26.356,ImageRatingTask_S1,2021.1.4,Win32,59.97001499,,,,,,,,,,,,,,,,,,,,,0,3,3,3,1,,,,,,,,,
,,,,,,,,,,,,,,fifth,5,21,female,R,Donders,2021-07-07_10h53.26.356,ImageRatingTask_S1,2021.1.4,Win32,59.97001499,,,,,,,,,,,,,,,,,,,,,0,4,4,4,1,,,,,,,,,
,,,,,,,,,,,,,,sixth,5,21,female,R,Donders,2021-07-07_10h53.26.356,ImageRatingTask_S1,2021.1.4,Win32,59.97001499,,,,,,,,,,,,,,,,,,,,,0,5,5,5,1,,,,,,,,,
,,,,,,,,,,,,,,seventh,5,21,female,R,Donders,2021-07-07_10h53.26.356,ImageRatingTask_S1,2021.1.4,Win32,59.97001499,,,,,,,,,,,,,,,,,,,,,0,6,6,6,1,,,,,,,,,
,,,,,,,,,,,,,,last,5,21,female,R,Donders,2021-07-07_10h53.26.356,ImageRatingTask_S1,2021.1.4,Win32,59.97001499,,,,,,,,,,,,,,,,,,,,,0,7,7,7,1,,,,,,,,,
,,,,,,,,,,,,,,,5,21,female,R,Donders,2021-07-07_10h53.26.356,ImageRatingTask_S1,2021.1.4,Win32,59.97001499,,,,,,,,,,,,,,,,,,,,,,,,,,0,52,52,111,1,DreamStudyImages_rs1000x750g/Water/Objects_140_h.jpg,,,
,,,,,,,,,,,,,,main,5,21,female,R,Donders,2021-07-07_10h53.26.356,ImageRatingTask_S1,2021.1.4,Win32,59.97001499,,,,,,,,,,,8,2.1205,3,1.6192,9,3.9465,1,1.7889,8,0.654,0,0,0,0,1,,,,,,,,,
,,,,,,,,,,,,,,second,5,21,female,R,Donders,2021-07-07_10h53.26.356,ImageRatingTask_S1,2021.1.4,Win32,59.97001499,,,,,,,,,,,,,,,,,,,,,0,1,1,1,1,,,,,,,,,
,,,,,,,,,,,,,,third,5,21,female,R,Donders,2021-07-07_10h53.26.356,ImageRatingTask_S1,2021.1.4,Win32,59.97001499,,,,,,,,,,,,,,,,,,,,,0,2,2,2,1,,,,,,,,,
,,,,,,,,,,,,,,fourth,5,21,female,R,Donders,2021-07-07_10h53.26.356,ImageRatingTask_S1,2021.1.4,Win32,59.97001499,,,,,,,,,,,,,,,,,,,,,0,3,3,3,1,,,,,,,,,
,,,,,,,,,,,,,,fifth,5,21,female,R,Donders,2021-07-07_10h53.26.356,ImageRatingTask_S1,2021.1.4,Win32,59.97001499,,,,,,,,,,,,,,,,,,,,,0,4,4,4,1,,,,,,,,,
,,,,,,,,,,,,,,sixth,5,21,female,R,Donders,2021-07-07_10h53.26.356,ImageRatingTask_S1,2021.1.4,Win32,59.97001499,,,,,,,,,,,,,,,,,,,,,0,5,5,5,1,,,,,,,,,
,,,,,,,,,,,,,,seventh,5,21,female,R,Donders,2021-07-07_10h53.26.356,ImageRatingTask_S1,2021.1.4,Win32,59.97001499,,,,,,,,,,,,,,,,,,,,,0,6,6,6,1,,,,,,,,,
,,,,,,,,,,,,,,last,5,21,female,R,Donders,2021-07-07_10h53.26.356,ImageRatingTask_S1,2021.1.4,Win32,59.97001499,,,,,,,,,,,,,,,,,,,,,0,7,7,7,1,,,,,,,,,
,,,,,,,,,,,,,,,5,21,female,R,Donders,2021-07-07_10h53.26.356,ImageRatingTask_S1,2021.1.4,Win32,59.97001499,,,,,,,,,,,,,,,,,,,,,,,,,,0,53,53,132,1,DreamStudyImages_rs1000x750g/Water/sunsetpontoon.jpg,,,
,,,,,,,,,,,,,,main,5,21,female,R,Donders,2021-07-07_10h53.26.356,ImageRatingTask_S1,2021.1.4,Win32,59.97001499,,,,,,,,,,,6,3.4037,2,1.172,8,1.6943,1,2.2434,6,1.6501,0,0,0,0,1,,,,,,,,,
,,,,,,,,,,,,,,second,5,21,female,R,Donders,2021-07-07_10h53.26.356,ImageRatingTask_S1,2021.1.4,Win32,59.97001499,,,,,,,,,,,,,,,,,,,,,0,1,1,1,1,,,,,,,,,
,,,,,,,,,,,,,,third,5,21,female,R,Donders,2021-07-07_10h53.26.356,ImageRatingTask_S1,2021.1.4,Win32,59.97001499,,,,,,,,,,,,,,,,,,,,,0,2,2,2,1,,,,,,,,,
,,,,,,,,,,,,,,fourth,5,21,female,R,Donders,2021-07-07_10h53.26.356,ImageRatingTask_S1,2021.1.4,Win32,59.97001499,,,,,,,,,,,,,,,,,,,,,0,3,3,3,1,,,,,,,,,
,,,,,,,,,,,,,,fifth,5,21,female,R,Donders,2021-07-07_10h53.26.356,ImageRatingTask_S1,2021.1.4,Win32,59.97001499,,,,,,,,,,,,,,,,,,,,,0,4,4,4,1,,,,,,,,,
,,,,,,,,,,,,,,sixth,5,21,female,R,Donders,2021-07-07_10h53.26.356,ImageRatingTask_S1,2021.1.4,Win32,59.97001499,,,,,,,,,,,,,,,,,,,,,0,5,5,5,1,,,,,,,,,
,,,,,,,,,,,,,,seventh,5,21,female,R,Donders,2021-07-07_10h53.26.356,ImageRatingTask_S1,2021.1.4,Win32,59.97001499,,,,,,,,,,,,,,,,,,,,,0,6,6,6,1,,,,,,,,,
,,,,,,,,,,,,,,last,5,21,female,R,Donders,2021-07-07_10h53.26.356,ImageRatingTask_S1,2021.1.4,Win32,59.97001499,,,,,,,,,,,,,,,,,,,,,0,7,7,7,1,,,,,,,,,
,,,,,,,,,,,,,,,5,21,female,R,Donders,2021-07-07_10h53.26.356,ImageRatingTask_S1,2021.1.4,Win32,59.97001499,,,,,,,,,,,,,,,,,,,,,,,,,,0,54,54,75,1,DreamStudyImages_rs1000x750g/Houses/Landscapes_065_h.jpg,,,
,,,,,,,,,,,,,,main,5,21,female,R,Donders,2021-07-07_10h53.26.356,ImageRatingTask_S1,2021.1.4,Win32,59.97001499,,,,,,,,,,,5,2.2461,2,0.6289,8,3.3106,0,2.8775,,,0,0,0,0,1,,,,,,,,,
,,,,,,,,,,,,,,second,5,21,female,R,Donders,2021-07-07_10h53.26.356,ImageRatingTask_S1,2021.1.4,Win32,59.97001499,,,,,,,,,,,,,,,,,,,,,0,1,1,1,1,,,,,,,,,
,,,,,,,,,,,,,,third,5,21,female,R,Donders,2021-07-07_10h53.26.356,ImageRatingTask_S1,2021.1.4,Win32,59.97001499,,,,,,,,,,,,,,,,,,,,,0,2,2,2,1,,,,,,,,,
,,,,,,,,,,,,,,fourth,5,21,female,R,Donders,2021-07-07_10h53.26.356,ImageRatingTask_S1,2021.1.4,Win32,59.97001499,,,,,,,,,,,,,,,,,,,,,0,3,3,3,1,,,,,,,,,
,,,,,,,,,,,,,,fifth,5,21,female,R,Donders,2021-07-07_10h53.26.356,ImageRatingTask_S1,2021.1.4,Win32,59.97001499,,,,,,,,,,,,,,,,,,,,,0,4,4,4,1,,,,,,,,,
,,,,,,,,,,,,,,sixth,5,21,female,R,Donders,2021-07-07_10h53.26.356,ImageRatingTask_S1,2021.1.4,Win32,59.97001499,,,,,,,,,,,,,,,,,,,,,0,5,5,5,1,,,,,,,,,
,,,,,,,,,,,,,,seventh,5,21,female,R,Donders,2021-07-07_10h53.26.356,ImageRatingTask_S1,2021.1.4,Win32,59.97001499,,,,,,,,,,,,,,,,,,,,,0,6,6,6,1,,,,,,,,,
,,,,,,,,,,,,,,last,5,21,female,R,Donders,2021-07-07_10h53.26.356,ImageRatingTask_S1,2021.1.4,Win32,59.97001499,,,,,,,,,,,,,,,,,,,,,0,7,7,7,1,,,,,,,,,
,,,,,,,,,,,,,,,5,21,female,R,Donders,2021-07-07_10h53.26.356,ImageRatingTask_S1,2021.1.4,Win32,59.97001499,,,,,,,,,,,,,,,,,,,,,,,,,,0,55,55,135,1,DreamStudyImages_rs1000x750g/Food/Objects_068_v.jpg,,,
,,,,,,,,,,,,,,main,5,21,female,R,Donders,2021-07-07_10h53.26.356,ImageRatingTask_S1,2021.1.4,Win32,59.97001499,,,,,,,,,,,5,3.7338,1,1.7129,7,2.0743,1,1.6897,3,0.7836,0,0,0,0,1,,,,,,,,,
,,,,,,,,,,,,,,second,5,21,female,R,Donders,2021-07-07_10h53.26.356,ImageRatingTask_S1,2021.1.4,Win32,59.97001499,,,,,,,,,,,,,,,,,,,,,0,1,1,1,1,,,,,,,,,
,,,,,,,,,,,,,,third,5,21,female,R,Donders,2021-07-07_10h53.26.356,ImageRatingTask_S1,2021.1.4,Win32,59.97001499,,,,,,,,,,,,,,,,,,,,,0,2,2,2,1,,,,,,,,,
,,,,,,,,,,,,,,fourth,5,21,female,R,Donders,2021-07-07_10h53.26.356,ImageRatingTask_S1,2021.1.4,Win32,59.97001499,,,,,,,,,,,,,,,,,,,,,0,3,3,3,1,,,,,,,,,
,,,,,,,,,,,,,,fifth,5,21,female,R,Donders,2021-07-07_10h53.26.356,ImageRatingTask_S1,2021.1.4,Win32,59.97001499,,,,,,,,,,,,,,,,,,,,,0,4,4,4,1,,,,,,,,,
,,,,,,,,,,,,,,sixth,5,21,female,R,Donders,2021-07-07_10h53.26.356,ImageRatingTask_S1,2021.1.4,Win32,59.97001499,,,,,,,,,,,,,,,,,,,,,0,5,5,5,1,,,,,,,,,
,,,,,,,,,,,,,,seventh,5,21,female,R,Donders,2021-07-07_10h53.26.356,ImageRatingTask_S1,2021.1.4,Win32,59.97001499,,,,,,,,,,,,,,,,,,,,,0,6,6,6,1,,,,,,,,,
,,,,,,,,,,,,,,last,5,21,female,R,Donders,2021-07-07_10h53.26.356,ImageRatingTask_S1,2021.1.4,Win32,59.97001499,,,,,,,,,,,,,,,,,,,,,0,7,7,7,1,,,,,,,,,
,,,,,,,,,,,,,,,5,21,female,R,Donders,2021-07-07_10h53.26.356,ImageRatingTask_S1,2021.1.4,Win32,59.97001499,,,,,,,,,,,,,,,,,,,,,,,,,,0,56,56,104,1,DreamStudyImages_rs1000x750g/Mammals/IAPS1540_cat.jpg,,,
,,,,,,,,,,,,,,main,5,21,female,R,Donders,2021-07-07_10h53.26.356,ImageRatingTask_S1,2021.1.4,Win32,59.97001499,,,,,,,,,,,7,3.7938,3,1.8798,9,2.5018,1,1.8093,6,0.9658,0,0,0,0,1,,,,,,,,,
,,,,,,,,,,,,,,second,5,21,female,R,Donders,2021-07-07_10h53.26.356,ImageRatingTask_S1,2021.1.4,Win32,59.97001499,,,,,,,,,,,,,,,,,,,,,0,1,1,1,1,,,,,,,,,
,,,,,,,,,,,,,,third,5,21,female,R,Donders,2021-07-07_10h53.26.356,ImageRatingTask_S1,2021.1.4,Win32,59.97001499,,,,,,,,,,,,,,,,,,,,,0,2,2,2,1,,,,,,,,,
,,,,,,,,,,,,,,fourth,5,21,female,R,Donders,2021-07-07_10h53.26.356,ImageRatingTask_S1,2021.1.4,Win32,59.97001499,,,,,,,,,,,,,,,,,,,,,0,3,3,3,1,,,,,,,,,
,,,,,,,,,,,,,,fifth,5,21,female,R,Donders,2021-07-07_10h53.26.356,ImageRatingTask_S1,2021.1.4,Win32,59.97001499,,,,,,,,,,,,,,,,,,,,,0,4,4,4,1,,,,,,,,,
,,,,,,,,,,,,,,sixth,5,21,female,R,Donders,2021-07-07_10h53.26.356,ImageRatingTask_S1,2021.1.4,Win32,59.97001499,,,,,,,,,,,,,,,,,,,,,0,5,5,5,1,,,,,,,,,
,,,,,,,,,,,,,,seventh,5,21,female,R,Donders,2021-07-07_10h53.26.356,ImageRatingTask_S1,2021.1.4,Win32,59.97001499,,,,,,,,,,,,,,,,,,,,,0,6,6,6,1,,,,,,,,,
,,,,,,,,,,,,,,last,5,21,female,R,Donders,2021-07-07_10h53.26.356,ImageRatingTask_S1,2021.1.4,Win32,59.97001499,,,,,,,,,,,,,,,,,,,,,0,7,7,7,1,,,,,,,,,
,,,,,,,,,,,,,,,5,21,female,R,Donders,2021-07-07_10h53.26.356,ImageRatingTask_S1,2021.1.4,Win32,59.97001499,,,,,,,,,,,,,,,,,,,,,,,,,,0,57,57,110,1,DreamStudyImages_rs1000x750g/Houses/Landscapes_035_v.jpg,,,
,,,,,,,,,,,,,,main,5,21,female,R,Donders,2021-07-07_10h53.26.356,ImageRatingTask_S1,2021.1.4,Win32,59.97001499,,,,,,,,,,,5,2.834,1,1.5624,6,2.8009,1,2.0965,2,0.6075,0,0,0,0,1,,,,,,,,,
,,,,,,,,,,,,,,second,5,21,female,R,Donders,2021-07-07_10h53.26.356,ImageRatingTask_S1,2021.1.4,Win32,59.97001499,,,,,,,,,,,,,,,,,,,,,0,1,1,1,1,,,,,,,,,
,,,,,,,,,,,,,,third,5,21,female,R,Donders,2021-07-07_10h53.26.356,ImageRatingTask_S1,2021.1.4,Win32,59.97001499,,,,,,,,,,,,,,,,,,,,,0,2,2,2,1,,,,,,,,,
,,,,,,,,,,,,,,fourth,5,21,female,R,Donders,2021-07-07_10h53.26.356,ImageRatingTask_S1,2021.1.4,Win32,59.97001499,,,,,,,,,,,,,,,,,,,,,0,3,3,3,1,,,,,,,,,
,,,,,,,,,,,,,,fifth,5,21,female,R,Donders,2021-07-07_10h53.26.356,ImageRatingTask_S1,2021.1.4,Win32,59.97001499,,,,,,,,,,,,,,,,,,,,,0,4,4,4,1,,,,,,,,,
,,,,,,,,,,,,,,sixth,5,21,female,R,Donders,2021-07-07_10h53.26.356,ImageRatingTask_S1,2021.1.4,Win32,59.97001499,,,,,,,,,,,,,,,,,,,,,0,5,5,5,1,,,,,,,,,
,,,,,,,,,,,,,,seventh,5,21,female,R,Donders,2021-07-07_10h53.26.356,ImageRatingTask_S1,2021.1.4,Win32,59.97001499,,,,,,,,,,,,,,,,,,,,,0,6,6,6,1,,,,,,,,,
,,,,,,,,,,,,,,last,5,21,female,R,Donders,2021-07-07_10h53.26.356,ImageRatingTask_S1,2021.1.4,Win32,59.97001499,,,,,,,,,,,,,,,,,,,,,0,7,7,7,1,,,,,,,,,
,,,,,,,,,,,,,,,5,21,female,R,Donders,2021-07-07_10h53.26.356,ImageRatingTask_S1,2021.1.4,Win32,59.97001499,,,,,,,,,,,,,,,,,,,,,,,,,,0,58,58,19,1,DreamStudyImages_rs1000x750g/Children/IAPS2260_baby20.jpg,,,
,,,,,,,,,,,,,,main,5,21,female,R,Donders,2021-07-07_10h53.26.356,ImageRatingTask_S1,2021.1.4,Win32,59.97001499,,,,,,,,,,,5,2.6898,1,2.5932,4,3.4845,1,1.695,6,1.2074,0,0,0,0,1,,,,,,,,,
,,,,,,,,,,,,,,second,5,21,female,R,Donders,2021-07-07_10h53.26.356,ImageRatingTask_S1,2021.1.4,Win32,59.97001499,,,,,,,,,,,,,,,,,,,,,0,1,1,1,1,,,,,,,,,
,,,,,,,,,,,,,,third,5,21,female,R,Donders,2021-07-07_10h53.26.356,ImageRatingTask_S1,2021.1.4,Win32,59.97001499,,,,,,,,,,,,,,,,,,,,,0,2,2,2,1,,,,,,,,,
,,,,,,,,,,,,,,fourth,5,21,female,R,Donders,2021-07-07_10h53.26.356,ImageRatingTask_S1,2021.1.4,Win32,59.97001499,,,,,,,,,,,,,,,,,,,,,0,3,3,3,1,,,,,,,,,
,,,,,,,,,,,,,,fifth,5,21,female,R,Donders,2021-07-07_10h53.26.356,ImageRatingTask_S1,2021.1.4,Win32,59.97001499,,,,,,,,,,,,,,,,,,,,,0,4,4,4,1,,,,,,,,,
,,,,,,,,,,,,,,sixth,5,21,female,R,Donders,2021-07-07_10h53.26.356,ImageRatingTask_S1,2021.1.4,Win32,59.97001499,,,,,,,,,,,,,,,,,,,,,0,5,5,5,1,,,,,,,,,
,,,,,,,,,,,,,,seventh,5,21,female,R,Donders,2021-07-07_10h53.26.356,ImageRatingTask_S1,2021.1.4,Win32,59.97001499,,,,,,,,,,,,,,,,,,,,,0,6,6,6,1,,,,,,,,,
,,,,,,,,,,,,,,last,5,21,female,R,Donders,2021-07-07_10h53.26.356,ImageRatingTask_S1,2021.1.4,Win32,59.97001499,,,,,,,,,,,,,,,,,,,,,0,7,7,7,1,,,,,,,,,
,,,,,,,,,,,,,,,5,21,female,R,Donders,2021-07-07_10h53.26.356,ImageRatingTask_S1,2021.1.4,Win32,59.97001499,,,,,,,,,,,,,,,,,,,,,,,,,,0,59,59,51,1,DreamStudyImages_rs1000x750g/Houses/Skyscraper 2_CROPPED.jpg,,,
,,,,,,,,,,,,,,main,5,21,female,R,Donders,2021-07-07_10h53.26.356,ImageRatingTask_S1,2021.1.4,Win32,59.97001499,,,,,,,,,,,5,3.5746,1,1.1592,8,5.548,1,4.2195,2,0.9121,0,0,0,0,1,,,,,,,,,
,,,,,,,,,,,,,,second,5,21,female,R,Donders,2021-07-07_10h53.26.356,ImageRatingTask_S1,2021.1.4,Win32,59.97001499,,,,,,,,,,,,,,,,,,,,,0,1,1,1,1,,,,,,,,,
,,,,,,,,,,,,,,third,5,21,female,R,Donders,2021-07-07_10h53.26.356,ImageRatingTask_S1,2021.1.4,Win32,59.97001499,,,,,,,,,,,,,,,,,,,,,0,2,2,2,1,,,,,,,,,
,,,,,,,,,,,,,,fourth,5,21,female,R,Donders,2021-07-07_10h53.26.356,ImageRatingTask_S1,2021.1.4,Win32,59.97001499,,,,,,,,,,,,,,,,,,,,,0,3,3,3,1,,,,,,,,,
,,,,,,,,,,,,,,fifth,5,21,female,R,Donders,2021-07-07_10h53.26.356,ImageRatingTask_S1,2021.1.4,Win32,59.97001499,,,,,,,,,,,,,,,,,,,,,0,4,4,4,1,,,,,,,,,
,,,,,,,,,,,,,,sixth,5,21,female,R,Donders,2021-07-07_10h53.26.356,ImageRatingTask_S1,2021.1.4,Win32,59.97001499,,,,,,,,,,,,,,,,,,,,,0,5,5,5,1,,,,,,,,,
,,,,,,,,,,,,,,seventh,5,21,female,R,Donders,2021-07-07_10h53.26.356,ImageRatingTask_S1,2021.1.4,Win32,59.97001499,,,,,,,,,,,,,,,,,,,,,0,6,6,6,1,,,,,,,,,
,,,,,,,,,,,,,,last,5,21,female,R,Donders,2021-07-07_10h53.26.356,ImageRatingTask_S1,2021.1.4,Win32,59.97001499,,,,,,,,,,,,,,,,,,,,,0,7,7,7,1,,,,,,,,,
,,,,,,,,,,,,,,,5,21,female,R,Donders,2021-07-07_10h53.26.356,ImageRatingTask_S1,2021.1.4,Win32,59.97001499,,,,,,,,,,,,,,,,,,,,,,,,,,0,60,60,26,1,DreamStudyImages_rs1000x750g/Children/Faces_129_h.jpg,,,
,,,,,,,,,,,,,,main,5,21,female,R,Donders,2021-07-07_10h53.26.356,ImageRatingTask_S1,2021.1.4,Win32,59.97001499,,,,,,,,,,,8,1.8215,4,1.1093,6,3.5745,1,1.8967,5,1.2838,0,0,0,0,1,,,,,,,,,
,,,,,,,,,,,,,,second,5,21,female,R,Donders,2021-07-07_10h53.26.356,ImageRatingTask_S1,2021.1.4,Win32,59.97001499,,,,,,,,,,,,,,,,,,,,,0,1,1,1,1,,,,,,,,,
,,,,,,,,,,,,,,third,5,21,female,R,Donders,2021-07-07_10h53.26.356,ImageRatingTask_S1,2021.1.4,Win32,59.97001499,,,,,,,,,,,,,,,,,,,,,0,2,2,2,1,,,,,,,,,
,,,,,,,,,,,,,,fourth,5,21,female,R,Donders,2021-07-07_10h53.26.356,ImageRatingTask_S1,2021.1.4,Win32,59.97001499,,,,,,,,,,,,,,,,,,,,,0,3,3,3,1,,,,,,,,,
,,,,,,,,,,,,,,fifth,5,21,female,R,Donders,2021-07-07_10h53.26.356,ImageRatingTask_S1,2021.1.4,Win32,59.97001499,,,,,,,,,,,,,,,,,,,,,0,4,4,4,1,,,,,,,,,
,,,,,,,,,,,,,,sixth,5,21,female,R,Donders,2021-07-07_10h53.26.356,ImageRatingTask_S1,2021.1.4,Win32,59.97001499,,,,,,,,,,,,,,,,,,,,,0,5,5,5,1,,,,,,,,,
,,,,,,,,,,,,,,seventh,5,21,female,R,Donders,2021-07-07_10h53.26.356,ImageRatingTask_S1,2021.1.4,Win32,59.97001499,,,,,,,,,,,,,,,,,,,,,0,6,6,6,1,,,,,,,,,
,,,,,,,,,,,,,,last,5,21,female,R,Donders,2021-07-07_10h53.26.356,ImageRatingTask_S1,2021.1.4,Win32,59.97001499,,,,,,,,,,,,,,,,,,,,,0,7,7,7,1,,,,,,,,,
,,,,,,,,,,,,,,,5,21,female,R,Donders,2021-07-07_10h53.26.356,ImageRatingTask_S1,2021.1.4,Win32,59.97001499,,,,,,,,,,,,,,,,,,,,,,,,,,0,61,61,88,1,DreamStudyImages_rs1000x750g/Food/IAPS7220_pastries.jpg,,,
,,,,,,,,,,,,,,main,5,21,female,R,Donders,2021-07-07_10h53.26.356,ImageRatingTask_S1,2021.1.4,Win32,59.97001499,,,,,,,,,,,4,3.6454,1,1.3554,8,2.7415,1,2.6754,6,1.7952,0,0,0,0,1,,,,,,,,,
,,,,,,,,,,,,,,second,5,21,female,R,Donders,2021-07-07_10h53.26.356,ImageRatingTask_S1,2021.1.4,Win32,59.97001499,,,,,,,,,,,,,,,,,,,,,0,1,1,1,1,,,,,,,,,
,,,,,,,,,,,,,,third,5,21,female,R,Donders,2021-07-07_10h53.26.356,ImageRatingTask_S1,2021.1.4,Win32,59.97001499,,,,,,,,,,,,,,,,,,,,,0,2,2,2,1,,,,,,,,,
,,,,,,,,,,,,,,fourth,5,21,female,R,Donders,2021-07-07_10h53.26.356,ImageRatingTask_S1,2021.1.4,Win32,59.97001499,,,,,,,,,,,,,,,,,,,,,0,3,3,3,1,,,,,,,,,
