slider_pre.response,slider_pre.rt,key_val.keys,key_val.rt,key_aro.keys,key_aro.rt,key_qual.keys,key_qual.rt,key_ncat.keys,key_ncat.rt,key_cats.keys,key_cats.rt,ncat_order.thisRepN,ncat_order.thisTrialN,ncat_order.thisN,ncat_order.thisIndex,ncat_order.ran,cond_cat,participant,age,gender,handedness (L/R),site (IMT/Donders),date,expName,psychopyVersion,OS,frameRate,img_trials.thisRepN,img_trials.thisTrialN,img_trials.thisN,img_trials.thisIndex,img_trials.ran,filename,slider_post.response,slider_post.rt,key_fb.keys,key_fb.rt,fb.thisRepN,fb.thisTrialN,fb.thisN,fb.thisIndex,fb.ran,fb_qst,textbox_openfb.text
7,3.1912,9,1.4478,7,1.2818,7,2.8009,1,6.7615,3,0.2702,0,0,0,0,1,main,6,21,Female,R,Donders,2021-07-10_10h01.02.013,ImageRatingTask_S5,2021.1.4,Win32,60.29181237,,,,,,,,,,,,,,,,,
,,,,,,,,,,,,0,1,1,1,1,second,6,21,Female,R,Donders,2021-07-10_10h01.02.013,ImageRatingTask_S5,2021.1.4,Win32,60.29181237,,,,,,,,,,,,,,,,,
,,,,,,,,,,,,0,2,2,2,1,third,6,21,Female,R,Donders,2021-07-10_10h01.02.013,ImageRatingTask_S5,2021.1.4,Win32,60.29181237,,,,,,,,,,,,,,,,,
,,,,,,,,,,,,0,3,3,3,1,fourth,6,21,Female,R,Donders,2021-07-10_10h01.02.013,ImageRatingTask_S5,2021.1.4,Win32,60.29181237,,,,,,,,,,,,,,,,,
,,,,,,,,,,,,0,4,4,4,1,fifth,6,21,Female,R,Donders,2021-07-10_10h01.02.013,ImageRatingTask_S5,2021.1.4,Win32,60.29181237,,,,,,,,,,,,,,,,,
,,,,,,,,,,,,0,5,5,5,1,sixth,6,21,Female,R,Donders,2021-07-10_10h01.02.013,ImageRatingTask_S5,2021.1.4,Win32,60.29181237,,,,,,,,,,,,,,,,,
,,,,,,,,,,,,0,6,6,6,1,seventh,6,21,Female,R,Donders,2021-07-10_10h01.02.013,ImageRatingTask_S5,2021.1.4,Win32,60.29181237,,,,,,,,,,,,,,,,,
,,,,,,,,,,,,0,7,7,7,1,last,6,21,Female,R,Donders,2021-07-10_10h01.02.013,ImageRatingTask_S5,2021.1.4,Win32,60.29181237,,,,,,,,,,,,,,,,,
,,,,,,,,,,,,,,,,,,6,21,Female,R,Donders,2021-07-10_10h01.02.013,ImageRatingTask_S5,2021.1.4,Win32,60.29181237,0,0,0,38,1,DreamStudyImages_rs1000x750g/Mammals/Animals_177_h.jpg,,,,,,,,,,,
,,4,3.3691,7,3.9552,6,2.0786,1,1.2088,5,0.6056,0,0,0,0,1,main,6,21,Female,R,Donders,2021-07-10_10h01.02.013,ImageRatingTask_S5,2021.1.4,Win32,60.29181237,,,,,,,,,,,,,,,,,
,,,,,,,,,,,,0,1,1,1,1,second,6,21,Female,R,Donders,2021-07-10_10h01.02.013,ImageRatingTask_S5,2021.1.4,Win32,60.29181237,,,,,,,,,,,,,,,,,
,,,,,,,,,,,,0,2,2,2,1,third,6,21,Female,R,Donders,2021-07-10_10h01.02.013,ImageRatingTask_S5,2021.1.4,Win32,60.29181237,,,,,,,,,,,,,,,,,
,,,,,,,,,,,,0,3,3,3,1,fourth,6,21,Female,R,Donders,2021-07-10_10h01.02.013,ImageRatingTask_S5,2021.1.4,Win32,60.29181237,,,,,,,,,,,,,,,,,
,,,,,,,,,,,,0,4,4,4,1,fifth,6,21,Female,R,Donders,2021-07-10_10h01.02.013,ImageRatingTask_S5,2021.1.4,Win32,60.29181237,,,,,,,,,,,,,,,,,
,,,,,,,,,,,,0,5,5,5,1,sixth,6,21,Female,R,Donders,2021-07-10_10h01.02.013,ImageRatingTask_S5,2021.1.4,Win32,60.29181237,,,,,,,,,,,,,,,,,
,,,,,,,,,,,,0,6,6,6,1,seventh,6,21,Female,R,Donders,2021-07-10_10h01.02.013,ImageRatingTask_S5,2021.1.4,Win32,60.29181237,,,,,,,,,,,,,,,,,
,,,,,,,,,,,,0,7,7,7,1,last,6,21,Female,R,Donders,2021-07-10_10h01.02.013,ImageRatingTask_S5,2021.1.4,Win32,60.29181237,,,,,,,,,,,,,,,,,
,,,,,,,,,,,,,,,,,,6,21,Female,R,Donders,2021-07-10_10h01.02.013,ImageRatingTask_S5,2021.1.4,Win32,60.29181237,0,1,1,64,1,DreamStudyImages_rs1000x750g/Food/Objects_017_v.jpg,,,,,,,,,,,
,,6,2.1116,3,0.7523,6,5.8513,1,0.7539,2,0.2051,0,0,0,0,1,main,6,21,Female,R,Donders,2021-07-10_10h01.02.013,ImageRatingTask_S5,2021.1.4,Win32,60.29181237,,,,,,,,,,,,,,,,,
,,,,,,,,,,,,0,1,1,1,1,second,6,21,Female,R,Donders,2021-07-10_10h01.02.013,ImageRatingTask_S5,2021.1.4,Win32,60.29181237,,,,,,,,,,,,,,,,,
,,,,,,,,,,,,0,2,2,2,1,third,6,21,Female,R,Donders,2021-07-10_10h01.02.013,ImageRatingTask_S5,2021.1.4,Win32,60.29181237,,,,,,,,,,,,,,,,,
,,,,,,,,,,,,0,3,3,3,1,fourth,6,21,Female,R,Donders,2021-07-10_10h01.02.013,ImageRatingTask_S5,2021.1.4,Win32,60.29181237,,,,,,,,,,,,,,,,,
,,,,,,,,,,,,0,4,4,4,1,fifth,6,21,Female,R,Donders,2021-07-10_10h01.02.013,ImageRatingTask_S5,2021.1.4,Win32,60.29181237,,,,,,,,,,,,,,,,,
,,,,,,,,,,,,0,5,5,5,1,sixth,6,21,Female,R,Donders,2021-07-10_10h01.02.013,ImageRatingTask_S5,2021.1.4,Win32,60.29181237,,,,,,,,,,,,,,,,,
,,,,,,,,,,,,0,6,6,6,1,seventh,6,21,Female,R,Donders,2021-07-10_10h01.02.013,ImageRatingTask_S5,2021.1.4,Win32,60.29181237,,,,,,,,,,,,,,,,,
,,,,,,,,,,,,0,7,7,7,1,last,6,21,Female,R,Donders,2021-07-10_10h01.02.013,ImageRatingTask_S5,2021.1.4,Win32,60.29181237,,,,,,,,,,,,,,,,,
,,,,,,,,,,,,,,,,,,6,21,Female,R,Donders,2021-07-10_10h01.02.013,ImageRatingTask_S5,2021.1.4,Win32,60.29181237,0,2,2,92,1,DreamStudyImages_rs1000x750g/Children/Surprise 2.jpg,,,,,,,,,,,
,,8,1.3582,6,1.2845,6,3.0708,1,0.6166,3,0.349,0,0,0,0,1,main,6,21,Female,R,Donders,2021-07-10_10h01.02.013,ImageRatingTask_S5,2021.1.4,Win32,60.29181237,,,,,,,,,,,,,,,,,
,,,,,,,,,,,,0,1,1,1,1,second,6,21,Female,R,Donders,2021-07-10_10h01.02.013,ImageRatingTask_S5,2021.1.4,Win32,60.29181237,,,,,,,,,,,,,,,,,
,,,,,,,,,,,,0,2,2,2,1,third,6,21,Female,R,Donders,2021-07-10_10h01.02.013,ImageRatingTask_S5,2021.1.4,Win32,60.29181237,,,,,,,,,,,,,,,,,
,,,,,,,,,,,,0,3,3,3,1,fourth,6,21,Female,R,Donders,2021-07-10_10h01.02.013,ImageRatingTask_S5,2021.1.4,Win32,60.29181237,,,,,,,,,,,,,,,,,
,,,,,,,,,,,,0,4,4,4,1,fifth,6,21,Female,R,Donders,2021-07-10_10h01.02.013,ImageRatingTask_S5,2021.1.4,Win32,60.29181237,,,,,,,,,,,,,,,,,
,,,,,,,,,,,,0,5,5,5,1,sixth,6,21,Female,R,Donders,2021-07-10_10h01.02.013,ImageRatingTask_S5,2021.1.4,Win32,60.29181237,,,,,,,,,,,,,,,,,
,,,,,,,,,,,,0,6,6,6,1,seventh,6,21,Female,R,Donders,2021-07-10_10h01.02.013,ImageRatingTask_S5,2021.1.4,Win32,60.29181237,,,,,,,,,,,,,,,,,
,,,,,,,,,,,,0,7,7,7,1,last,6,21,Female,R,Donders,2021-07-10_10h01.02.013,ImageRatingTask_S5,2021.1.4,Win32,60.29181237,,,,,,,,,,,,,,,,,
,,,,,,,,,,,,,,,,,,6,21,Female,R,Donders,2021-07-10_10h01.02.013,ImageRatingTask_S5,2021.1.4,Win32,60.29181237,0,3,3,90,1,DreamStudyImages_rs1000x750g/Mammals/Animals_168_h.jpg,,,,,,,,,,,
,,8,1.3556,3,1.2488,6,2.599,3,1.4209,3,2.031,0,0,0,0,1,main,6,21,Female,R,Donders,2021-07-10_10h01.02.013,ImageRatingTask_S5,2021.1.4,Win32,60.29181237,,,,,,,,,,,,,,,,,
,,,,,,,,,,3,1.0181,0,1,1,1,1,second,6,21,Female,R,Donders,2021-07-10_10h01.02.013,ImageRatingTask_S5,2021.1.4,Win32,60.29181237,,,,,,,,,,,,,,,,,
,,,,,,,,,,3,0.279,0,2,2,2,1,third,6,21,Female,R,Donders,2021-07-10_10h01.02.013,ImageRatingTask_S5,2021.1.4,Win32,60.29181237,,,,,,,,,,,,,,,,,
,,,,,,,,,,,,0,3,3,3,1,fourth,6,21,Female,R,Donders,2021-07-10_10h01.02.013,ImageRatingTask_S5,2021.1.4,Win32,60.29181237,,,,,,,,,,,,,,,,,
,,,,,,,,,,,,0,4,4,4,1,fifth,6,21,Female,R,Donders,2021-07-10_10h01.02.013,ImageRatingTask_S5,2021.1.4,Win32,60.29181237,,,,,,,,,,,,,,,,,
,,,,,,,,,,,,0,5,5,5,1,sixth,6,21,Female,R,Donders,2021-07-10_10h01.02.013,ImageRatingTask_S5,2021.1.4,Win32,60.29181237,,,,,,,,,,,,,,,,,
,,,,,,,,,,,,0,6,6,6,1,seventh,6,21,Female,R,Donders,2021-07-10_10h01.02.013,ImageRatingTask_S5,2021.1.4,Win32,60.29181237,,,,,,,,,,,,,,,,,
,,,,,,,,,,,,0,7,7,7,1,last,6,21,Female,R,Donders,2021-07-10_10h01.02.013,ImageRatingTask_S5,2021.1.4,Win32,60.29181237,,,,,,,,,,,,,,,,,
,,,,,,,,,,,,,,,,,,6,21,Female,R,Donders,2021-07-10_10h01.02.013,ImageRatingTask_S5,2021.1.4,Win32,60.29181237,0,4,4,121,1,DreamStudyImages_rs1000x750g/Mammals/Zebra 1.jpg,,,,,,,,,,,
,,3,3.0992,7,3.5384,4,1.3588,1,0.7484,7,1.0392,0,0,0,0,1,main,6,21,Female,R,Donders,2021-07-10_10h01.02.013,ImageRatingTask_S5,2021.1.4,Win32,60.29181237,,,,,,,,,,,,,,,,,
,,,,,,,,,,,,0,1,1,1,1,second,6,21,Female,R,Donders,2021-07-10_10h01.02.013,ImageRatingTask_S5,2021.1.4,Win32,60.29181237,,,,,,,,,,,,,,,,,
,,,,,,,,,,,,0,2,2,2,1,third,6,21,Female,R,Donders,2021-07-10_10h01.02.013,ImageRatingTask_S5,2021.1.4,Win32,60.29181237,,,,,,,,,,,,,,,,,
,,,,,,,,,,,,0,3,3,3,1,fourth,6,21,Female,R,Donders,2021-07-10_10h01.02.013,ImageRatingTask_S5,2021.1.4,Win32,60.29181237,,,,,,,,,,,,,,,,,
,,,,,,,,,,,,0,4,4,4,1,fifth,6,21,Female,R,Donders,2021-07-10_10h01.02.013,ImageRatingTask_S5,2021.1.4,Win32,60.29181237,,,,,,,,,,,,,,,,,
,,,,,,,,,,,,0,5,5,5,1,sixth,6,21,Female,R,Donders,2021-07-10_10h01.02.013,ImageRatingTask_S5,2021.1.4,Win32,60.29181237,,,,,,,,,,,,,,,,,
,,,,,,,,,,,,0,6,6,6,1,seventh,6,21,Female,R,Donders,2021-07-10_10h01.02.013,ImageRatingTask_S5,2021.1.4,Win32,60.29181237,,,,,,,,,,,,,,,,,
,,,,,,,,,,,,0,7,7,7,1,last,6,21,Female,R,Donders,2021-07-10_10h01.02.013,ImageRatingTask_S5,2021.1.4,Win32,60.29181237,,,,,,,,,,,,,,,,,
,,,,,,,,,,,,,,,,,,6,21,Female,R,Donders,2021-07-10_10h01.02.013,ImageRatingTask_S5,2021.1.4,Win32,60.29181237,0,5,5,143,1,DreamStudyImages_rs1000x750g/Vehicles/IAPS9911_carcrash8.jpg,,,,,,,,,,,
,,7,2.5074,2,0.746,7,1.9303,1,1.4986,8,0.7261,0,0,0,0,1,main,6,21,Female,R,Donders,2021-07-10_10h01.02.013,ImageRatingTask_S5,2021.1.4,Win32,60.29181237,,,,,,,,,,,,,,,,,
,,,,,,,,,,,,0,1,1,1,1,second,6,21,Female,R,Donders,2021-07-10_10h01.02.013,ImageRatingTask_S5,2021.1.4,Win32,60.29181237,,,,,,,,,,,,,,,,,
,,,,,,,,,,,,0,2,2,2,1,third,6,21,Female,R,Donders,2021-07-10_10h01.02.013,ImageRatingTask_S5,2021.1.4,Win32,60.29181237,,,,,,,,,,,,,,,,,
,,,,,,,,,,,,0,3,3,3,1,fourth,6,21,Female,R,Donders,2021-07-10_10h01.02.013,ImageRatingTask_S5,2021.1.4,Win32,60.29181237,,,,,,,,,,,,,,,,,
,,,,,,,,,,,,0,4,4,4,1,fifth,6,21,Female,R,Donders,2021-07-10_10h01.02.013,ImageRatingTask_S5,2021.1.4,Win32,60.29181237,,,,,,,,,,,,,,,,,
,,,,,,,,,,,,0,5,5,5,1,sixth,6,21,Female,R,Donders,2021-07-10_10h01.02.013,ImageRatingTask_S5,2021.1.4,Win32,60.29181237,,,,,,,,,,,,,,,,,
,,,,,,,,,,,,0,6,6,6,1,seventh,6,21,Female,R,Donders,2021-07-10_10h01.02.013,ImageRatingTask_S5,2021.1.4,Win32,60.29181237,,,,,,,,,,,,,,,,,
,,,,,,,,,,,,0,7,7,7,1,last,6,21,Female,R,Donders,2021-07-10_10h01.02.013,ImageRatingTask_S5,2021.1.4,Win32,60.29181237,,,,,,,,,,,,,,,,,
,,,,,,,,,,,,,,,,,,6,21,Female,R,Donders,2021-07-10_10h01.02.013,ImageRatingTask_S5,2021.1.4,Win32,60.29181237,0,6,6,107,1,DreamStudyImages_rs1000x750g/Water/rockyriver.jpg,,,,,,,,,,,
,,4,1.1664,2,1.4976,7,1.9381,1,1.0069,2,0.4637,0,0,0,0,1,main,6,21,Female,R,Donders,2021-07-10_10h01.02.013,ImageRatingTask_S5,2021.1.4,Win32,60.29181237,,,,,,,,,,,,,,,,,
,,,,,,,,,,,,0,1,1,1,1,second,6,21,Female,R,Donders,2021-07-10_10h01.02.013,ImageRatingTask_S5,2021.1.4,Win32,60.29181237,,,,,,,,,,,,,,,,,
,,,,,,,,,,,,0,2,2,2,1,third,6,21,Female,R,Donders,2021-07-10_10h01.02.013,ImageRatingTask_S5,2021.1.4,Win32,60.29181237,,,,,,,,,,,,,,,,,
,,,,,,,,,,,,0,3,3,3,1,fourth,6,21,Female,R,Donders,2021-07-10_10h01.02.013,ImageRatingTask_S5,2021.1.4,Win32,60.29181237,,,,,,,,,,,,,,,,,
,,,,,,,,,,,,0,4,4,4,1,fifth,6,21,Female,R,Donders,2021-07-10_10h01.02.013,ImageRatingTask_S5,2021.1.4,Win32,60.29181237,,,,,,,,,,,,,,,,,
,,,,,,,,,,,,0,5,5,5,1,sixth,6,21,Female,R,Donders,2021-07-10_10h01.02.013,ImageRatingTask_S5,2021.1.4,Win32,60.29181237,,,,,,,,,,,,,,,,,
,,,,,,,,,,,,0,6,6,6,1,seventh,6,21,Female,R,Donders,2021-07-10_10h01.02.013,ImageRatingTask_S5,2021.1.4,Win32,60.29181237,,,,,,,,,,,,,,,,,
,,,,,,,,,,,,0,7,7,7,1,last,6,21,Female,R,Donders,2021-07-10_10h01.02.013,ImageRatingTask_S5,2021.1.4,Win32,60.29181237,,,,,,,,,,,,,,,,,
,,,,,,,,,,,,,,,,,,6,21,Female,R,Donders,2021-07-10_10h01.02.013,ImageRatingTask_S5,2021.1.4,Win32,60.29181237,0,7,7,59,1,DreamStudyImages_rs1000x750g/Children/IAPS2458_child4.jpg,,,,,,,,,,,
,,3,2.2942,8,2.7594,5,1.8358,1,2.6629,6,1.8974,0,0,0,0,1,main,6,21,Female,R,Donders,2021-07-10_10h01.02.013,ImageRatingTask_S5,2021.1.4,Win32,60.29181237,,,,,,,,,,,,,,,,,
,,,,,,,,,,,,0,1,1,1,1,second,6,21,Female,R,Donders,2021-07-10_10h01.02.013,ImageRatingTask_S5,2021.1.4,Win32,60.29181237,,,,,,,,,,,,,,,,,
,,,,,,,,,,,,0,2,2,2,1,third,6,21,Female,R,Donders,2021-07-10_10h01.02.013,ImageRatingTask_S5,2021.1.4,Win32,60.29181237,,,,,,,,,,,,,,,,,
,,,,,,,,,,,,0,3,3,3,1,fourth,6,21,Female,R,Donders,2021-07-10_10h01.02.013,ImageRatingTask_S5,2021.1.4,Win32,60.29181237,,,,,,,,,,,,,,,,,
,,,,,,,,,,,,0,4,4,4,1,fifth,6,21,Female,R,Donders,2021-07-10_10h01.02.013,ImageRatingTask_S5,2021.1.4,Win32,60.29181237,,,,,,,,,,,,,,,,,
,,,,,,,,,,,,0,5,5,5,1,sixth,6,21,Female,R,Donders,2021-07-10_10h01.02.013,ImageRatingTask_S5,2021.1.4,Win32,60.29181237,,,,,,,,,,,,,,,,,
,,,,,,,,,,,,0,6,6,6,1,seventh,6,21,Female,R,Donders,2021-07-10_10h01.02.013,ImageRatingTask_S5,2021.1.4,Win32,60.29181237,,,,,,,,,,,,,,,,,
,,,,,,,,,,,,0,7,7,7,1,last,6,21,Female,R,Donders,2021-07-10_10h01.02.013,ImageRatingTask_S5,2021.1.4,Win32,60.29181237,,,,,,,,,,,,,,,,,
,,,,,,,,,,,,,,,,,,6,21,Female,R,Donders,2021-07-10_10h01.02.013,ImageRatingTask_S5,2021.1.4,Win32,60.29181237,0,8,8,66,1,DreamStudyImages_rs1000x750g/Houses/NDPS11_buildings4.jpg,,,,,,,,,,,
,,7,1.3707,2,2.0486,7,3.083,1,1.2112,8,0.854,0,0,0,0,1,main,6,21,Female,R,Donders,2021-07-10_10h01.02.013,ImageRatingTask_S5,2021.1.4,Win32,60.29181237,,,,,,,,,,,,,,,,,
,,,,,,,,,,,,0,1,1,1,1,second,6,21,Female,R,Donders,2021-07-10_10h01.02.013,ImageRatingTask_S5,2021.1.4,Win32,60.29181237,,,,,,,,,,,,,,,,,
,,,,,,,,,,,,0,2,2,2,1,third,6,21,Female,R,Donders,2021-07-10_10h01.02.013,ImageRatingTask_S5,2021.1.4,Win32,60.29181237,,,,,,,,,,,,,,,,,
,,,,,,,,,,,,0,3,3,3,1,fourth,6,21,Female,R,Donders,2021-07-10_10h01.02.013,ImageRatingTask_S5,2021.1.4,Win32,60.29181237,,,,,,,,,,,,,,,,,
,,,,,,,,,,,,0,4,4,4,1,fifth,6,21,Female,R,Donders,2021-07-10_10h01.02.013,ImageRatingTask_S5,2021.1.4,Win32,60.29181237,,,,,,,,,,,,,,,,,
,,,,,,,,,,,,0,5,5,5,1,sixth,6,21,Female,R,Donders,2021-07-10_10h01.02.013,ImageRatingTask_S5,2021.1.4,Win32,60.29181237,,,,,,,,,,,,,,,,,
,,,,,,,,,,,,0,6,6,6,1,seventh,6,21,Female,R,Donders,2021-07-10_10h01.02.013,ImageRatingTask_S5,2021.1.4,Win32,60.29181237,,,,,,,,,,,,,,,,,
,,,,,,,,,,,,0,7,7,7,1,last,6,21,Female,R,Donders,2021-07-10_10h01.02.013,ImageRatingTask_S5,2021.1.4,Win32,60.29181237,,,,,,,,,,,,,,,,,
,,,,,,,,,,,,,,,,,,6,21,Female,R,Donders,2021-07-10_10h01.02.013,ImageRatingTask_S5,2021.1.4,Win32,60.29181237,0,9,9,134,1,DreamStudyImages_rs1000x750g/Water/NDPS153_lake.jpg,,,,,,,,,,,
,,6,1.7044,2,1.1518,6,2.8573,1,1.2183,5,1.2289,0,0,0,0,1,main,6,21,Female,R,Donders,2021-07-10_10h01.02.013,ImageRatingTask_S5,2021.1.4,Win32,60.29181237,,,,,,,,,,,,,,,,,
,,,,,,,,,,,,0,1,1,1,1,second,6,21,Female,R,Donders,2021-07-10_10h01.02.013,ImageRatingTask_S5,2021.1.4,Win32,60.29181237,,,,,,,,,,,,,,,,,
,,,,,,,,,,,,0,2,2,2,1,third,6,21,Female,R,Donders,2021-07-10_10h01.02.013,ImageRatingTask_S5,2021.1.4,Win32,60.29181237,,,,,,,,,,,,,,,,,
,,,,,,,,,,,,0,3,3,3,1,fourth,6,21,Female,R,Donders,2021-07-10_10h01.02.013,ImageRatingTask_S5,2021.1.4,Win32,60.29181237,,,,,,,,,,,,,,,,,
,,,,,,,,,,,,0,4,4,4,1,fifth,6,21,Female,R,Donders,2021-07-10_10h01.02.013,ImageRatingTask_S5,2021.1.4,Win32,60.29181237,,,,,,,,,,,,,,,,,
,,,,,,,,,,,,0,5,5,5,1,sixth,6,21,Female,R,Donders,2021-07-10_10h01.02.013,ImageRatingTask_S5,2021.1.4,Win32,60.29181237,,,,,,,,,,,,,,,,,
,,,,,,,,,,,,0,6,6,6,1,seventh,6,21,Female,R,Donders,2021-07-10_10h01.02.013,ImageRatingTask_S5,2021.1.4,Win32,60.29181237,,,,,,,,,,,,,,,,,
,,,,,,,,,,,,0,7,7,7,1,last,6,21,Female,R,Donders,2021-07-10_10h01.02.013,ImageRatingTask_S5,2021.1.4,Win32,60.29181237,,,,,,,,,,,,,,,,,
,,,,,,,,,,,,,,,,,,6,21,Female,R,Donders,2021-07-10_10h01.02.013,ImageRatingTask_S5,2021.1.4,Win32,60.29181237,0,10,10,75,1,DreamStudyImages_rs1000x750g/Food/Objects_091_h.jpg,,,,,,,,,,,
,,7,1.5908,4,1.2788,5,1.7411,1,0.8989,5,0.936,0,0,0,0,1,main,6,21,Female,R,Donders,2021-07-10_10h01.02.013,ImageRatingTask_S5,2021.1.4,Win32,60.29181237,,,,,,,,,,,,,,,,,
,,,,,,,,,,,,0,1,1,1,1,second,6,21,Female,R,Donders,2021-07-10_10h01.02.013,ImageRatingTask_S5,2021.1.4,Win32,60.29181237,,,,,,,,,,,,,,,,,
,,,,,,,,,,,,0,2,2,2,1,third,6,21,Female,R,Donders,2021-07-10_10h01.02.013,ImageRatingTask_S5,2021.1.4,Win32,60.29181237,,,,,,,,,,,,,,,,,
,,,,,,,,,,,,0,3,3,3,1,fourth,6,21,Female,R,Donders,2021-07-10_10h01.02.013,ImageRatingTask_S5,2021.1.4,Win32,60.29181237,,,,,,,,,,,,,,,,,
,,,,,,,,,,,,0,4,4,4,1,fifth,6,21,Female,R,Donders,2021-07-10_10h01.02.013,ImageRatingTask_S5,2021.1.4,Win32,60.29181237,,,,,,,,,,,,,,,,,
,,,,,,,,,,,,0,5,5,5,1,sixth,6,21,Female,R,Donders,2021-07-10_10h01.02.013,ImageRatingTask_S5,2021.1.4,Win32,60.29181237,,,,,,,,,,,,,,,,,
,,,,,,,,,,,,0,6,6,6,1,seventh,6,21,Female,R,Donders,2021-07-10_10h01.02.013,ImageRatingTask_S5,2021.1.4,Win32,60.29181237,,,,,,,,,,,,,,,,,
,,,,,,,,,,,,0,7,7,7,1,last,6,21,Female,R,Donders,2021-07-10_10h01.02.013,ImageRatingTask_S5,2021.1.4,Win32,60.29181237,,,,,,,,,,,,,,,,,
,,,,,,,,,,,,,,,,,,6,21,Female,R,Donders,2021-07-10_10h01.02.013,ImageRatingTask_S5,2021.1.4,Win32,60.29181237,0,11,11,120,1,DreamStudyImages_rs1000x750g/Food/7260.jpg,,,,,,,,,,,
,,8,2.2164,3,1.9135,7,2.1232,1,1.1315,5,0.7775,0,0,0,0,1,main,6,21,Female,R,Donders,2021-07-10_10h01.02.013,ImageRatingTask_S5,2021.1.4,Win32,60.29181237,,,,,,,,,,,,,,,,,
,,,,,,,,,,,,0,1,1,1,1,second,6,21,Female,R,Donders,2021-07-10_10h01.02.013,ImageRatingTask_S5,2021.1.4,Win32,60.29181237,,,,,,,,,,,,,,,,,
,,,,,,,,,,,,0,2,2,2,1,third,6,21,Female,R,Donders,2021-07-10_10h01.02.013,ImageRatingTask_S5,2021.1.4,Win32,60.29181237,,,,,,,,,,,,,,,,,
,,,,,,,,,,,,0,3,3,3,1,fourth,6,21,Female,R,Donders,2021-07-10_10h01.02.013,ImageRatingTask_S5,2021.1.4,Win32,60.29181237,,,,,,,,,,,,,,,,,
,,,,,,,,,,,,0,4,4,4,1,fifth,6,21,Female,R,Donders,2021-07-10_10h01.02.013,ImageRatingTask_S5,2021.1.4,Win32,60.29181237,,,,,,,,,,,,,,,,,
,,,,,,,,,,,,0,5,5,5,1,sixth,6,21,Female,R,Donders,2021-07-10_10h01.02.013,ImageRatingTask_S5,2021.1.4,Win32,60.29181237,,,,,,,,,,,,,,,,,
,,,,,,,,,,,,0,6,6,6,1,seventh,6,21,Female,R,Donders,2021-07-10_10h01.02.013,ImageRatingTask_S5,2021.1.4,Win32,60.29181237,,,,,,,,,,,,,,,,,
,,,,,,,,,,,,0,7,7,7,1,last,6,21,Female,R,Donders,2021-07-10_10h01.02.013,ImageRatingTask_S5,2021.1.4,Win32,60.29181237,,,,,,,,,,,,,,,,,
,,,,,,,,,,,,,,,,,,6,21,Female,R,Donders,2021-07-10_10h01.02.013,ImageRatingTask_S5,2021.1.4,Win32,60.29181237,0,12,12,141,1,DreamStudyImages_rs1000x750g/Food/IAPS7405_cupcakes.jpg,,,,,,,,,,,
,,8,1.2278,3,2.4403,6,3.7263,1,0.7962,5,0.7579,0,0,0,0,1,main,6,21,Female,R,Donders,2021-07-10_10h01.02.013,ImageRatingTask_S5,2021.1.4,Win32,60.29181237,,,,,,,,,,,,,,,,,
,,,,,,,,,,,,0,1,1,1,1,second,6,21,Female,R,Donders,2021-07-10_10h01.02.013,ImageRatingTask_S5,2021.1.4,Win32,60.29181237,,,,,,,,,,,,,,,,,
,,,,,,,,,,,,0,2,2,2,1,third,6,21,Female,R,Donders,2021-07-10_10h01.02.013,ImageRatingTask_S5,2021.1.4,Win32,60.29181237,,,,,,,,,,,,,,,,,
,,,,,,,,,,,,0,3,3,3,1,fourth,6,21,Female,R,Donders,2021-07-10_10h01.02.013,ImageRatingTask_S5,2021.1.4,Win32,60.29181237,,,,,,,,,,,,,,,,,
,,,,,,,,,,,,0,4,4,4,1,fifth,6,21,Female,R,Donders,2021-07-10_10h01.02.013,ImageRatingTask_S5,2021.1.4,Win32,60.29181237,,,,,,,,,,,,,,,,,
,,,,,,,,,,,,0,5,5,5,1,sixth,6,21,Female,R,Donders,2021-07-10_10h01.02.013,ImageRatingTask_S5,2021.1.4,Win32,60.29181237,,,,,,,,,,,,,,,,,
,,,,,,,,,,,,0,6,6,6,1,seventh,6,21,Female,R,Donders,2021-07-10_10h01.02.013,ImageRatingTask_S5,2021.1.4,Win32,60.29181237,,,,,,,,,,,,,,,,,
,,,,,,,,,,,,0,7,7,7,1,last,6,21,Female,R,Donders,2021-07-10_10h01.02.013,ImageRatingTask_S5,2021.1.4,Win32,60.29181237,,,,,,,,,,,,,,,,,
,,,,,,,,,,,,,,,,,,6,21,Female,R,Donders,2021-07-10_10h01.02.013,ImageRatingTask_S5,2021.1.4,Win32,60.29181237,0,13,13,155,1,DreamStudyImages_rs1000x750g/Food/IAPS7450_burger.jpg,,,,,,,,,,,
,,6,9.9808,3,1.1643,5,2.0007,1,0.9514,5,0.7493,0,0,0,0,1,main,6,21,Female,R,Donders,2021-07-10_10h01.02.013,ImageRatingTask_S5,2021.1.4,Win32,60.29181237,,,,,,,,,,,,,,,,,
,,,,,,,,,,,,0,1,1,1,1,second,6,21,Female,R,Donders,2021-07-10_10h01.02.013,ImageRatingTask_S5,2021.1.4,Win32,60.29181237,,,,,,,,,,,,,,,,,
,,,,,,,,,,,,0,2,2,2,1,third,6,21,Female,R,Donders,2021-07-10_10h01.02.013,ImageRatingTask_S5,2021.1.4,Win32,60.29181237,,,,,,,,,,,,,,,,,
,,,,,,,,,,,,0,3,3,3,1,fourth,6,21,Female,R,Donders,2021-07-10_10h01.02.013,ImageRatingTask_S5,2021.1.4,Win32,60.29181237,,,,,,,,,,,,,,,,,
,,,,,,,,,,,,0,4,4,4,1,fifth,6,21,Female,R,Donders,2021-07-10_10h01.02.013,ImageRatingTask_S5,2021.1.4,Win32,60.29181237,,,,,,,,,,,,,,,,,
,,,,,,,,,,,,0,5,5,5,1,sixth,6,21,Female,R,Donders,2021-07-10_10h01.02.013,ImageRatingTask_S5,2021.1.4,Win32,60.29181237,,,,,,,,,,,,,,,,,
,,,,,,,,,,,,0,6,6,6,1,seventh,6,21,Female,R,Donders,2021-07-10_10h01.02.013,ImageRatingTask_S5,2021.1.4,Win32,60.29181237,,,,,,,,,,,,,,,,,
,,,,,,,,,,,,0,7,7,7,1,last,6,21,Female,R,Donders,2021-07-10_10h01.02.013,ImageRatingTask_S5,2021.1.4,Win32,60.29181237,,,,,,,,,,,,,,,,,
,,,,,,,,,,,,,,,,,,6,21,Female,R,Donders,2021-07-10_10h01.02.013,ImageRatingTask_S5,2021.1.4,Win32,60.29181237,0,14,14,101,1,DreamStudyImages_rs1000x750g/Food/IAPS7402_pastries2.jpg,,,,,,,,,,,
,,6,1.3883,2,0.9459,8,2.2654,0,3.1337,,,0,0,0,0,1,main,6,21,Female,R,Donders,2021-07-10_10h01.02.013,ImageRatingTask_S5,2021.1.4,Win32,60.29181237,,,,,,,,,,,,,,,,,
,,,,,,,,,,,,0,1,1,1,1,second,6,21,Female,R,Donders,2021-07-10_10h01.02.013,ImageRatingTask_S5,2021.1.4,Win32,60.29181237,,,,,,,,,,,,,,,,,
,,,,,,,,,,,,0,2,2,2,1,third,6,21,Female,R,Donders,2021-07-10_10h01.02.013,ImageRatingTask_S5,2021.1.4,Win32,60.29181237,,,,,,,,,,,,,,,,,
,,,,,,,,,,,,0,3,3,3,1,fourth,6,21,Female,R,Donders,2021-07-10_10h01.02.013,ImageRatingTask_S5,2021.1.4,Win32,60.29181237,,,,,,,,,,,,,,,,,
,,,,,,,,,,,,0,4,4,4,1,fifth,6,21,Female,R,Donders,2021-07-10_10h01.02.013,ImageRatingTask_S5,2021.1.4,Win32,60.29181237,,,,,,,,,,,,,,,,,
,,,,,,,,,,,,0,5,5,5,1,sixth,6,21,Female,R,Donders,2021-07-10_10h01.02.013,ImageRatingTask_S5,2021.1.4,Win32,60.29181237,,,,,,,,,,,,,,,,,
,,,,,,,,,,,,0,6,6,6,1,seventh,6,21,Female,R,Donders,2021-07-10_10h01.02.013,ImageRatingTask_S5,2021.1.4,Win32,60.29181237,,,,,,,,,,,,,,,,,
,,,,,,,,,,,,0,7,7,7,1,last,6,21,Female,R,Donders,2021-07-10_10h01.02.013,ImageRatingTask_S5,2021.1.4,Win32,60.29181237,,,,,,,,,,,,,,,,,
,,,,,,,,,,,,,,,,,,6,21,Female,R,Donders,2021-07-10_10h01.02.013,ImageRatingTask_S5,2021.1.4,Win32,60.29181237,0,15,15,76,1,DreamStudyImages_rs1000x750g/Houses/NDPS18_houses2_CROPPED.jpg,,,,,,,,,,,
,,6,1.2596,3,1.0539,5,3.4639,1,0.6791,2,0.3739,0,0,0,0,1,main,6,21,Female,R,Donders,2021-07-10_10h01.02.013,ImageRatingTask_S5,2021.1.4,Win32,60.29181237,,,,,,,,,,,,,,,,,
,,,,,,,,,,,,0,1,1,1,1,second,6,21,Female,R,Donders,2021-07-10_10h01.02.013,ImageRatingTask_S5,2021.1.4,Win32,60.29181237,,,,,,,,,,,,,,,,,
,,,,,,,,,,,,0,2,2,2,1,third,6,21,Female,R,Donders,2021-07-10_10h01.02.013,ImageRatingTask_S5,2021.1.4,Win32,60.29181237,,,,,,,,,,,,,,,,,
,,,,,,,,,,,,0,3,3,3,1,fourth,6,21,Female,R,Donders,2021-07-10_10h01.02.013,ImageRatingTask_S5,2021.1.4,Win32,60.29181237,,,,,,,,,,,,,,,,,
,,,,,,,,,,,,0,4,4,4,1,fifth,6,21,Female,R,Donders,2021-07-10_10h01.02.013,ImageRatingTask_S5,2021.1.4,Win32,60.29181237,,,,,,,,,,,,,,,,,
,,,,,,,,,,,,0,5,5,5,1,sixth,6,21,Female,R,Donders,2021-07-10_10h01.02.013,ImageRatingTask_S5,2021.1.4,Win32,60.29181237,,,,,,,,,,,,,,,,,
,,,,,,,,,,,,0,6,6,6,1,seventh,6,21,Female,R,Donders,2021-07-10_10h01.02.013,ImageRatingTask_S5,2021.1.4,Win32,60.29181237,,,,,,,,,,,,,,,,,
,,,,,,,,,,,,0,7,7,7,1,last,6,21,Female,R,Donders,2021-07-10_10h01.02.013,ImageRatingTask_S5,2021.1.4,Win32,60.29181237,,,,,,,,,,,,,,,,,
,,,,,,,,,,,,,,,,,,6,21,Female,R,Donders,2021-07-10_10h01.02.013,ImageRatingTask_S5,2021.1.4,Win32,60.29181237,0,16,16,149,1,DreamStudyImages_rs1000x750g/Children/Faces_082_v.jpg,,,,,,,,,,,
,,4,1.3482,8,5.3743,3,1.8779,1,1.2229,3,0.7414,0,0,0,0,1,main,6,21,Female,R,Donders,2021-07-10_10h01.02.013,ImageRatingTask_S5,2021.1.4,Win32,60.29181237,,,,,,,,,,,,,,,,,
,,,,,,,,,,,,0,1,1,1,1,second,6,21,Female,R,Donders,2021-07-10_10h01.02.013,ImageRatingTask_S5,2021.1.4,Win32,60.29181237,,,,,,,,,,,,,,,,,
,,,,,,,,,,,,0,2,2,2,1,third,6,21,Female,R,Donders,2021-07-10_10h01.02.013,ImageRatingTask_S5,2021.1.4,Win32,60.29181237,,,,,,,,,,,,,,,,,
,,,,,,,,,,,,0,3,3,3,1,fourth,6,21,Female,R,Donders,2021-07-10_10h01.02.013,ImageRatingTask_S5,2021.1.4,Win32,60.29181237,,,,,,,,,,,,,,,,,
,,,,,,,,,,,,0,4,4,4,1,fifth,6,21,Female,R,Donders,2021-07-10_10h01.02.013,ImageRatingTask_S5,2021.1.4,Win32,60.29181237,,,,,,,,,,,,,,,,,
,,,,,,,,,,,,0,5,5,5,1,sixth,6,21,Female,R,Donders,2021-07-10_10h01.02.013,ImageRatingTask_S5,2021.1.4,Win32,60.29181237,,,,,,,,,,,,,,,,,
,,,,,,,,,,,,0,6,6,6,1,seventh,6,21,Female,R,Donders,2021-07-10_10h01.02.013,ImageRatingTask_S5,2021.1.4,Win32,60.29181237,,,,,,,,,,,,,,,,,
,,,,,,,,,,,,0,7,7,7,1,last,6,21,Female,R,Donders,2021-07-10_10h01.02.013,ImageRatingTask_S5,2021.1.4,Win32,60.29181237,,,,,,,,,,,,,,,,,
,,,,,,,,,,,,,,,,,,6,21,Female,R,Donders,2021-07-10_10h01.02.013,ImageRatingTask_S5,2021.1.4,Win32,60.29181237,0,17,17,29,1,DreamStudyImages_rs1000x750g/Mammals/IAPS1525_dog9.jpg,,,,,,,,,,,
,,4,18.4823,5,6.8347,6,1.6541,2,3.3507,1,0.9006,0,0,0,0,1,main,6,21,Female,R,Donders,2021-07-10_10h01.02.013,ImageRatingTask_S5,2021.1.4,Win32,60.29181237,,,,,,,,,,,,,,,,,
,,,,,,,,,,2,0.2989,0,1,1,1,1,second,6,21,Female,R,Donders,2021-07-10_10h01.02.013,ImageRatingTask_S5,2021.1.4,Win32,60.29181237,,,,,,,,,,,,,,,,,
,,,,,,,,,,,,0,2,2,2,1,third,6,21,Female,R,Donders,2021-07-10_10h01.02.013,ImageRatingTask_S5,2021.1.4,Win32,60.29181237,,,,,,,,,,,,,,,,,
,,,,,,,,,,,,0,3,3,3,1,fourth,6,21,Female,R,Donders,2021-07-10_10h01.02.013,ImageRatingTask_S5,2021.1.4,Win32,60.29181237,,,,,,,,,,,,,,,,,
,,,,,,,,,,,,0,4,4,4,1,fifth,6,21,Female,R,Donders,2021-07-10_10h01.02.013,ImageRatingTask_S5,2021.1.4,Win32,60.29181237,,,,,,,,,,,,,,,,,
,,,,,,,,,,,,0,5,5,5,1,sixth,6,21,Female,R,Donders,2021-07-10_10h01.02.013,ImageRatingTask_S5,2021.1.4,Win32,60.29181237,,,,,,,,,,,,,,,,,
,,,,,,,,,,,,0,6,6,6,1,seventh,6,21,Female,R,Donders,2021-07-10_10h01.02.013,ImageRatingTask_S5,2021.1.4,Win32,60.29181237,,,,,,,,,,,,,,,,,
,,,,,,,,,,,,0,7,7,7,1,last,6,21,Female,R,Donders,2021-07-10_10h01.02.013,ImageRatingTask_S5,2021.1.4,Win32,60.29181237,,,,,,,,,,,,,,,,,
,,,,,,,,,,,,,,,,,,6,21,Female,R,Donders,2021-07-10_10h01.02.013,ImageRatingTask_S5,2021.1.4,Win32,60.29181237,0,18,18,48,1,DreamStudyImages_rs1000x750g/Children/IAPS2278_children6.jpg,,,,,,,,,,,
,,5,3.0252,4,3.2722,5,3.4733,1,1.3705,7,0.9938,0,0,0,0,1,main,6,21,Female,R,Donders,2021-07-10_10h01.02.013,ImageRatingTask_S5,2021.1.4,Win32,60.29181237,,,,,,,,,,,,,,,,,
,,,,,,,,,,,,0,1,1,1,1,second,6,21,Female,R,Donders,2021-07-10_10h01.02.013,ImageRatingTask_S5,2021.1.4,Win32,60.29181237,,,,,,,,,,,,,,,,,
,,,,,,,,,,,,0,2,2,2,1,third,6,21,Female,R,Donders,2021-07-10_10h01.02.013,ImageRatingTask_S5,2021.1.4,Win32,60.29181237,,,,,,,,,,,,,,,,,
,,,,,,,,,,,,0,3,3,3,1,fourth,6,21,Female,R,Donders,2021-07-10_10h01.02.013,ImageRatingTask_S5,2021.1.4,Win32,60.29181237,,,,,,,,,,,,,,,,,
,,,,,,,,,,,,0,4,4,4,1,fifth,6,21,Female,R,Donders,2021-07-10_10h01.02.013,ImageRatingTask_S5,2021.1.4,Win32,60.29181237,,,,,,,,,,,,,,,,,
,,,,,,,,,,,,0,5,5,5,1,sixth,6,21,Female,R,Donders,2021-07-10_10h01.02.013,ImageRatingTask_S5,2021.1.4,Win32,60.29181237,,,,,,,,,,,,,,,,,
,,,,,,,,,,,,0,6,6,6,1,seventh,6,21,Female,R,Donders,2021-07-10_10h01.02.013,ImageRatingTask_S5,2021.1.4,Win32,60.29181237,,,,,,,,,,,,,,,,,
,,,,,,,,,,,,0,7,7,7,1,last,6,21,Female,R,Donders,2021-07-10_10h01.02.013,ImageRatingTask_S5,2021.1.4,Win32,60.29181237,,,,,,,,,,,,,,,,,
,,,,,,,,,,,,,,,,,,6,21,Female,R,Donders,2021-07-10_10h01.02.013,ImageRatingTask_S5,2021.1.4,Win32,60.29181237,0,19,19,111,1,DreamStudyImages_rs1000x750g/Vehicles/roadtrain.jpg,,,,,,,,,,,
,,8,1.4694,6,1.0046,6,1.5494,1,0.5348,3,0.7575,0,0,0,0,1,main,6,21,Female,R,Donders,2021-07-10_10h01.02.013,ImageRatingTask_S5,2021.1.4,Win32,60.29181237,,,,,,,,,,,,,,,,,
,,,,,,,,,,,,0,1,1,1,1,second,6,21,Female,R,Donders,2021-07-10_10h01.02.013,ImageRatingTask_S5,2021.1.4,Win32,60.29181237,,,,,,,,,,,,,,,,,
,,,,,,,,,,,,0,2,2,2,1,third,6,21,Female,R,Donders,2021-07-10_10h01.02.013,ImageRatingTask_S5,2021.1.4,Win32,60.29181237,,,,,,,,,,,,,,,,,
,,,,,,,,,,,,0,3,3,3,1,fourth,6,21,Female,R,Donders,2021-07-10_10h01.02.013,ImageRatingTask_S5,2021.1.4,Win32,60.29181237,,,,,,,,,,,,,,,,,
,,,,,,,,,,,,0,4,4,4,1,fifth,6,21,Female,R,Donders,2021-07-10_10h01.02.013,ImageRatingTask_S5,2021.1.4,Win32,60.29181237,,,,,,,,,,,,,,,,,
,,,,,,,,,,,,0,5,5,5,1,sixth,6,21,Female,R,Donders,2021-07-10_10h01.02.013,ImageRatingTask_S5,2021.1.4,Win32,60.29181237,,,,,,,,,,,,,,,,,
,,,,,,,,,,,,0,6,6,6,1,seventh,6,21,Female,R,Donders,2021-07-10_10h01.02.013,ImageRatingTask_S5,2021.1.4,Win32,60.29181237,,,,,,,,,,,,,,,,,
,,,,,,,,,,,,0,7,7,7,1,last,6,21,Female,R,Donders,2021-07-10_10h01.02.013,ImageRatingTask_S5,2021.1.4,Win32,60.29181237,,,,,,,,,,,,,,,,,
,,,,,,,,,,,,,,,,,,6,21,Female,R,Donders,2021-07-10_10h01.02.013,ImageRatingTask_S5,2021.1.4,Win32,60.29181237,0,20,20,97,1,DreamStudyImages_rs1000x750g/Mammals/IAPS1710_puppies.jpg,,,,,,,,,,,
,,4,2.4187,7,1.8785,4,2.1649,1,0.699,3,0.9409,0,0,0,0,1,main,6,21,Female,R,Donders,2021-07-10_10h01.02.013,ImageRatingTask_S5,2021.1.4,Win32,60.29181237,,,,,,,,,,,,,,,,,
,,,,,,,,,,,,0,1,1,1,1,second,6,21,Female,R,Donders,2021-07-10_10h01.02.013,ImageRatingTask_S5,2021.1.4,Win32,60.29181237,,,,,,,,,,,,,,,,,
,,,,,,,,,,,,0,2,2,2,1,third,6,21,Female,R,Donders,2021-07-10_10h01.02.013,ImageRatingTask_S5,2021.1.4,Win32,60.29181237,,,,,,,,,,,,,,,,,
,,,,,,,,,,,,0,3,3,3,1,fourth,6,21,Female,R,Donders,2021-07-10_10h01.02.013,ImageRatingTask_S5,2021.1.4,Win32,60.29181237,,,,,,,,,,,,,,,,,
,,,,,,,,,,,,0,4,4,4,1,fifth,6,21,Female,R,Donders,2021-07-10_10h01.02.013,ImageRatingTask_S5,2021.1.4,Win32,60.29181237,,,,,,,,,,,,,,,,,
,,,,,,,,,,,,0,5,5,5,1,sixth,6,21,Female,R,Donders,2021-07-10_10h01.02.013,ImageRatingTask_S5,2021.1.4,Win32,60.29181237,,,,,,,,,,,,,,,,,
,,,,,,,,,,,,0,6,6,6,1,seventh,6,21,Female,R,Donders,2021-07-10_10h01.02.013,ImageRatingTask_S5,2021.1.4,Win32,60.29181237,,,,,,,,,,,,,,,,,
,,,,,,,,,,,,0,7,7,7,1,last,6,21,Female,R,Donders,2021-07-10_10h01.02.013,ImageRatingTask_S5,2021.1.4,Win32,60.29181237,,,,,,,,,,,,,,,,,
,,,,,,,,,,,,,,,,,,6,21,Female,R,Donders,2021-07-10_10h01.02.013,ImageRatingTask_S5,2021.1.4,Win32,60.29181237,0,21,21,86,1,DreamStudyImages_rs1000x750g/Mammals/IAPS1310_bigcat.jpg,,,,,,,,,,,
,,3,9.967,4,6.8685,5,1.8516,1,2.9661,8,0.7404,0,0,0,0,1,main,6,21,Female,R,Donders,2021-07-10_10h01.02.013,ImageRatingTask_S5,2021.1.4,Win32,60.29181237,,,,,,,,,,,,,,,,,
,,,,,,,,,,,,0,1,1,1,1,second,6,21,Female,R,Donders,2021-07-10_10h01.02.013,ImageRatingTask_S5,2021.1.4,Win32,60.29181237,,,,,,,,,,,,,,,,,
,,,,,,,,,,,,0,2,2,2,1,third,6,21,Female,R,Donders,2021-07-10_10h01.02.013,ImageRatingTask_S5,2021.1.4,Win32,60.29181237,,,,,,,,,,,,,,,,,
,,,,,,,,,,,,0,3,3,3,1,fourth,6,21,Female,R,Donders,2021-07-10_10h01.02.013,ImageRatingTask_S5,2021.1.4,Win32,60.29181237,,,,,,,,,,,,,,,,,
,,,,,,,,,,,,0,4,4,4,1,fifth,6,21,Female,R,Donders,2021-07-10_10h01.02.013,ImageRatingTask_S5,2021.1.4,Win32,60.29181237,,,,,,,,,,,,,,,,,
,,,,,,,,,,,,0,5,5,5,1,sixth,6,21,Female,R,Donders,2021-07-10_10h01.02.013,ImageRatingTask_S5,2021.1.4,Win32,60.29181237,,,,,,,,,,,,,,,,,
,,,,,,,,,,,,0,6,6,6,1,seventh,6,21,Female,R,Donders,2021-07-10_10h01.02.013,ImageRatingTask_S5,2021.1.4,Win32,60.29181237,,,,,,,,,,,,,,,,,
,,,,,,,,,,,,0,7,7,7,1,last,6,21,Female,R,Donders,2021-07-10_10h01.02.013,ImageRatingTask_S5,2021.1.4,Win32,60.29181237,,,,,,,,,,,,,,,,,
,,,,,,,,,,,,,,,,,,6,21,Female,R,Donders,2021-07-10_10h01.02.013,ImageRatingTask_S5,2021.1.4,Win32,60.29181237,0,22,22,102,1,DreamStudyImages_rs1000x750g/Water/objects_108_v.jpg,,,,,,,,,,,
,,7,1.2704,2,1.1767,7,1.9477,1,0.6641,8,0.8156,0,0,0,0,1,main,6,21,Female,R,Donders,2021-07-10_10h01.02.013,ImageRatingTask_S5,2021.1.4,Win32,60.29181237,,,,,,,,,,,,,,,,,
,,,,,,,,,,,,0,1,1,1,1,second,6,21,Female,R,Donders,2021-07-10_10h01.02.013,ImageRatingTask_S5,2021.1.4,Win32,60.29181237,,,,,,,,,,,,,,,,,
,,,,,,,,,,,,0,2,2,2,1,third,6,21,Female,R,Donders,2021-07-10_10h01.02.013,ImageRatingTask_S5,2021.1.4,Win32,60.29181237,,,,,,,,,,,,,,,,,
,,,,,,,,,,,,0,3,3,3,1,fourth,6,21,Female,R,Donders,2021-07-10_10h01.02.013,ImageRatingTask_S5,2021.1.4,Win32,60.29181237,,,,,,,,,,,,,,,,,
,,,,,,,,,,,,0,4,4,4,1,fifth,6,21,Female,R,Donders,2021-07-10_10h01.02.013,ImageRatingTask_S5,2021.1.4,Win32,60.29181237,,,,,,,,,,,,,,,,,
,,,,,,,,,,,,0,5,5,5,1,sixth,6,21,Female,R,Donders,2021-07-10_10h01.02.013,ImageRatingTask_S5,2021.1.4,Win32,60.29181237,,,,,,,,,,,,,,,,,
,,,,,,,,,,,,0,6,6,6,1,seventh,6,21,Female,R,Donders,2021-07-10_10h01.02.013,ImageRatingTask_S5,2021.1.4,Win32,60.29181237,,,,,,,,,,,,,,,,,
,,,,,,,,,,,,0,7,7,7,1,last,6,21,Female,R,Donders,2021-07-10_10h01.02.013,ImageRatingTask_S5,2021.1.4,Win32,60.29181237,,,,,,,,,,,,,,,,,
,,,,,,,,,,,,,,,,,,6,21,Female,R,Donders,2021-07-10_10h01.02.013,ImageRatingTask_S5,2021.1.4,Win32,60.29181237,0,23,23,39,1,DreamStudyImages_rs1000x750g/Water/NDPS122_bluelake.jpg,,,,,,,,,,,
,,6,6.1825,3,1.3149,2,1.581,1,2.0034,6,1.1342,0,0,0,0,1,main,6,21,Female,R,Donders,2021-07-10_10h01.02.013,ImageRatingTask_S5,2021.1.4,Win32,60.29181237,,,,,,,,,,,,,,,,,
,,,,,,,,,,,,0,1,1,1,1,second,6,21,Female,R,Donders,2021-07-10_10h01.02.013,ImageRatingTask_S5,2021.1.4,Win32,60.29181237,,,,,,,,,,,,,,,,,
,,,,,,,,,,,,0,2,2,2,1,third,6,21,Female,R,Donders,2021-07-10_10h01.02.013,ImageRatingTask_S5,2021.1.4,Win32,60.29181237,,,,,,,,,,,,,,,,,
,,,,,,,,,,,,0,3,3,3,1,fourth,6,21,Female,R,Donders,2021-07-10_10h01.02.013,ImageRatingTask_S5,2021.1.4,Win32,60.29181237,,,,,,,,,,,,,,,,,
,,,,,,,,,,,,0,4,4,4,1,fifth,6,21,Female,R,Donders,2021-07-10_10h01.02.013,ImageRatingTask_S5,2021.1.4,Win32,60.29181237,,,,,,,,,,,,,,,,,
,,,,,,,,,,,,0,5,5,5,1,sixth,6,21,Female,R,Donders,2021-07-10_10h01.02.013,ImageRatingTask_S5,2021.1.4,Win32,60.29181237,,,,,,,,,,,,,,,,,
,,,,,,,,,,,,0,6,6,6,1,seventh,6,21,Female,R,Donders,2021-07-10_10h01.02.013,ImageRatingTask_S5,2021.1.4,Win32,60.29181237,,,,,,,,,,,,,,,,,
,,,,,,,,,,,,0,7,7,7,1,last,6,21,Female,R,Donders,2021-07-10_10h01.02.013,ImageRatingTask_S5,2021.1.4,Win32,60.29181237,,,,,,,,,,,,,,,,,
,,,,,,,,,,,,,,,,,,6,21,Female,R,Donders,2021-07-10_10h01.02.013,ImageRatingTask_S5,2021.1.4,Win32,60.29181237,0,24,24,137,1,DreamStudyImages_rs1000x750g/Houses/IAPS5994_hotels_CROPPED.jpg,,,,,,,,,,,
,,7,5.4477,2,2.3454,8,1.6432,1,0.9223,8,0.9486,0,0,0,0,1,main,6,21,Female,R,Donders,2021-07-10_10h01.02.013,ImageRatingTask_S5,2021.1.4,Win32,60.29181237,,,,,,,,,,,,,,,,,
,,,,,,,,,,,,0,1,1,1,1,second,6,21,Female,R,Donders,2021-07-10_10h01.02.013,ImageRatingTask_S5,2021.1.4,Win32,60.29181237,,,,,,,,,,,,,,,,,
,,,,,,,,,,,,0,2,2,2,1,third,6,21,Female,R,Donders,2021-07-10_10h01.02.013,ImageRatingTask_S5,2021.1.4,Win32,60.29181237,,,,,,,,,,,,,,,,,
,,,,,,,,,,,,0,3,3,3,1,fourth,6,21,Female,R,Donders,2021-07-10_10h01.02.013,ImageRatingTask_S5,2021.1.4,Win32,60.29181237,,,,,,,,,,,,,,,,,
,,,,,,,,,,,,0,4,4,4,1,fifth,6,21,Female,R,Donders,2021-07-10_10h01.02.013,ImageRatingTask_S5,2021.1.4,Win32,60.29181237,,,,,,,,,,,,,,,,,
,,,,,,,,,,,,0,5,5,5,1,sixth,6,21,Female,R,Donders,2021-07-10_10h01.02.013,ImageRatingTask_S5,2021.1.4,Win32,60.29181237,,,,,,,,,,,,,,,,,
,,,,,,,,,,,,0,6,6,6,1,seventh,6,21,Female,R,Donders,2021-07-10_10h01.02.013,ImageRatingTask_S5,2021.1.4,Win32,60.29181237,,,,,,,,,,,,,,,,,
,,,,,,,,,,,,0,7,7,7,1,last,6,21,Female,R,Donders,2021-07-10_10h01.02.013,ImageRatingTask_S5,2021.1.4,Win32,60.29181237,,,,,,,,,,,,,,,,,
,,,,,,,,,,,,,,,,,,6,21,Female,R,Donders,2021-07-10_10h01.02.013,ImageRatingTask_S5,2021.1.4,Win32,60.29181237,0,25,25,96,1,DreamStudyImages_rs1000x750g/Water/Landscapes_116_v.jpg,,,,,,,,,,,
,,5,8.1004,2,0.8538,6,8.869,1,0.9671,2,0.4459,0,0,0,0,1,main,6,21,Female,R,Donders,2021-07-10_10h01.02.013,ImageRatingTask_S5,2021.1.4,Win32,60.29181237,,,,,,,,,,,,,,,,,
,,,,,,,,,,,,0,1,1,1,1,second,6,21,Female,R,Donders,2021-07-10_10h01.02.013,ImageRatingTask_S5,2021.1.4,Win32,60.29181237,,,,,,,,,,,,,,,,,
,,,,,,,,,,,,0,2,2,2,1,third,6,21,Female,R,Donders,2021-07-10_10h01.02.013,ImageRatingTask_S5,2021.1.4,Win32,60.29181237,,,,,,,,,,,,,,,,,
,,,,,,,,,,,,0,3,3,3,1,fourth,6,21,Female,R,Donders,2021-07-10_10h01.02.013,ImageRatingTask_S5,2021.1.4,Win32,60.29181237,,,,,,,,,,,,,,,,,
,,,,,,,,,,,,0,4,4,4,1,fifth,6,21,Female,R,Donders,2021-07-10_10h01.02.013,ImageRatingTask_S5,2021.1.4,Win32,60.29181237,,,,,,,,,,,,,,,,,
,,,,,,,,,,,,0,5,5,5,1,sixth,6,21,Female,R,Donders,2021-07-10_10h01.02.013,ImageRatingTask_S5,2021.1.4,Win32,60.29181237,,,,,,,,,,,,,,,,,
,,,,,,,,,,,,0,6,6,6,1,seventh,6,21,Female,R,Donders,2021-07-10_10h01.02.013,ImageRatingTask_S5,2021.1.4,Win32,60.29181237,,,,,,,,,,,,,,,,,
,,,,,,,,,,,,0,7,7,7,1,last,6,21,Female,R,Donders,2021-07-10_10h01.02.013,ImageRatingTask_S5,2021.1.4,Win32,60.29181237,,,,,,,,,,,,,,,,,
,,,,,,,,,,,,,,,,,,6,21,Female,R,Donders,2021-07-10_10h01.02.013,ImageRatingTask_S5,2021.1.4,Win32,60.29181237,0,26,26,34,1,DreamStudyImages_rs1000x750g/Children/Faces_044_h.jpg,,,,,,,,,,,
,,7,9.5254,3,17.1961,6,4.1698,1,0.7156,3,0.3733,0,0,0,0,1,main,6,21,Female,R,Donders,2021-07-10_10h01.02.013,ImageRatingTask_S5,2021.1.4,Win32,60.29181237,,,,,,,,,,,,,,,,,
,,,,,,,,,,,,0,1,1,1,1,second,6,21,Female,R,Donders,2021-07-10_10h01.02.013,ImageRatingTask_S5,2021.1.4,Win32,60.29181237,,,,,,,,,,,,,,,,,
,,,,,,,,,,,,0,2,2,2,1,third,6,21,Female,R,Donders,2021-07-10_10h01.02.013,ImageRatingTask_S5,2021.1.4,Win32,60.29181237,,,,,,,,,,,,,,,,,
,,,,,,,,,,,,0,3,3,3,1,fourth,6,21,Female,R,Donders,2021-07-10_10h01.02.013,ImageRatingTask_S5,2021.1.4,Win32,60.29181237,,,,,,,,,,,,,,,,,
,,,,,,,,,,,,0,4,4,4,1,fifth,6,21,Female,R,Donders,2021-07-10_10h01.02.013,ImageRatingTask_S5,2021.1.4,Win32,60.29181237,,,,,,,,,,,,,,,,,
,,,,,,,,,,,,0,5,5,5,1,sixth,6,21,Female,R,Donders,2021-07-10_10h01.02.013,ImageRatingTask_S5,2021.1.4,Win32,60.29181237,,,,,,,,,,,,,,,,,
,,,,,,,,,,,,0,6,6,6,1,seventh,6,21,Female,R,Donders,2021-07-10_10h01.02.013,ImageRatingTask_S5,2021.1.4,Win32,60.29181237,,,,,,,,,,,,,,,,,
,,,,,,,,,,,,0,7,7,7,1,last,6,21,Female,R,Donders,2021-07-10_10h01.02.013,ImageRatingTask_S5,2021.1.4,Win32,60.29181237,,,,,,,,,,,,,,,,,
,,,,,,,,,,,,,,,,,,6,21,Female,R,Donders,2021-07-10_10h01.02.013,ImageRatingTask_S5,2021.1.4,Win32,60.29181237,0,27,27,150,1,DreamStudyImages_rs1000x750g/Mammals/Animals_171_h.jpg,,,,,,,,,,,
,,7,3.9509,4,1.4937,6,1.5315,1,0.8844,2,0.1771,0,0,0,0,1,main,6,21,Female,R,Donders,2021-07-10_10h01.02.013,ImageRatingTask_S5,2021.1.4,Win32,60.29181237,,,,,,,,,,,,,,,,,
,,,,,,,,,,,,0,1,1,1,1,second,6,21,Female,R,Donders,2021-07-10_10h01.02.013,ImageRatingTask_S5,2021.1.4,Win32,60.29181237,,,,,,,,,,,,,,,,,
,,,,,,,,,,,,0,2,2,2,1,third,6,21,Female,R,Donders,2021-07-10_10h01.02.013,ImageRatingTask_S5,2021.1.4,Win32,60.29181237,,,,,,,,,,,,,,,,,
,,,,,,,,,,,,0,3,3,3,1,fourth,6,21,Female,R,Donders,2021-07-10_10h01.02.013,ImageRatingTask_S5,2021.1.4,Win32,60.29181237,,,,,,,,,,,,,,,,,
,,,,,,,,,,,,0,4,4,4,1,fifth,6,21,Female,R,Donders,2021-07-10_10h01.02.013,ImageRatingTask_S5,2021.1.4,Win32,60.29181237,,,,,,,,,,,,,,,,,
,,,,,,,,,,,,0,5,5,5,1,sixth,6,21,Female,R,Donders,2021-07-10_10h01.02.013,ImageRatingTask_S5,2021.1.4,Win32,60.29181237,,,,,,,,,,,,,,,,,
,,,,,,,,,,,,0,6,6,6,1,seventh,6,21,Female,R,Donders,2021-07-10_10h01.02.013,ImageRatingTask_S5,2021.1.4,Win32,60.29181237,,,,,,,,,,,,,,,,,
,,,,,,,,,,,,0,7,7,7,1,last,6,21,Female,R,Donders,2021-07-10_10h01.02.013,ImageRatingTask_S5,2021.1.4,Win32,60.29181237,,,,,,,,,,,,,,,,,
,,,,,,,,,,,,,,,,,,6,21,Female,R,Donders,2021-07-10_10h01.02.013,ImageRatingTask_S5,2021.1.4,Win32,60.29181237,0,28,28,46,1,DreamStudyImages_rs1000x750g/Children/Baby 9.jpg,,,,,,,,,,,
,,4,1.9393,7,1.3271,4,2.3984,1,1.0196,7,1.0574,0,0,0,0,1,main,6,21,Female,R,Donders,2021-07-10_10h01.02.013,ImageRatingTask_S5,2021.1.4,Win32,60.29181237,,,,,,,,,,,,,,,,,
,,,,,,,,,,,,0,1,1,1,1,second,6,21,Female,R,Donders,2021-07-10_10h01.02.013,ImageRatingTask_S5,2021.1.4,Win32,60.29181237,,,,,,,,,,,,,,,,,
,,,,,,,,,,,,0,2,2,2,1,third,6,21,Female,R,Donders,2021-07-10_10h01.02.013,ImageRatingTask_S5,2021.1.4,Win32,60.29181237,,,,,,,,,,,,,,,,,
,,,,,,,,,,,,0,3,3,3,1,fourth,6,21,Female,R,Donders,2021-07-10_10h01.02.013,ImageRatingTask_S5,2021.1.4,Win32,60.29181237,,,,,,,,,,,,,,,,,
,,,,,,,,,,,,0,4,4,4,1,fifth,6,21,Female,R,Donders,2021-07-10_10h01.02.013,ImageRatingTask_S5,2021.1.4,Win32,60.29181237,,,,,,,,,,,,,,,,,
,,,,,,,,,,,,0,5,5,5,1,sixth,6,21,Female,R,Donders,2021-07-10_10h01.02.013,ImageRatingTask_S5,2021.1.4,Win32,60.29181237,,,,,,,,,,,,,,,,,
,,,,,,,,,,,,0,6,6,6,1,seventh,6,21,Female,R,Donders,2021-07-10_10h01.02.013,ImageRatingTask_S5,2021.1.4,Win32,60.29181237,,,,,,,,,,,,,,,,,
,,,,,,,,,,,,0,7,7,7,1,last,6,21,Female,R,Donders,2021-07-10_10h01.02.013,ImageRatingTask_S5,2021.1.4,Win32,60.29181237,,,,,,,,,,,,,,,,,
,,,,,,,,,,,,,,,,,,6,21,Female,R,Donders,2021-07-10_10h01.02.013,ImageRatingTask_S5,2021.1.4,Win32,60.29181237,0,29,29,58,1,DreamStudyImages_rs1000x750g/Vehicles/6900.jpg,,,,,,,,,,,
,,7,15.3943,4,4.3429,6,3.0445,1,2.4236,2,0.4406,0,0,0,0,1,main,6,21,Female,R,Donders,2021-07-10_10h01.02.013,ImageRatingTask_S5,2021.1.4,Win32,60.29181237,,,,,,,,,,,,,,,,,
,,,,,,,,,,,,0,1,1,1,1,second,6,21,Female,R,Donders,2021-07-10_10h01.02.013,ImageRatingTask_S5,2021.1.4,Win32,60.29181237,,,,,,,,,,,,,,,,,
,,,,,,,,,,,,0,2,2,2,1,third,6,21,Female,R,Donders,2021-07-10_10h01.02.013,ImageRatingTask_S5,2021.1.4,Win32,60.29181237,,,,,,,,,,,,,,,,,
,,,,,,,,,,,,0,3,3,3,1,fourth,6,21,Female,R,Donders,2021-07-10_10h01.02.013,ImageRatingTask_S5,2021.1.4,Win32,60.29181237,,,,,,,,,,,,,,,,,
,,,,,,,,,,,,0,4,4,4,1,fifth,6,21,Female,R,Donders,2021-07-10_10h01.02.013,ImageRatingTask_S5,2021.1.4,Win32,60.29181237,,,,,,,,,,,,,,,,,
,,,,,,,,,,,,0,5,5,5,1,sixth,6,21,Female,R,Donders,2021-07-10_10h01.02.013,ImageRatingTask_S5,2021.1.4,Win32,60.29181237,,,,,,,,,,,,,,,,,
,,,,,,,,,,,,0,6,6,6,1,seventh,6,21,Female,R,Donders,2021-07-10_10h01.02.013,ImageRatingTask_S5,2021.1.4,Win32,60.29181237,,,,,,,,,,,,,,,,,
,,,,,,,,,,,,0,7,7,7,1,last,6,21,Female,R,Donders,2021-07-10_10h01.02.013,ImageRatingTask_S5,2021.1.4,Win32,60.29181237,,,,,,,,,,,,,,,,,
,,,,,,,,,,,,,,,,,,6,21,Female,R,Donders,2021-07-10_10h01.02.013,ImageRatingTask_S5,2021.1.4,Win32,60.29181237,0,30,30,81,1,DreamStudyImages_rs1000x750g/Children/Faces_086_v.jpg,,,,,,,,,,,
,,2,1.9075,7,1.3531,8,3.3981,1,2.6557,7,2.9915,0,0,0,0,1,main,6,21,Female,R,Donders,2021-07-10_10h01.02.013,ImageRatingTask_S5,2021.1.4,Win32,60.29181237,,,,,,,,,,,,,,,,,
,,,,,,,,,,,,0,1,1,1,1,second,6,21,Female,R,Donders,2021-07-10_10h01.02.013,ImageRatingTask_S5,2021.1.4,Win32,60.29181237,,,,,,,,,,,,,,,,,
,,,,,,,,,,,,0,2,2,2,1,third,6,21,Female,R,Donders,2021-07-10_10h01.02.013,ImageRatingTask_S5,2021.1.4,Win32,60.29181237,,,,,,,,,,,,,,,,,
,,,,,,,,,,,,0,3,3,3,1,fourth,6,21,Female,R,Donders,2021-07-10_10h01.02.013,ImageRatingTask_S5,2021.1.4,Win32,60.29181237,,,,,,,,,,,,,,,,,
,,,,,,,,,,,,0,4,4,4,1,fifth,6,21,Female,R,Donders,2021-07-10_10h01.02.013,ImageRatingTask_S5,2021.1.4,Win32,60.29181237,,,,,,,,,,,,,,,,,
,,,,,,,,,,,,0,5,5,5,1,sixth,6,21,Female,R,Donders,2021-07-10_10h01.02.013,ImageRatingTask_S5,2021.1.4,Win32,60.29181237,,,,,,,,,,,,,,,,,
,,,,,,,,,,,,0,6,6,6,1,seventh,6,21,Female,R,Donders,2021-07-10_10h01.02.013,ImageRatingTask_S5,2021.1.4,Win32,60.29181237,,,,,,,,,,,,,,,,,
,,,,,,,,,,,,0,7,7,7,1,last,6,21,Female,R,Donders,2021-07-10_10h01.02.013,ImageRatingTask_S5,2021.1.4,Win32,60.29181237,,,,,,,,,,,,,,,,,
,,,,,,,,,,,,,,,,,,6,21,Female,R,Donders,2021-07-10_10h01.02.013,ImageRatingTask_S5,2021.1.4,Win32,60.29181237,0,31,31,45,1,DreamStudyImages_rs1000x750g/Vehicles/NDPS93_destroyedroad.jpg,,,,,,,,,,,
,,2,1.4212,7,1.2688,3,1.9487,1,1.1426,2,1.7892,0,0,0,0,1,main,6,21,Female,R,Donders,2021-07-10_10h01.02.013,ImageRatingTask_S5,2021.1.4,Win32,60.29181237,,,,,,,,,,,,,,,,,
,,,,,,,,,,,,0,1,1,1,1,second,6,21,Female,R,Donders,2021-07-10_10h01.02.013,ImageRatingTask_S5,2021.1.4,Win32,60.29181237,,,,,,,,,,,,,,,,,
,,,,,,,,,,,,0,2,2,2,1,third,6,21,Female,R,Donders,2021-07-10_10h01.02.013,ImageRatingTask_S5,2021.1.4,Win32,60.29181237,,,,,,,,,,,,,,,,,
,,,,,,,,,,,,0,3,3,3,1,fourth,6,21,Female,R,Donders,2021-07-10_10h01.02.013,ImageRatingTask_S5,2021.1.4,Win32,60.29181237,,,,,,,,,,,,,,,,,
,,,,,,,,,,,,0,4,4,4,1,fifth,6,21,Female,R,Donders,2021-07-10_10h01.02.013,ImageRatingTask_S5,2021.1.4,Win32,60.29181237,,,,,,,,,,,,,,,,,
,,,,,,,,,,,,0,5,5,5,1,sixth,6,21,Female,R,Donders,2021-07-10_10h01.02.013,ImageRatingTask_S5,2021.1.4,Win32,60.29181237,,,,,,,,,,,,,,,,,
,,,,,,,,,,,,0,6,6,6,1,seventh,6,21,Female,R,Donders,2021-07-10_10h01.02.013,ImageRatingTask_S5,2021.1.4,Win32,60.29181237,,,,,,,,,,,,,,,,,
,,,,,,,,,,,,0,7,7,7,1,last,6,21,Female,R,Donders,2021-07-10_10h01.02.013,ImageRatingTask_S5,2021.1.4,Win32,60.29181237,,,,,,,,,,,,,,,,,
,,,,,,,,,,,,,,,,,,6,21,Female,R,Donders,2021-07-10_10h01.02.013,ImageRatingTask_S5,2021.1.4,Win32,60.29181237,0,32,32,131,1,DreamStudyImages_rs1000x750g/Children/People_031_v.jpg,,,,,,,,,,,
,,2,1.4769,8,1.8379,7,3.3866,1,1.5141,6,0.8138,0,0,0,0,1,main,6,21,Female,R,Donders,2021-07-10_10h01.02.013,ImageRatingTask_S5,2021.1.4,Win32,60.29181237,,,,,,,,,,,,,,,,,
,,,,,,,,,,,,0,1,1,1,1,second,6,21,Female,R,Donders,2021-07-10_10h01.02.013,ImageRatingTask_S5,2021.1.4,Win32,60.29181237,,,,,,,,,,,,,,,,,
,,,,,,,,,,,,0,2,2,2,1,third,6,21,Female,R,Donders,2021-07-10_10h01.02.013,ImageRatingTask_S5,2021.1.4,Win32,60.29181237,,,,,,,,,,,,,,,,,
,,,,,,,,,,,,0,3,3,3,1,fourth,6,21,Female,R,Donders,2021-07-10_10h01.02.013,ImageRatingTask_S5,2021.1.4,Win32,60.29181237,,,,,,,,,,,,,,,,,
,,,,,,,,,,,,0,4,4,4,1,fifth,6,21,Female,R,Donders,2021-07-10_10h01.02.013,ImageRatingTask_S5,2021.1.4,Win32,60.29181237,,,,,,,,,,,,,,,,,
,,,,,,,,,,,,0,5,5,5,1,sixth,6,21,Female,R,Donders,2021-07-10_10h01.02.013,ImageRatingTask_S5,2021.1.4,Win32,60.29181237,,,,,,,,,,,,,,,,,
,,,,,,,,,,,,0,6,6,6,1,seventh,6,21,Female,R,Donders,2021-07-10_10h01.02.013,ImageRatingTask_S5,2021.1.4,Win32,60.29181237,,,,,,,,,,,,,,,,,
,,,,,,,,,,,,0,7,7,7,1,last,6,21,Female,R,Donders,2021-07-10_10h01.02.013,ImageRatingTask_S5,2021.1.4,Win32,60.29181237,,,,,,,,,,,,,,,,,
,,,,,,,,,,,,,,,,,,6,21,Female,R,Donders,2021-07-10_10h01.02.013,ImageRatingTask_S5,2021.1.4,Win32,60.29181237,0,33,33,33,1,DreamStudyImages_rs1000x750g/Houses/NDPS39_houseonfire.jpg,,,,,,,,,,,
,,2,1.5735,8,1.2416,5,1.9487,1,1.3651,7,1.1791,0,0,0,0,1,main,6,21,Female,R,Donders,2021-07-10_10h01.02.013,ImageRatingTask_S5,2021.1.4,Win32,60.29181237,,,,,,,,,,,,,,,,,
,,,,,,,,,,,,0,1,1,1,1,second,6,21,Female,R,Donders,2021-07-10_10h01.02.013,ImageRatingTask_S5,2021.1.4,Win32,60.29181237,,,,,,,,,,,,,,,,,
,,,,,,,,,,,,0,2,2,2,1,third,6,21,Female,R,Donders,2021-07-10_10h01.02.013,ImageRatingTask_S5,2021.1.4,Win32,60.29181237,,,,,,,,,,,,,,,,,
,,,,,,,,,,,,0,3,3,3,1,fourth,6,21,Female,R,Donders,2021-07-10_10h01.02.013,ImageRatingTask_S5,2021.1.4,Win32,60.29181237,,,,,,,,,,,,,,,,,
,,,,,,,,,,,,0,4,4,4,1,fifth,6,21,Female,R,Donders,2021-07-10_10h01.02.013,ImageRatingTask_S5,2021.1.4,Win32,60.29181237,,,,,,,,,,,,,,,,,
,,,,,,,,,,,,0,5,5,5,1,sixth,6,21,Female,R,Donders,2021-07-10_10h01.02.013,ImageRatingTask_S5,2021.1.4,Win32,60.29181237,,,,,,,,,,,,,,,,,
,,,,,,,,,,,,0,6,6,6,1,seventh,6,21,Female,R,Donders,2021-07-10_10h01.02.013,ImageRatingTask_S5,2021.1.4,Win32,60.29181237,,,,,,,,,,,,,,,,,
,,,,,,,,,,,,0,7,7,7,1,last,6,21,Female,R,Donders,2021-07-10_10h01.02.013,ImageRatingTask_S5,2021.1.4,Win32,60.29181237,,,,,,,,,,,,,,,,,
,,,,,,,,,,,,,,,,,,6,21,Female,R,Donders,2021-07-10_10h01.02.013,ImageRatingTask_S5,2021.1.4,Win32,60.29181237,0,34,34,116,1,DreamStudyImages_rs1000x750g/Vehicles/Plane crash 3.jpg,,,,,,,,,,,
,,6,2.3304,3,1.7437,7,2.2483,1,2.3654,2,0.6572,0,0,0,0,1,main,6,21,Female,R,Donders,2021-07-10_10h01.02.013,ImageRatingTask_S5,2021.1.4,Win32,60.29181237,,,,,,,,,,,,,,,,,
,,,,,,,,,,,,0,1,1,1,1,second,6,21,Female,R,Donders,2021-07-10_10h01.02.013,ImageRatingTask_S5,2021.1.4,Win32,60.29181237,,,,,,,,,,,,,,,,,
,,,,,,,,,,,,0,2,2,2,1,third,6,21,Female,R,Donders,2021-07-10_10h01.02.013,ImageRatingTask_S5,2021.1.4,Win32,60.29181237,,,,,,,,,,,,,,,,,
,,,,,,,,,,,,0,3,3,3,1,fourth,6,21,Female,R,Donders,2021-07-10_10h01.02.013,ImageRatingTask_S5,2021.1.4,Win32,60.29181237,,,,,,,,,,,,,,,,,
,,,,,,,,,,,,0,4,4,4,1,fifth,6,21,Female,R,Donders,2021-07-10_10h01.02.013,ImageRatingTask_S5,2021.1.4,Win32,60.29181237,,,,,,,,,,,,,,,,,
,,,,,,,,,,,,0,5,5,5,1,sixth,6,21,Female,R,Donders,2021-07-10_10h01.02.013,ImageRatingTask_S5,2021.1.4,Win32,60.29181237,,,,,,,,,,,,,,,,,
,,,,,,,,,,,,0,6,6,6,1,seventh,6,21,Female,R,Donders,2021-07-10_10h01.02.013,ImageRatingTask_S5,2021.1.4,Win32,60.29181237,,,,,,,,,,,,,,,,,
,,,,,,,,,,,,0,7,7,7,1,last,6,21,Female,R,Donders,2021-07-10_10h01.02.013,ImageRatingTask_S5,2021.1.4,Win32,60.29181237,,,,,,,,,,,,,,,,,
,,,,,,,,,,,,,,,,,,6,21,Female,R,Donders,2021-07-10_10h01.02.013,ImageRatingTask_S5,2021.1.4,Win32,60.29181237,0,35,35,128,1,DreamStudyImages_rs1000x750g/Children/Faces_024_h.jpg,,,,,,,,,,,
,,2,1.8194,7,0.9297,6,1.8568,1,1.3173,7,0.8854,0,0,0,0,1,main,6,21,Female,R,Donders,2021-07-10_10h01.02.013,ImageRatingTask_S5,2021.1.4,Win32,60.29181237,,,,,,,,,,,,,,,,,
,,,,,,,,,,,,0,1,1,1,1,second,6,21,Female,R,Donders,2021-07-10_10h01.02.013,ImageRatingTask_S5,2021.1.4,Win32,60.29181237,,,,,,,,,,,,,,,,,
,,,,,,,,,,,,0,2,2,2,1,third,6,21,Female,R,Donders,2021-07-10_10h01.02.013,ImageRatingTask_S5,2021.1.4,Win32,60.29181237,,,,,,,,,,,,,,,,,
,,,,,,,,,,,,0,3,3,3,1,fourth,6,21,Female,R,Donders,2021-07-10_10h01.02.013,ImageRatingTask_S5,2021.1.4,Win32,60.29181237,,,,,,,,,,,,,,,,,
,,,,,,,,,,,,0,4,4,4,1,fifth,6,21,Female,R,Donders,2021-07-10_10h01.02.013,ImageRatingTask_S5,2021.1.4,Win32,60.29181237,,,,,,,,,,,,,,,,,
,,,,,,,,,,,,0,5,5,5,1,sixth,6,21,Female,R,Donders,2021-07-10_10h01.02.013,ImageRatingTask_S5,2021.1.4,Win32,60.29181237,,,,,,,,,,,,,,,,,
,,,,,,,,,,,,0,6,6,6,1,seventh,6,21,Female,R,Donders,2021-07-10_10h01.02.013,ImageRatingTask_S5,2021.1.4,Win32,60.29181237,,,,,,,,,,,,,,,,,
,,,,,,,,,,,,0,7,7,7,1,last,6,21,Female,R,Donders,2021-07-10_10h01.02.013,ImageRatingTask_S5,2021.1.4,Win32,60.29181237,,,,,,,,,,,,,,,,,
,,,,,,,,,,,,,,,,,,6,21,Female,R,Donders,2021-07-10_10h01.02.013,ImageRatingTask_S5,2021.1.4,Win32,60.29181237,0,36,36,5,1,DreamStudyImages_rs1000x750g/Vehicles/Fire 7.jpg,,,,,,,,,,,
,,4,6.4002,5,1.3816,5,1.5495,1,0.7503,2,0.7249,0,0,0,0,1,main,6,21,Female,R,Donders,2021-07-10_10h01.02.013,ImageRatingTask_S5,2021.1.4,Win32,60.29181237,,,,,,,,,,,,,,,,,
,,,,,,,,,,,,0,1,1,1,1,second,6,21,Female,R,Donders,2021-07-10_10h01.02.013,ImageRatingTask_S5,2021.1.4,Win32,60.29181237,,,,,,,,,,,,,,,,,
,,,,,,,,,,,,0,2,2,2,1,third,6,21,Female,R,Donders,2021-07-10_10h01.02.013,ImageRatingTask_S5,2021.1.4,Win32,60.29181237,,,,,,,,,,,,,,,,,
,,,,,,,,,,,,0,3,3,3,1,fourth,6,21,Female,R,Donders,2021-07-10_10h01.02.013,ImageRatingTask_S5,2021.1.4,Win32,60.29181237,,,,,,,,,,,,,,,,,
,,,,,,,,,,,,0,4,4,4,1,fifth,6,21,Female,R,Donders,2021-07-10_10h01.02.013,ImageRatingTask_S5,2021.1.4,Win32,60.29181237,,,,,,,,,,,,,,,,,
,,,,,,,,,,,,0,5,5,5,1,sixth,6,21,Female,R,Donders,2021-07-10_10h01.02.013,ImageRatingTask_S5,2021.1.4,Win32,60.29181237,,,,,,,,,,,,,,,,,
,,,,,,,,,,,,0,6,6,6,1,seventh,6,21,Female,R,Donders,2021-07-10_10h01.02.013,ImageRatingTask_S5,2021.1.4,Win32,60.29181237,,,,,,,,,,,,,,,,,
,,,,,,,,,,,,0,7,7,7,1,last,6,21,Female,R,Donders,2021-07-10_10h01.02.013,ImageRatingTask_S5,2021.1.4,Win32,60.29181237,,,,,,,,,,,,,,,,,
,,,,,,,,,,,,,,,,,,6,21,Female,R,Donders,2021-07-10_10h01.02.013,ImageRatingTask_S5,2021.1.4,Win32,60.29181237,0,37,37,80,1,DreamStudyImages_rs1000x750g/Children/Faces_004_h.jpg,,,,,,,,,,,
,,3,4.316,6,1.1552,6,2.3811,1,1.9639,6,2.6189,0,0,0,0,1,main,6,21,Female,R,Donders,2021-07-10_10h01.02.013,ImageRatingTask_S5,2021.1.4,Win32,60.29181237,,,,,,,,,,,,,,,,,
,,,,,,,,,,,,0,1,1,1,1,second,6,21,Female,R,Donders,2021-07-10_10h01.02.013,ImageRatingTask_S5,2021.1.4,Win32,60.29181237,,,,,,,,,,,,,,,,,
,,,,,,,,,,,,0,2,2,2,1,third,6,21,Female,R,Donders,2021-07-10_10h01.02.013,ImageRatingTask_S5,2021.1.4,Win32,60.29181237,,,,,,,,,,,,,,,,,
,,,,,,,,,,,,0,3,3,3,1,fourth,6,21,Female,R,Donders,2021-07-10_10h01.02.013,ImageRatingTask_S5,2021.1.4,Win32,60.29181237,,,,,,,,,,,,,,,,,
,,,,,,,,,,,,0,4,4,4,1,fifth,6,21,Female,R,Donders,2021-07-10_10h01.02.013,ImageRatingTask_S5,2021.1.4,Win32,60.29181237,,,,,,,,,,,,,,,,,
,,,,,,,,,,,,0,5,5,5,1,sixth,6,21,Female,R,Donders,2021-07-10_10h01.02.013,ImageRatingTask_S5,2021.1.4,Win32,60.29181237,,,,,,,,,,,,,,,,,
,,,,,,,,,,,,0,6,6,6,1,seventh,6,21,Female,R,Donders,2021-07-10_10h01.02.013,ImageRatingTask_S5,2021.1.4,Win32,60.29181237,,,,,,,,,,,,,,,,,
,,,,,,,,,,,,0,7,7,7,1,last,6,21,Female,R,Donders,2021-07-10_10h01.02.013,ImageRatingTask_S5,2021.1.4,Win32,60.29181237,,,,,,,,,,,,,,,,,
,,,,,,,,,,,,,,,,,,6,21,Female,R,Donders,2021-07-10_10h01.02.013,ImageRatingTask_S5,2021.1.4,Win32,60.29181237,0,38,38,23,1,DreamStudyImages_rs1000x750g/Houses/Landscapes_007_h.jpg,,,,,,,,,,,
,,3,2.2903,7,0.8271,5,1.6803,1,2.2017,8,1.4269,0,0,0,0,1,main,6,21,Female,R,Donders,2021-07-10_10h01.02.013,ImageRatingTask_S5,2021.1.4,Win32,60.29181237,,,,,,,,,,,,,,,,,
,,,,,,,,,,,,0,1,1,1,1,second,6,21,Female,R,Donders,2021-07-10_10h01.02.013,ImageRatingTask_S5,2021.1.4,Win32,60.29181237,,,,,,,,,,,,,,,,,
,,,,,,,,,,,,0,2,2,2,1,third,6,21,Female,R,Donders,2021-07-10_10h01.02.013,ImageRatingTask_S5,2021.1.4,Win32,60.29181237,,,,,,,,,,,,,,,,,
,,,,,,,,,,,,0,3,3,3,1,fourth,6,21,Female,R,Donders,2021-07-10_10h01.02.013,ImageRatingTask_S5,2021.1.4,Win32,60.29181237,,,,,,,,,,,,,,,,,
,,,,,,,,,,,,0,4,4,4,1,fifth,6,21,Female,R,Donders,2021-07-10_10h01.02.013,ImageRatingTask_S5,2021.1.4,Win32,60.29181237,,,,,,,,,,,,,,,,,
,,,,,,,,,,,,0,5,5,5,1,sixth,6,21,Female,R,Donders,2021-07-10_10h01.02.013,ImageRatingTask_S5,2021.1.4,Win32,60.29181237,,,,,,,,,,,,,,,,,
,,,,,,,,,,,,0,6,6,6,1,seventh,6,21,Female,R,Donders,2021-07-10_10h01.02.013,ImageRatingTask_S5,2021.1.4,Win32,60.29181237,,,,,,,,,,,,,,,,,
,,,,,,,,,,,,0,7,7,7,1,last,6,21,Female,R,Donders,2021-07-10_10h01.02.013,ImageRatingTask_S5,2021.1.4,Win32,60.29181237,,,,,,,,,,,,,,,,,
,,,,,,,,,,,,,,,,,,6,21,Female,R,Donders,2021-07-10_10h01.02.013,ImageRatingTask_S5,2021.1.4,Win32,60.29181237,0,39,39,77,1,DreamStudyImages_rs1000x750g/Water/Flood 2.jpg,,,,,,,,,,,
,,4,4.9143,6,2.3413,8,5.8279,1,2.5464,5,0.9707,0,0,0,0,1,main,6,21,Female,R,Donders,2021-07-10_10h01.02.013,ImageRatingTask_S5,2021.1.4,Win32,60.29181237,,,,,,,,,,,,,,,,,
,,,,,,,,,,,,0,1,1,1,1,second,6,21,Female,R,Donders,2021-07-10_10h01.02.013,ImageRatingTask_S5,2021.1.4,Win32,60.29181237,,,,,,,,,,,,,,,,,
,,,,,,,,,,,,0,2,2,2,1,third,6,21,Female,R,Donders,2021-07-10_10h01.02.013,ImageRatingTask_S5,2021.1.4,Win32,60.29181237,,,,,,,,,,,,,,,,,
,,,,,,,,,,,,0,3,3,3,1,fourth,6,21,Female,R,Donders,2021-07-10_10h01.02.013,ImageRatingTask_S5,2021.1.4,Win32,60.29181237,,,,,,,,,,,,,,,,,
,,,,,,,,,,,,0,4,4,4,1,fifth,6,21,Female,R,Donders,2021-07-10_10h01.02.013,ImageRatingTask_S5,2021.1.4,Win32,60.29181237,,,,,,,,,,,,,,,,,
,,,,,,,,,,,,0,5,5,5,1,sixth,6,21,Female,R,Donders,2021-07-10_10h01.02.013,ImageRatingTask_S5,2021.1.4,Win32,60.29181237,,,,,,,,,,,,,,,,,
,,,,,,,,,,,,0,6,6,6,1,seventh,6,21,Female,R,Donders,2021-07-10_10h01.02.013,ImageRatingTask_S5,2021.1.4,Win32,60.29181237,,,,,,,,,,,,,,,,,
,,,,,,,,,,,,0,7,7,7,1,last,6,21,Female,R,Donders,2021-07-10_10h01.02.013,ImageRatingTask_S5,2021.1.4,Win32,60.29181237,,,,,,,,,,,,,,,,,
,,,,,,,,,,,,,,,,,,6,21,Female,R,Donders,2021-07-10_10h01.02.013,ImageRatingTask_S5,2021.1.4,Win32,60.29181237,0,40,40,56,1,DreamStudyImages_rs1000x750g/Food/Objects_083_h.jpg,,,,,,,,,,,
,,5,9.5439,2,1.1595,5,1.9439,1,0.8119,6,0.96,0,0,0,0,1,main,6,21,Female,R,Donders,2021-07-10_10h01.02.013,ImageRatingTask_S5,2021.1.4,Win32,60.29181237,,,,,,,,,,,,,,,,,
,,,,,,,,,,,,0,1,1,1,1,second,6,21,Female,R,Donders,2021-07-10_10h01.02.013,ImageRatingTask_S5,2021.1.4,Win32,60.29181237,,,,,,,,,,,,,,,,,
,,,,,,,,,,,,0,2,2,2,1,third,6,21,Female,R,Donders,2021-07-10_10h01.02.013,ImageRatingTask_S5,2021.1.4,Win32,60.29181237,,,,,,,,,,,,,,,,,
,,,,,,,,,,,,0,3,3,3,1,fourth,6,21,Female,R,Donders,2021-07-10_10h01.02.013,ImageRatingTask_S5,2021.1.4,Win32,60.29181237,,,,,,,,,,,,,,,,,
,,,,,,,,,,,,0,4,4,4,1,fifth,6,21,Female,R,Donders,2021-07-10_10h01.02.013,ImageRatingTask_S5,2021.1.4,Win32,60.29181237,,,,,,,,,,,,,,,,,
,,,,,,,,,,,,0,5,5,5,1,sixth,6,21,Female,R,Donders,2021-07-10_10h01.02.013,ImageRatingTask_S5,2021.1.4,Win32,60.29181237,,,,,,,,,,,,,,,,,
,,,,,,,,,,,,0,6,6,6,1,seventh,6,21,Female,R,Donders,2021-07-10_10h01.02.013,ImageRatingTask_S5,2021.1.4,Win32,60.29181237,,,,,,,,,,,,,,,,,
,,,,,,,,,,,,0,7,7,7,1,last,6,21,Female,R,Donders,2021-07-10_10h01.02.013,ImageRatingTask_S5,2021.1.4,Win32,60.29181237,,,,,,,,,,,,,,,,,
,,,,,,,,,,,,,,,,,,6,21,Female,R,Donders,2021-07-10_10h01.02.013,ImageRatingTask_S5,2021.1.4,Win32,60.29181237,0,41,41,122,1,DreamStudyImages_rs1000x750g/Houses/Building 2.jpg,,,,,,,,,,,
,,7,1.3472,3,1.8774,7,1.5736,1,0.8722,2,0.3806,0,0,0,0,1,main,6,21,Female,R,Donders,2021-07-10_10h01.02.013,ImageRatingTask_S5,2021.1.4,Win32,60.29181237,,,,,,,,,,,,,,,,,
,,,,,,,,,,,,0,1,1,1,1,second,6,21,Female,R,Donders,2021-07-10_10h01.02.013,ImageRatingTask_S5,2021.1.4,Win32,60.29181237,,,,,,,,,,,,,,,,,
,,,,,,,,,,,,0,2,2,2,1,third,6,21,Female,R,Donders,2021-07-10_10h01.02.013,ImageRatingTask_S5,2021.1.4,Win32,60.29181237,,,,,,,,,,,,,,,,,
,,,,,,,,,,,,0,3,3,3,1,fourth,6,21,Female,R,Donders,2021-07-10_10h01.02.013,ImageRatingTask_S5,2021.1.4,Win32,60.29181237,,,,,,,,,,,,,,,,,
,,,,,,,,,,,,0,4,4,4,1,fifth,6,21,Female,R,Donders,2021-07-10_10h01.02.013,ImageRatingTask_S5,2021.1.4,Win32,60.29181237,,,,,,,,,,,,,,,,,
,,,,,,,,,,,,0,5,5,5,1,sixth,6,21,Female,R,Donders,2021-07-10_10h01.02.013,ImageRatingTask_S5,2021.1.4,Win32,60.29181237,,,,,,,,,,,,,,,,,
,,,,,,,,,,,,0,6,6,6,1,seventh,6,21,Female,R,Donders,2021-07-10_10h01.02.013,ImageRatingTask_S5,2021.1.4,Win32,60.29181237,,,,,,,,,,,,,,,,,
,,,,,,,,,,,,0,7,7,7,1,last,6,21,Female,R,Donders,2021-07-10_10h01.02.013,ImageRatingTask_S5,2021.1.4,Win32,60.29181237,,,,,,,,,,,,,,,,,
,,,,,,,,,,,,,,,,,,6,21,Female,R,Donders,2021-07-10_10h01.02.013,ImageRatingTask_S5,2021.1.4,Win32,60.29181237,0,42,42,105,1,DreamStudyImages_rs1000x750g/Children/Baby 6.jpg,,,,,,,,,,,
,,5,1.3556,2,0.8593,3,1.4265,1,1.0274,6,0.9286,0,0,0,0,1,main,6,21,Female,R,Donders,2021-07-10_10h01.02.013,ImageRatingTask_S5,2021.1.4,Win32,60.29181237,,,,,,,,,,,,,,,,,
,,,,,,,,,,,,0,1,1,1,1,second,6,21,Female,R,Donders,2021-07-10_10h01.02.013,ImageRatingTask_S5,2021.1.4,Win32,60.29181237,,,,,,,,,,,,,,,,,
,,,,,,,,,,,,0,2,2,2,1,third,6,21,Female,R,Donders,2021-07-10_10h01.02.013,ImageRatingTask_S5,2021.1.4,Win32,60.29181237,,,,,,,,,,,,,,,,,
,,,,,,,,,,,,0,3,3,3,1,fourth,6,21,Female,R,Donders,2021-07-10_10h01.02.013,ImageRatingTask_S5,2021.1.4,Win32,60.29181237,,,,,,,,,,,,,,,,,
,,,,,,,,,,,,0,4,4,4,1,fifth,6,21,Female,R,Donders,2021-07-10_10h01.02.013,ImageRatingTask_S5,2021.1.4,Win32,60.29181237,,,,,,,,,,,,,,,,,
,,,,,,,,,,,,0,5,5,5,1,sixth,6,21,Female,R,Donders,2021-07-10_10h01.02.013,ImageRatingTask_S5,2021.1.4,Win32,60.29181237,,,,,,,,,,,,,,,,,
,,,,,,,,,,,,0,6,6,6,1,seventh,6,21,Female,R,Donders,2021-07-10_10h01.02.013,ImageRatingTask_S5,2021.1.4,Win32,60.29181237,,,,,,,,,,,,,,,,,
,,,,,,,,,,,,0,7,7,7,1,last,6,21,Female,R,Donders,2021-07-10_10h01.02.013,ImageRatingTask_S5,2021.1.4,Win32,60.29181237,,,,,,,,,,,,,,,,,
,,,,,,,,,,,,,,,,,,6,21,Female,R,Donders,2021-07-10_10h01.02.013,ImageRatingTask_S5,2021.1.4,Win32,60.29181237,0,43,43,110,1,DreamStudyImages_rs1000x750g/Houses/House 1.jpg,,,,,,,,,,,
,,2,1.0415,7,2.0097,3,1.445,1,0.8488,2,0.2594,0,0,0,0,1,main,6,21,Female,R,Donders,2021-07-10_10h01.02.013,ImageRatingTask_S5,2021.1.4,Win32,60.29181237,,,,,,,,,,,,,,,,,
,,,,,,,,,,,,0,1,1,1,1,second,6,21,Female,R,Donders,2021-07-10_10h01.02.013,ImageRatingTask_S5,2021.1.4,Win32,60.29181237,,,,,,,,,,,,,,,,,
,,,,,,,,,,,,0,2,2,2,1,third,6,21,Female,R,Donders,2021-07-10_10h01.02.013,ImageRatingTask_S5,2021.1.4,Win32,60.29181237,,,,,,,,,,,,,,,,,
,,,,,,,,,,,,0,3,3,3,1,fourth,6,21,Female,R,Donders,2021-07-10_10h01.02.013,ImageRatingTask_S5,2021.1.4,Win32,60.29181237,,,,,,,,,,,,,,,,,
,,,,,,,,,,,,0,4,4,4,1,fifth,6,21,Female,R,Donders,2021-07-10_10h01.02.013,ImageRatingTask_S5,2021.1.4,Win32,60.29181237,,,,,,,,,,,,,,,,,
,,,,,,,,,,,,0,5,5,5,1,sixth,6,21,Female,R,Donders,2021-07-10_10h01.02.013,ImageRatingTask_S5,2021.1.4,Win32,60.29181237,,,,,,,,,,,,,,,,,
,,,,,,,,,,,,0,6,6,6,1,seventh,6,21,Female,R,Donders,2021-07-10_10h01.02.013,ImageRatingTask_S5,2021.1.4,Win32,60.29181237,,,,,,,,,,,,,,,,,
,,,,,,,,,,,,0,7,7,7,1,last,6,21,Female,R,Donders,2021-07-10_10h01.02.013,ImageRatingTask_S5,2021.1.4,Win32,60.29181237,,,,,,,,,,,,,,,,,
,,,,,,,,,,,,,,,,,,6,21,Female,R,Donders,2021-07-10_10h01.02.013,ImageRatingTask_S5,2021.1.4,Win32,60.29181237,0,44,44,123,1,DreamStudyImages_rs1000x750g/Children/IAPS3301_babyaccident2.jpg,,,,,,,,,,,
,,8,1.449,6,1.6636,8,2.5856,1,1.1181,5,0.9417,0,0,0,0,1,main,6,21,Female,R,Donders,2021-07-10_10h01.02.013,ImageRatingTask_S5,2021.1.4,Win32,60.29181237,,,,,,,,,,,,,,,,,
,,,,,,,,,,,,0,1,1,1,1,second,6,21,Female,R,Donders,2021-07-10_10h01.02.013,ImageRatingTask_S5,2021.1.4,Win32,60.29181237,,,,,,,,,,,,,,,,,
,,,,,,,,,,,,0,2,2,2,1,third,6,21,Female,R,Donders,2021-07-10_10h01.02.013,ImageRatingTask_S5,2021.1.4,Win32,60.29181237,,,,,,,,,,,,,,,,,
,,,,,,,,,,,,0,3,3,3,1,fourth,6,21,Female,R,Donders,2021-07-10_10h01.02.013,ImageRatingTask_S5,2021.1.4,Win32,60.29181237,,,,,,,,,,,,,,,,,
,,,,,,,,,,,,0,4,4,4,1,fifth,6,21,Female,R,Donders,2021-07-10_10h01.02.013,ImageRatingTask_S5,2021.1.4,Win32,60.29181237,,,,,,,,,,,,,,,,,
,,,,,,,,,,,,0,5,5,5,1,sixth,6,21,Female,R,Donders,2021-07-10_10h01.02.013,ImageRatingTask_S5,2021.1.4,Win32,60.29181237,,,,,,,,,,,,,,,,,
,,,,,,,,,,,,0,6,6,6,1,seventh,6,21,Female,R,Donders,2021-07-10_10h01.02.013,ImageRatingTask_S5,2021.1.4,Win32,60.29181237,,,,,,,,,,,,,,,,,
,,,,,,,,,,,,0,7,7,7,1,last,6,21,Female,R,Donders,2021-07-10_10h01.02.013,ImageRatingTask_S5,2021.1.4,Win32,60.29181237,,,,,,,,,,,,,,,,,
,,,,,,,,,,,,,,,,,,6,21,Female,R,Donders,2021-07-10_10h01.02.013,ImageRatingTask_S5,2021.1.4,Win32,60.29181237,0,45,45,93,1,DreamStudyImages_rs1000x750g/Food/IAPS7451_burger2.jpg,,,,,,,,,,,
,,8,1.3018,4,1.2572,6,2.2872,1,0.9828,3,0.9076,0,0,0,0,1,main,6,21,Female,R,Donders,2021-07-10_10h01.02.013,ImageRatingTask_S5,2021.1.4,Win32,60.29181237,,,,,,,,,,,,,,,,,
,,,,,,,,,,,,0,1,1,1,1,second,6,21,Female,R,Donders,2021-07-10_10h01.02.013,ImageRatingTask_S5,2021.1.4,Win32,60.29181237,,,,,,,,,,,,,,,,,
,,,,,,,,,,,,0,2,2,2,1,third,6,21,Female,R,Donders,2021-07-10_10h01.02.013,ImageRatingTask_S5,2021.1.4,Win32,60.29181237,,,,,,,,,,,,,,,,,
,,,,,,,,,,,,0,3,3,3,1,fourth,6,21,Female,R,Donders,2021-07-10_10h01.02.013,ImageRatingTask_S5,2021.1.4,Win32,60.29181237,,,,,,,,,,,,,,,,,
,,,,,,,,,,,,0,4,4,4,1,fifth,6,21,Female,R,Donders,2021-07-10_10h01.02.013,ImageRatingTask_S5,2021.1.4,Win32,60.29181237,,,,,,,,,,,,,,,,,
,,,,,,,,,,,,0,5,5,5,1,sixth,6,21,Female,R,Donders,2021-07-10_10h01.02.013,ImageRatingTask_S5,2021.1.4,Win32,60.29181237,,,,,,,,,,,,,,,,,
,,,,,,,,,,,,0,6,6,6,1,seventh,6,21,Female,R,Donders,2021-07-10_10h01.02.013,ImageRatingTask_S5,2021.1.4,Win32,60.29181237,,,,,,,,,,,,,,,,,
,,,,,,,,,,,,0,7,7,7,1,last,6,21,Female,R,Donders,2021-07-10_10h01.02.013,ImageRatingTask_S5,2021.1.4,Win32,60.29181237,,,,,,,,,,,,,,,,,
,,,,,,,,,,,,,,,,,,6,21,Female,R,Donders,2021-07-10_10h01.02.013,ImageRatingTask_S5,2021.1.4,Win32,60.29181237,0,46,46,63,1,DreamStudyImages_rs1000x750g/Mammals/Dog 14.jpg,,,,,,,,,,,
,,7,1.413,2,0.9985,8,1.5525,1,0.9668,8,0.9423,0,0,0,0,1,main,6,21,Female,R,Donders,2021-07-10_10h01.02.013,ImageRatingTask_S5,2021.1.4,Win32,60.29181237,,,,,,,,,,,,,,,,,
,,,,,,,,,,,,0,1,1,1,1,second,6,21,Female,R,Donders,2021-07-10_10h01.02.013,ImageRatingTask_S5,2021.1.4,Win32,60.29181237,,,,,,,,,,,,,,,,,
,,,,,,,,,,,,0,2,2,2,1,third,6,21,Female,R,Donders,2021-07-10_10h01.02.013,ImageRatingTask_S5,2021.1.4,Win32,60.29181237,,,,,,,,,,,,,,,,,
,,,,,,,,,,,,0,3,3,3,1,fourth,6,21,Female,R,Donders,2021-07-10_10h01.02.013,ImageRatingTask_S5,2021.1.4,Win32,60.29181237,,,,,,,,,,,,,,,,,
,,,,,,,,,,,,0,4,4,4,1,fifth,6,21,Female,R,Donders,2021-07-10_10h01.02.013,ImageRatingTask_S5,2021.1.4,Win32,60.29181237,,,,,,,,,,,,,,,,,
,,,,,,,,,,,,0,5,5,5,1,sixth,6,21,Female,R,Donders,2021-07-10_10h01.02.013,ImageRatingTask_S5,2021.1.4,Win32,60.29181237,,,,,,,,,,,,,,,,,
,,,,,,,,,,,,0,6,6,6,1,seventh,6,21,Female,R,Donders,2021-07-10_10h01.02.013,ImageRatingTask_S5,2021.1.4,Win32,60.29181237,,,,,,,,,,,,,,,,,
,,,,,,,,,,,,0,7,7,7,1,last,6,21,Female,R,Donders,2021-07-10_10h01.02.013,ImageRatingTask_S5,2021.1.4,Win32,60.29181237,,,,,,,,,,,,,,,,,
,,,,,,,,,,,,,,,,,,6,21,Female,R,Donders,2021-07-10_10h01.02.013,ImageRatingTask_S5,2021.1.4,Win32,60.29181237,0,47,47,144,1,DreamStudyImages_rs1000x750g/Water/Landscapes_148_h.jpg,,,,,,,,,,,
,,5,2.5482,2,1.2778,5,2.0169,1,2.1993,6,0.8865,0,0,0,0,1,main,6,21,Female,R,Donders,2021-07-10_10h01.02.013,ImageRatingTask_S5,2021.1.4,Win32,60.29181237,,,,,,,,,,,,,,,,,
,,,,,,,,,,,,0,1,1,1,1,second,6,21,Female,R,Donders,2021-07-10_10h01.02.013,ImageRatingTask_S5,2021.1.4,Win32,60.29181237,,,,,,,,,,,,,,,,,
,,,,,,,,,,,,0,2,2,2,1,third,6,21,Female,R,Donders,2021-07-10_10h01.02.013,ImageRatingTask_S5,2021.1.4,Win32,60.29181237,,,,,,,,,,,,,,,,,
,,,,,,,,,,,,0,3,3,3,1,fourth,6,21,Female,R,Donders,2021-07-10_10h01.02.013,ImageRatingTask_S5,2021.1.4,Win32,60.29181237,,,,,,,,,,,,,,,,,
,,,,,,,,,,,,0,4,4,4,1,fifth,6,21,Female,R,Donders,2021-07-10_10h01.02.013,ImageRatingTask_S5,2021.1.4,Win32,60.29181237,,,,,,,,,,,,,,,,,
,,,,,,,,,,,,0,5,5,5,1,sixth,6,21,Female,R,Donders,2021-07-10_10h01.02.013,ImageRatingTask_S5,2021.1.4,Win32,60.29181237,,,,,,,,,,,,,,,,,
,,,,,,,,,,,,0,6,6,6,1,seventh,6,21,Female,R,Donders,2021-07-10_10h01.02.013,ImageRatingTask_S5,2021.1.4,Win32,60.29181237,,,,,,,,,,,,,,,,,
,,,,,,,,,,,,0,7,7,7,1,last,6,21,Female,R,Donders,2021-07-10_10h01.02.013,ImageRatingTask_S5,2021.1.4,Win32,60.29181237,,,,,,,,,,,,,,,,,
,,,,,,,,,,,,,,,,,,6,21,Female,R,Donders,2021-07-10_10h01.02.013,ImageRatingTask_S5,2021.1.4,Win32,60.29181237,0,48,48,54,1,DreamStudyImages_rs1000x750g/Houses/NDPS61_houses5.jpg,,,,,,,,,,,
,,7,1.6821,2,1.221,4,2.1853,1,2.6,8,0.912,0,0,0,0,1,main,6,21,Female,R,Donders,2021-07-10_10h01.02.013,ImageRatingTask_S5,2021.1.4,Win32,60.29181237,,,,,,,,,,,,,,,,,
,,,,,,,,,,,,0,1,1,1,1,second,6,21,Female,R,Donders,2021-07-10_10h01.02.013,ImageRatingTask_S5,2021.1.4,Win32,60.29181237,,,,,,,,,,,,,,,,,
,,,,,,,,,,,,0,2,2,2,1,third,6,21,Female,R,Donders,2021-07-10_10h01.02.013,ImageRatingTask_S5,2021.1.4,Win32,60.29181237,,,,,,,,,,,,,,,,,
,,,,,,,,,,,,0,3,3,3,1,fourth,6,21,Female,R,Donders,2021-07-10_10h01.02.013,ImageRatingTask_S5,2021.1.4,Win32,60.29181237,,,,,,,,,,,,,,,,,
,,,,,,,,,,,,0,4,4,4,1,fifth,6,21,Female,R,Donders,2021-07-10_10h01.02.013,ImageRatingTask_S5,2021.1.4,Win32,60.29181237,,,,,,,,,,,,,,,,,
,,,,,,,,,,,,0,5,5,5,1,sixth,6,21,Female,R,Donders,2021-07-10_10h01.02.013,ImageRatingTask_S5,2021.1.4,Win32,60.29181237,,,,,,,,,,,,,,,,,
,,,,,,,,,,,,0,6,6,6,1,seventh,6,21,Female,R,Donders,2021-07-10_10h01.02.013,ImageRatingTask_S5,2021.1.4,Win32,60.29181237,,,,,,,,,,,,,,,,,
,,,,,,,,,,,,0,7,7,7,1,last,6,21,Female,R,Donders,2021-07-10_10h01.02.013,ImageRatingTask_S5,2021.1.4,Win32,60.29181237,,,,,,,,,,,,,,,,,
,,,,,,,,,,,,,,,,,,6,21,Female,R,Donders,2021-07-10_10h01.02.013,ImageRatingTask_S5,2021.1.4,Win32,60.29181237,0,49,49,147,1,DreamStudyImages_rs1000x750g/Water/IAPS5781_mistylake.jpg,,,,,,,,,,,
,,7,2.2479,5,0.8796,8,2.1828,1,0.8652,5,0.9922,0,0,0,0,1,main,6,21,Female,R,Donders,2021-07-10_10h01.02.013,ImageRatingTask_S5,2021.1.4,Win32,60.29181237,,,,,,,,,,,,,,,,,
,,,,,,,,,,,,0,1,1,1,1,second,6,21,Female,R,Donders,2021-07-10_10h01.02.013,ImageRatingTask_S5,2021.1.4,Win32,60.29181237,,,,,,,,,,,,,,,,,
,,,,,,,,,,,,0,2,2,2,1,third,6,21,Female,R,Donders,2021-07-10_10h01.02.013,ImageRatingTask_S5,2021.1.4,Win32,60.29181237,,,,,,,,,,,,,,,,,
,,,,,,,,,,,,0,3,3,3,1,fourth,6,21,Female,R,Donders,2021-07-10_10h01.02.013,ImageRatingTask_S5,2021.1.4,Win32,60.29181237,,,,,,,,,,,,,,,,,
,,,,,,,,,,,,0,4,4,4,1,fifth,6,21,Female,R,Donders,2021-07-10_10h01.02.013,ImageRatingTask_S5,2021.1.4,Win32,60.29181237,,,,,,,,,,,,,,,,,
,,,,,,,,,,,,0,5,5,5,1,sixth,6,21,Female,R,Donders,2021-07-10_10h01.02.013,ImageRatingTask_S5,2021.1.4,Win32,60.29181237,,,,,,,,,,,,,,,,,
,,,,,,,,,,,,0,6,6,6,1,seventh,6,21,Female,R,Donders,2021-07-10_10h01.02.013,ImageRatingTask_S5,2021.1.4,Win32,60.29181237,,,,,,,,,,,,,,,,,
,,,,,,,,,,,,0,7,7,7,1,last,6,21,Female,R,Donders,2021-07-10_10h01.02.013,ImageRatingTask_S5,2021.1.4,Win32,60.29181237,,,,,,,,,,,,,,,,,
,,,,,,,,,,,,,,,,,,6,21,Female,R,Donders,2021-07-10_10h01.02.013,ImageRatingTask_S5,2021.1.4,Win32,60.29181237,0,50,50,25,1,DreamStudyImages_rs1000x750g/Food/Objects_100_v.jpg,,,,,,,,,,,
,,7,2.5799,5,2.4257,8,2.3861,1,1.2486,3,0.7009,0,0,0,0,1,main,6,21,Female,R,Donders,2021-07-10_10h01.02.013,ImageRatingTask_S5,2021.1.4,Win32,60.29181237,,,,,,,,,,,,,,,,,
,,,,,,,,,,,,0,1,1,1,1,second,6,21,Female,R,Donders,2021-07-10_10h01.02.013,ImageRatingTask_S5,2021.1.4,Win32,60.29181237,,,,,,,,,,,,,,,,,
,,,,,,,,,,,,0,2,2,2,1,third,6,21,Female,R,Donders,2021-07-10_10h01.02.013,ImageRatingTask_S5,2021.1.4,Win32,60.29181237,,,,,,,,,,,,,,,,,
,,,,,,,,,,,,0,3,3,3,1,fourth,6,21,Female,R,Donders,2021-07-10_10h01.02.013,ImageRatingTask_S5,2021.1.4,Win32,60.29181237,,,,,,,,,,,,,,,,,
,,,,,,,,,,,,0,4,4,4,1,fifth,6,21,Female,R,Donders,2021-07-10_10h01.02.013,ImageRatingTask_S5,2021.1.4,Win32,60.29181237,,,,,,,,,,,,,,,,,
,,,,,,,,,,,,0,5,5,5,1,sixth,6,21,Female,R,Donders,2021-07-10_10h01.02.013,ImageRatingTask_S5,2021.1.4,Win32,60.29181237,,,,,,,,,,,,,,,,,
,,,,,,,,,,,,0,6,6,6,1,seventh,6,21,Female,R,Donders,2021-07-10_10h01.02.013,ImageRatingTask_S5,2021.1.4,Win32,60.29181237,,,,,,,,,,,,,,,,,
,,,,,,,,,,,,0,7,7,7,1,last,6,21,Female,R,Donders,2021-07-10_10h01.02.013,ImageRatingTask_S5,2021.1.4,Win32,60.29181237,,,,,,,,,,,,,,,,,
,,,,,,,,,,,,,,,,,,6,21,Female,R,Donders,2021-07-10_10h01.02.013,ImageRatingTask_S5,2021.1.4,Win32,60.29181237,0,51,51,50,1,DreamStudyImages_rs1000x750g/Mammals/Animals_137_h.jpg,,,,,,,,,,,
,,6,1.6219,2,1.0111,4,2.3369,1,0.9225,5,0.9102,0,0,0,0,1,main,6,21,Female,R,Donders,2021-07-10_10h01.02.013,ImageRatingTask_S5,2021.1.4,Win32,60.29181237,,,,,,,,,,,,,,,,,
,,,,,,,,,,,,0,1,1,1,1,second,6,21,Female,R,Donders,2021-07-10_10h01.02.013,ImageRatingTask_S5,2021.1.4,Win32,60.29181237,,,,,,,,,,,,,,,,,
,,,,,,,,,,,,0,2,2,2,1,third,6,21,Female,R,Donders,2021-07-10_10h01.02.013,ImageRatingTask_S5,2021.1.4,Win32,60.29181237,,,,,,,,,,,,,,,,,
,,,,,,,,,,,,0,3,3,3,1,fourth,6,21,Female,R,Donders,2021-07-10_10h01.02.013,ImageRatingTask_S5,2021.1.4,Win32,60.29181237,,,,,,,,,,,,,,,,,
,,,,,,,,,,,,0,4,4,4,1,fifth,6,21,Female,R,Donders,2021-07-10_10h01.02.013,ImageRatingTask_S5,2021.1.4,Win32,60.29181237,,,,,,,,,,,,,,,,,
,,,,,,,,,,,,0,5,5,5,1,sixth,6,21,Female,R,Donders,2021-07-10_10h01.02.013,ImageRatingTask_S5,2021.1.4,Win32,60.29181237,,,,,,,,,,,,,,,,,
,,,,,,,,,,,,0,6,6,6,1,seventh,6,21,Female,R,Donders,2021-07-10_10h01.02.013,ImageRatingTask_S5,2021.1.4,Win32,60.29181237,,,,,,,,,,,,,,,,,
,,,,,,,,,,,,0,7,7,7,1,last,6,21,Female,R,Donders,2021-07-10_10h01.02.013,ImageRatingTask_S5,2021.1.4,Win32,60.29181237,,,,,,,,,,,,,,,,,
,,,,,,,,,,,,,,,,,,6,21,Female,R,Donders,2021-07-10_10h01.02.013,ImageRatingTask_S5,2021.1.4,Win32,60.29181237,0,52,52,24,1,DreamStudyImages_rs1000x750g/Food/IAPS7285_tomatoes.jpg,,,,,,,,,,,
,,6,1.6613,2,0.9694,8,1.6555,1,1.0982,6,1.0092,0,0,0,0,1,main,6,21,Female,R,Donders,2021-07-10_10h01.02.013,ImageRatingTask_S5,2021.1.4,Win32,60.29181237,,,,,,,,,,,,,,,,,
,,,,,,,,,,,,0,1,1,1,1,second,6,21,Female,R,Donders,2021-07-10_10h01.02.013,ImageRatingTask_S5,2021.1.4,Win32,60.29181237,,,,,,,,,,,,,,,,,
,,,,,,,,,,,,0,2,2,2,1,third,6,21,Female,R,Donders,2021-07-10_10h01.02.013,ImageRatingTask_S5,2021.1.4,Win32,60.29181237,,,,,,,,,,,,,,,,,
,,,,,,,,,,,,0,3,3,3,1,fourth,6,21,Female,R,Donders,2021-07-10_10h01.02.013,ImageRatingTask_S5,2021.1.4,Win32,60.29181237,,,,,,,,,,,,,,,,,
,,,,,,,,,,,,0,4,4,4,1,fifth,6,21,Female,R,Donders,2021-07-10_10h01.02.013,ImageRatingTask_S5,2021.1.4,Win32,60.29181237,,,,,,,,,,,,,,,,,
,,,,,,,,,,,,0,5,5,5,1,sixth,6,21,Female,R,Donders,2021-07-10_10h01.02.013,ImageRatingTask_S5,2021.1.4,Win32,60.29181237,,,,,,,,,,,,,,,,,
,,,,,,,,,,,,0,6,6,6,1,seventh,6,21,Female,R,Donders,2021-07-10_10h01.02.013,ImageRatingTask_S5,2021.1.4,Win32,60.29181237,,,,,,,,,,,,,,,,,
,,,,,,,,,,,,0,7,7,7,1,last,6,21,Female,R,Donders,2021-07-10_10h01.02.013,ImageRatingTask_S5,2021.1.4,Win32,60.29181237,,,,,,,,,,,,,,,,,
,,,,,,,,,,,,,,,,,,6,21,Female,R,Donders,2021-07-10_10h01.02.013,ImageRatingTask_S5,2021.1.4,Win32,60.29181237,0,53,53,148,1,DreamStudyImages_rs1000x750g/Houses/7530.jpg,,,,,,,,,,,
,,5,1.3655,3,1.1,4,2.0324,1,0.7913,7,0.8252,0,0,0,0,1,main,6,21,Female,R,Donders,2021-07-10_10h01.02.013,ImageRatingTask_S5,2021.1.4,Win32,60.29181237,,,,,,,,,,,,,,,,,
,,,,,,,,,,,,0,1,1,1,1,second,6,21,Female,R,Donders,2021-07-10_10h01.02.013,ImageRatingTask_S5,2021.1.4,Win32,60.29181237,,,,,,,,,,,,,,,,,
,,,,,,,,,,,,0,2,2,2,1,third,6,21,Female,R,Donders,2021-07-10_10h01.02.013,ImageRatingTask_S5,2021.1.4,Win32,60.29181237,,,,,,,,,,,,,,,,,
,,,,,,,,,,,,0,3,3,3,1,fourth,6,21,Female,R,Donders,2021-07-10_10h01.02.013,ImageRatingTask_S5,2021.1.4,Win32,60.29181237,,,,,,,,,,,,,,,,,
,,,,,,,,,,,,0,4,4,4,1,fifth,6,21,Female,R,Donders,2021-07-10_10h01.02.013,ImageRatingTask_S5,2021.1.4,Win32,60.29181237,,,,,,,,,,,,,,,,,
,,,,,,,,,,,,0,5,5,5,1,sixth,6,21,Female,R,Donders,2021-07-10_10h01.02.013,ImageRatingTask_S5,2021.1.4,Win32,60.29181237,,,,,,,,,,,,,,,,,
,,,,,,,,,,,,0,6,6,6,1,seventh,6,21,Female,R,Donders,2021-07-10_10h01.02.013,ImageRatingTask_S5,2021.1.4,Win32,60.29181237,,,,,,,,,,,,,,,,,
,,,,,,,,,,,,0,7,7,7,1,last,6,21,Female,R,Donders,2021-07-10_10h01.02.013,ImageRatingTask_S5,2021.1.4,Win32,60.29181237,,,,,,,,,,,,,,,,,
,,,,,,,,,,,,,,,,,,6,21,Female,R,Donders,2021-07-10_10h01.02.013,ImageRatingTask_S5,2021.1.4,Win32,60.29181237,0,54,54,7,1,DreamStudyImages_rs1000x750g/Vehicles/Car 2.jpg,,,,,,,,,,,
,,3,2.6579,8,2.4835,2,2.7552,1,1.0233,7,0.7236,0,0,0,0,1,main,6,21,Female,R,Donders,2021-07-10_10h01.02.013,ImageRatingTask_S5,2021.1.4,Win32,60.29181237,,,,,,,,,,,,,,,,,
,,,,,,,,,,,,0,1,1,1,1,second,6,21,Female,R,Donders,2021-07-10_10h01.02.013,ImageRatingTask_S5,2021.1.4,Win32,60.29181237,,,,,,,,,,,,,,,,,
,,,,,,,,,,,,0,2,2,2,1,third,6,21,Female,R,Donders,2021-07-10_10h01.02.013,ImageRatingTask_S5,2021.1.4,Win32,60.29181237,,,,,,,,,,,,,,,,,
,,,,,,,,,,,,0,3,3,3,1,fourth,6,21,Female,R,Donders,2021-07-10_10h01.02.013,ImageRatingTask_S5,2021.1.4,Win32,60.29181237,,,,,,,,,,,,,,,,,
,,,,,,,,,,,,0,4,4,4,1,fifth,6,21,Female,R,Donders,2021-07-10_10h01.02.013,ImageRatingTask_S5,2021.1.4,Win32,60.29181237,,,,,,,,,,,,,,,,,
,,,,,,,,,,,,0,5,5,5,1,sixth,6,21,Female,R,Donders,2021-07-10_10h01.02.013,ImageRatingTask_S5,2021.1.4,Win32,60.29181237,,,,,,,,,,,,,,,,,
,,,,,,,,,,,,0,6,6,6,1,seventh,6,21,Female,R,Donders,2021-07-10_10h01.02.013,ImageRatingTask_S5,2021.1.4,Win32,60.29181237,,,,,,,,,,,,,,,,,
,,,,,,,,,,,,0,7,7,7,1,last,6,21,Female,R,Donders,2021-07-10_10h01.02.013,ImageRatingTask_S5,2021.1.4,Win32,60.29181237,,,,,,,,,,,,,,,,,
,,,,,,,,,,,,,,,,,,6,21,Female,R,Donders,2021-07-10_10h01.02.013,ImageRatingTask_S5,2021.1.4,Win32,60.29181237,0,55,55,28,1,DreamStudyImages_rs1000x750g/Vehicles/IAPS9090_car3.jpg,,,,,,,,,,,
,,8,1.5435,5,1.6337,8,1.7993,1,0.9703,3,0.9413,0,0,0,0,1,main,6,21,Female,R,Donders,2021-07-10_10h01.02.013,ImageRatingTask_S5,2021.1.4,Win32,60.29181237,,,,,,,,,,,,,,,,,
,,,,,,,,,,,,0,1,1,1,1,second,6,21,Female,R,Donders,2021-07-10_10h01.02.013,ImageRatingTask_S5,2021.1.4,Win32,60.29181237,,,,,,,,,,,,,,,,,
,,,,,,,,,,,,0,2,2,2,1,third,6,21,Female,R,Donders,2021-07-10_10h01.02.013,ImageRatingTask_S5,2021.1.4,Win32,60.29181237,,,,,,,,,,,,,,,,,
,,,,,,,,,,,,0,3,3,3,1,fourth,6,21,Female,R,Donders,2021-07-10_10h01.02.013,ImageRatingTask_S5,2021.1.4,Win32,60.29181237,,,,,,,,,,,,,,,,,
,,,,,,,,,,,,0,4,4,4,1,fifth,6,21,Female,R,Donders,2021-07-10_10h01.02.013,ImageRatingTask_S5,2021.1.4,Win32,60.29181237,,,,,,,,,,,,,,,,,
,,,,,,,,,,,,0,5,5,5,1,sixth,6,21,Female,R,Donders,2021-07-10_10h01.02.013,ImageRatingTask_S5,2021.1.4,Win32,60.29181237,,,,,,,,,,,,,,,,,
,,,,,,,,,,,,0,6,6,6,1,seventh,6,21,Female,R,Donders,2021-07-10_10h01.02.013,ImageRatingTask_S5,2021.1.4,Win32,60.29181237,,,,,,,,,,,,,,,,,
,,,,,,,,,,,,0,7,7,7,1,last,6,21,Female,R,Donders,2021-07-10_10h01.02.013,ImageRatingTask_S5,2021.1.4,Win32,60.29181237,,,,,,,,,,,,,,,,,
,,,,,,,,,,,,,,,,,,6,21,Female,R,Donders,2021-07-10_10h01.02.013,ImageRatingTask_S5,2021.1.4,Win32,60.29181237,0,56,56,36,1,DreamStudyImages_rs1000x750g/Mammals/Animals_097_h.jpg,,,,,,,,,,,
,,4,2.085,7,1.7002,7,1.9351,1,2.0899,6,2.5888,0,0,0,0,1,main,6,21,Female,R,Donders,2021-07-10_10h01.02.013,ImageRatingTask_S5,2021.1.4,Win32,60.29181237,,,,,,,,,,,,,,,,,
,,,,,,,,,,,,0,1,1,1,1,second,6,21,Female,R,Donders,2021-07-10_10h01.02.013,ImageRatingTask_S5,2021.1.4,Win32,60.29181237,,,,,,,,,,,,,,,,,
,,,,,,,,,,,,0,2,2,2,1,third,6,21,Female,R,Donders,2021-07-10_10h01.02.013,ImageRatingTask_S5,2021.1.4,Win32,60.29181237,,,,,,,,,,,,,,,,,
,,,,,,,,,,,,0,3,3,3,1,fourth,6,21,Female,R,Donders,2021-07-10_10h01.02.013,ImageRatingTask_S5,2021.1.4,Win32,60.29181237,,,,,,,,,,,,,,,,,
,,,,,,,,,,,,0,4,4,4,1,fifth,6,21,Female,R,Donders,2021-07-10_10h01.02.013,ImageRatingTask_S5,2021.1.4,Win32,60.29181237,,,,,,,,,,,,,,,,,
,,,,,,,,,,,,0,5,5,5,1,sixth,6,21,Female,R,Donders,2021-07-10_10h01.02.013,ImageRatingTask_S5,2021.1.4,Win32,60.29181237,,,,,,,,,,,,,,,,,
,,,,,,,,,,,,0,6,6,6,1,seventh,6,21,Female,R,Donders,2021-07-10_10h01.02.013,ImageRatingTask_S5,2021.1.4,Win32,60.29181237,,,,,,,,,,,,,,,,,
,,,,,,,,,,,,0,7,7,7,1,last,6,21,Female,R,Donders,2021-07-10_10h01.02.013,ImageRatingTask_S5,2021.1.4,Win32,60.29181237,,,,,,,,,,,,,,,,,
,,,,,,,,,,,,,,,,,,6,21,Female,R,Donders,2021-07-10_10h01.02.013,ImageRatingTask_S5,2021.1.4,Win32,60.29181237,0,57,57,104,1,DreamStudyImages_rs1000x750g/Houses/NDPS25_houses3.jpg,,,,,,,,,,,
,,5,2.5036,2,1.1617,3,1.7746,0,3.6987,,,0,0,0,0,1,main,6,21,Female,R,Donders,2021-07-10_10h01.02.013,ImageRatingTask_S5,2021.1.4,Win32,60.29181237,,,,,,,,,,,,,,,,,
,,,,,,,,,,,,0,1,1,1,1,second,6,21,Female,R,Donders,2021-07-10_10h01.02.013,ImageRatingTask_S5,2021.1.4,Win32,60.29181237,,,,,,,,,,,,,,,,,
,,,,,,,,,,,,0,2,2,2,1,third,6,21,Female,R,Donders,2021-07-10_10h01.02.013,ImageRatingTask_S5,2021.1.4,Win32,60.29181237,,,,,,,,,,,,,,,,,
,,,,,,,,,,,,0,3,3,3,1,fourth,6,21,Female,R,Donders,2021-07-10_10h01.02.013,ImageRatingTask_S5,2021.1.4,Win32,60.29181237,,,,,,,,,,,,,,,,,
,,,,,,,,,,,,0,4,4,4,1,fifth,6,21,Female,R,Donders,2021-07-10_10h01.02.013,ImageRatingTask_S5,2021.1.4,Win32,60.29181237,,,,,,,,,,,,,,,,,
,,,,,,,,,,,,0,5,5,5,1,sixth,6,21,Female,R,Donders,2021-07-10_10h01.02.013,ImageRatingTask_S5,2021.1.4,Win32,60.29181237,,,,,,,,,,,,,,,,,
,,,,,,,,,,,,0,6,6,6,1,seventh,6,21,Female,R,Donders,2021-07-10_10h01.02.013,ImageRatingTask_S5,2021.1.4,Win32,60.29181237,,,,,,,,,,,,,,,,,
,,,,,,,,,,,,0,7,7,7,1,last,6,21,Female,R,Donders,2021-07-10_10h01.02.013,ImageRatingTask_S5,2021.1.4,Win32,60.29181237,,,,,,,,,,,,,,,,,
,,,,,,,,,,,,,,,,,,6,21,Female,R,Donders,2021-07-10_10h01.02.013,ImageRatingTask_S5,2021.1.4,Win32,60.29181237,0,58,58,10,1,DreamStudyImages_rs1000x750g/Water/IAPS5220_tropicalbridge_CHECK.jpg,,,,,,,,,,,
,,3,3.2841,7,1.037,7,2.4988,1,1.4609,3,1.6709,0,0,0,0,1,main,6,21,Female,R,Donders,2021-07-10_10h01.02.013,ImageRatingTask_S5,2021.1.4,Win32,60.29181237,,,,,,,,,,,,,,,,,
,,,,,,,,,,,,0,1,1,1,1,second,6,21,Female,R,Donders,2021-07-10_10h01.02.013,ImageRatingTask_S5,2021.1.4,Win32,60.29181237,,,,,,,,,,,,,,,,,
,,,,,,,,,,,,0,2,2,2,1,third,6,21,Female,R,Donders,2021-07-10_10h01.02.013,ImageRatingTask_S5,2021.1.4,Win32,60.29181237,,,,,,,,,,,,,,,,,
,,,,,,,,,,,,0,3,3,3,1,fourth,6,21,Female,R,Donders,2021-07-10_10h01.02.013,ImageRatingTask_S5,2021.1.4,Win32,60.29181237,,,,,,,,,,,,,,,,,
,,,,,,,,,,,,0,4,4,4,1,fifth,6,21,Female,R,Donders,2021-07-10_10h01.02.013,ImageRatingTask_S5,2021.1.4,Win32,60.29181237,,,,,,,,,,,,,,,,,
,,,,,,,,,,,,0,5,5,5,1,sixth,6,21,Female,R,Donders,2021-07-10_10h01.02.013,ImageRatingTask_S5,2021.1.4,Win32,60.29181237,,,,,,,,,,,,,,,,,
,,,,,,,,,,,,0,6,6,6,1,seventh,6,21,Female,R,Donders,2021-07-10_10h01.02.013,ImageRatingTask_S5,2021.1.4,Win32,60.29181237,,,,,,,,,,,,,,,,,
,,,,,,,,,,,,0,7,7,7,1,last,6,21,Female,R,Donders,2021-07-10_10h01.02.013,ImageRatingTask_S5,2021.1.4,Win32,60.29181237,,,,,,,,,,,,,,,,,
,,,,,,,,,,,,,,,,,,6,21,Female,R,Donders,2021-07-10_10h01.02.013,ImageRatingTask_S5,2021.1.4,Win32,60.29181237,0,59,59,108,1,DreamStudyImages_rs1000x750g/Mammals/Animals_075_h.jpg,,,,,,,,,,,
,,5,3.0978,3,1.3163,5,2.0155,1,0.7766,2,0.3066,0,0,0,0,1,main,6,21,Female,R,Donders,2021-07-10_10h01.02.013,ImageRatingTask_S5,2021.1.4,Win32,60.29181237,,,,,,,,,,,,,,,,,
,,,,,,,,,,,,0,1,1,1,1,second,6,21,Female,R,Donders,2021-07-10_10h01.02.013,ImageRatingTask_S5,2021.1.4,Win32,60.29181237,,,,,,,,,,,,,,,,,
,,,,,,,,,,,,0,2,2,2,1,third,6,21,Female,R,Donders,2021-07-10_10h01.02.013,ImageRatingTask_S5,2021.1.4,Win32,60.29181237,,,,,,,,,,,,,,,,,
,,,,,,,,,,,,0,3,3,3,1,fourth,6,21,Female,R,Donders,2021-07-10_10h01.02.013,ImageRatingTask_S5,2021.1.4,Win32,60.29181237,,,,,,,,,,,,,,,,,
,,,,,,,,,,,,0,4,4,4,1,fifth,6,21,Female,R,Donders,2021-07-10_10h01.02.013,ImageRatingTask_S5,2021.1.4,Win32,60.29181237,,,,,,,,,,,,,,,,,
,,,,,,,,,,,,0,5,5,5,1,sixth,6,21,Female,R,Donders,2021-07-10_10h01.02.013,ImageRatingTask_S5,2021.1.4,Win32,60.29181237,,,,,,,,,,,,,,,,,
,,,,,,,,,,,,0,6,6,6,1,seventh,6,21,Female,R,Donders,2021-07-10_10h01.02.013,ImageRatingTask_S5,2021.1.4,Win32,60.29181237,,,,,,,,,,,,,,,,,
,,,,,,,,,,,,0,7,7,7,1,last,6,21,Female,R,Donders,2021-07-10_10h01.02.013,ImageRatingTask_S5,2021.1.4,Win32,60.29181237,,,,,,,,,,,,,,,,,
,,,,,,,,,,,,,,,,,,6,21,Female,R,Donders,2021-07-10_10h01.02.013,ImageRatingTask_S5,2021.1.4,Win32,60.29181237,0,60,60,11,1,DreamStudyImages_rs1000x750g/Children/Miserable face 2.jpg,,,,,,,,,,,
,,8,1.3768,6,1.6985,8,1.7435,1,1.9195,5,0.7561,0,0,0,0,1,main,6,21,Female,R,Donders,2021-07-10_10h01.02.013,ImageRatingTask_S5,2021.1.4,Win32,60.29181237,,,,,,,,,,,,,,,,,
,,,,,,,,,,,,0,1,1,1,1,second,6,21,Female,R,Donders,2021-07-10_10h01.02.013,ImageRatingTask_S5,2021.1.4,Win32,60.29181237,,,,,,,,,,,,,,,,,
,,,,,,,,,,,,0,2,2,2,1,third,6,21,Female,R,Donders,2021-07-10_10h01.02.013,ImageRatingTask_S5,2021.1.4,Win32,60.29181237,,,,,,,,,,,,,,,,,
,,,,,,,,,,,,0,3,3,3,1,fourth,6,21,Female,R,Donders,2021-07-10_10h01.02.013,ImageRatingTask_S5,2021.1.4,Win32,60.29181237,,,,,,,,,,,,,,,,,
,,,,,,,,,,,,0,4,4,4,1,fifth,6,21,Female,R,Donders,2021-07-10_10h01.02.013,ImageRatingTask_S5,2021.1.4,Win32,60.29181237,,,,,,,,,,,,,,,,,
,,,,,,,,,,,,0,5,5,5,1,sixth,6,21,Female,R,Donders,2021-07-10_10h01.02.013,ImageRatingTask_S5,2021.1.4,Win32,60.29181237,,,,,,,,,,,,,,,,,
,,,,,,,,,,,,0,6,6,6,1,seventh,6,21,Female,R,Donders,2021-07-10_10h01.02.013,ImageRatingTask_S5,2021.1.4,Win32,60.29181237,,,,,,,,,,,,,,,,,
,,,,,,,,,,,,0,7,7,7,1,last,6,21,Female,R,Donders,2021-07-10_10h01.02.013,ImageRatingTask_S5,2021.1.4,Win32,60.29181237,,,,,,,,,,,,,,,,,
,,,,,,,,,,,,,,,,,,6,21,Female,R,Donders,2021-07-10_10h01.02.013,ImageRatingTask_S5,2021.1.4,Win32,60.29181237,0,61,61,91,1,DreamStudyImages_rs1000x750g/Food/Objects_075_h.jpg,,,,,,,,,,,
,,5,1.5036,2,2.4139,5,2.6256,1,1.2183,7,1.9948,0,0,0,0,1,main,6,21,Female,R,Donders,2021-07-10_10h01.02.013,ImageRatingTask_S5,2021.1.4,Win32,60.29181237,,,,,,,,,,,,,,,,,
,,,,,,,,,,,,0,1,1,1,1,second,6,21,Female,R,Donders,2021-07-10_10h01.02.013,ImageRatingTask_S5,2021.1.4,Win32,60.29181237,,,,,,,,,,,,,,,,,
,,,,,,,,,,,,0,2,2,2,1,third,6,21,Female,R,Donders,2021-07-10_10h01.02.013,ImageRatingTask_S5,2021.1.4,Win32,60.29181237,,,,,,,,,,,,,,,,,
,,,,,,,,,,,,0,3,3,3,1,fourth,6,21,Female,R,Donders,2021-07-10_10h01.02.013,ImageRatingTask_S5,2021.1.4,Win32,60.29181237,,,,,,,,,,,,,,,,,
,,,,,,,,,,,,0,4,4,4,1,fifth,6,21,Female,R,Donders,2021-07-10_10h01.02.013,ImageRatingTask_S5,2021.1.4,Win32,60.29181237,,,,,,,,,,,,,,,,,
,,,,,,,,,,,,0,5,5,5,1,sixth,6,21,Female,R,Donders,2021-07-10_10h01.02.013,ImageRatingTask_S5,2021.1.4,Win32,60.29181237,,,,,,,,,,,,,,,,,
,,,,,,,,,,,,0,6,6,6,1,seventh,6,21,Female,R,Donders,2021-07-10_10h01.02.013,ImageRatingTask_S5,2021.1.4,Win32,60.29181237,,,,,,,,,,,,,,,,,
,,,,,,,,,,,,0,7,7,7,1,last,6,21,Female,R,Donders,2021-07-10_10h01.02.013,ImageRatingTask_S5,2021.1.4,Win32,60.29181237,,,,,,,,,,,,,,,,,
,,,,,,,,,,,,,,,,,,6,21,Female,R,Donders,2021-07-10_10h01.02.013,ImageRatingTask_S5,2021.1.4,Win32,60.29181237,0,62,62,156,1,DreamStudyImages_rs1000x750g/Vehicles/IAPS7130_truck.jpg,,,,,,,,,,,
,,7,2.1113,2,1.605,5,1.8261,1,0.7187,2,0.4452,0,0,0,0,1,main,6,21,Female,R,Donders,2021-07-10_10h01.02.013,ImageRatingTask_S5,2021.1.4,Win32,60.29181237,,,,,,,,,,,,,,,,,
,,,,,,,,,,,,0,1,1,1,1,second,6,21,Female,R,Donders,2021-07-10_10h01.02.013,ImageRatingTask_S5,2021.1.4,Win32,60.29181237,,,,,,,,,,,,,,,,,
,,,,,,,,,,,,0,2,2,2,1,third,6,21,Female,R,Donders,2021-07-10_10h01.02.013,ImageRatingTask_S5,2021.1.4,Win32,60.29181237,,,,,,,,,,,,,,,,,
,,,,,,,,,,,,0,3,3,3,1,fourth,6,21,Female,R,Donders,2021-07-10_10h01.02.013,ImageRatingTask_S5,2021.1.4,Win32,60.29181237,,,,,,,,,,,,,,,,,
,,,,,,,,,,,,0,4,4,4,1,fifth,6,21,Female,R,Donders,2021-07-10_10h01.02.013,ImageRatingTask_S5,2021.1.4,Win32,60.29181237,,,,,,,,,,,,,,,,,
,,,,,,,,,,,,0,5,5,5,1,sixth,6,21,Female,R,Donders,2021-07-10_10h01.02.013,ImageRatingTask_S5,2021.1.4,Win32,60.29181237,,,,,,,,,,,,,,,,,
,,,,,,,,,,,,0,6,6,6,1,seventh,6,21,Female,R,Donders,2021-07-10_10h01.02.013,ImageRatingTask_S5,2021.1.4,Win32,60.29181237,,,,,,,,,,,,,,,,,
,,,,,,,,,,,,0,7,7,7,1,last,6,21,Female,R,Donders,2021-07-10_10h01.02.013,ImageRatingTask_S5,2021.1.4,Win32,60.29181237,,,,,,,,,,,,,,,,,
,,,,,,,,,,,,,,,,,,6,21,Female,R,Donders,2021-07-10_10h01.02.013,ImageRatingTask_S5,2021.1.4,Win32,60.29181237,0,63,63,129,1,DreamStudyImages_rs1000x750g/Children/IAPS2153_baby15.jpg,,,,,,,,,,,
,,8,1.2486,4,1.2991,7,4.0337,1,0.7981,3,0.8092,0,0,0,0,1,main,6,21,Female,R,Donders,2021-07-10_10h01.02.013,ImageRatingTask_S5,2021.1.4,Win32,60.29181237,,,,,,,,,,,,,,,,,
,,,,,,,,,,,,0,1,1,1,1,second,6,21,Female,R,Donders,2021-07-10_10h01.02.013,ImageRatingTask_S5,2021.1.4,Win32,60.29181237,,,,,,,,,,,,,,,,,
,,,,,,,,,,,,0,2,2,2,1,third,6,21,Female,R,Donders,2021-07-10_10h01.02.013,ImageRatingTask_S5,2021.1.4,Win32,60.29181237,,,,,,,,,,,,,,,,,
,,,,,,,,,,,,0,3,3,3,1,fourth,6,21,Female,R,Donders,2021-07-10_10h01.02.013,ImageRatingTask_S5,2021.1.4,Win32,60.29181237,,,,,,,,,,,,,,,,,
,,,,,,,,,,,,0,4,4,4,1,fifth,6,21,Female,R,Donders,2021-07-10_10h01.02.013,ImageRatingTask_S5,2021.1.4,Win32,60.29181237,,,,,,,,,,,,,,,,,
,,,,,,,,,,,,0,5,5,5,1,sixth,6,21,Female,R,Donders,2021-07-10_10h01.02.013,ImageRatingTask_S5,2021.1.4,Win32,60.29181237,,,,,,,,,,,,,,,,,
,,,,,,,,,,,,0,6,6,6,1,seventh,6,21,Female,R,Donders,2021-07-10_10h01.02.013,ImageRatingTask_S5,2021.1.4,Win32,60.29181237,,,,,,,,,,,,,,,,,
,,,,,,,,,,,,0,7,7,7,1,last,6,21,Female,R,Donders,2021-07-10_10h01.02.013,ImageRatingTask_S5,2021.1.4,Win32,60.29181237,,,,,,,,,,,,,,,,,
,,,,,,,,,,,,,,,,,,6,21,Female,R,Donders,2021-07-10_10h01.02.013,ImageRatingTask_S5,2021.1.4,Win32,60.29181237,0,64,64,27,1,DreamStudyImages_rs1000x750g/Mammals/IAPS1812_elephants.jpg,,,,,,,,,,,
,,7,1.8112,2,0.9406,2,1.6125,1,1.8477,8,0.9734,0,0,0,0,1,main,6,21,Female,R,Donders,2021-07-10_10h01.02.013,ImageRatingTask_S5,2021.1.4,Win32,60.29181237,,,,,,,,,,,,,,,,,
,,,,,,,,,,,,0,1,1,1,1,second,6,21,Female,R,Donders,2021-07-10_10h01.02.013,ImageRatingTask_S5,2021.1.4,Win32,60.29181237,,,,,,,,,,,,,,,,,
,,,,,,,,,,,,0,2,2,2,1,third,6,21,Female,R,Donders,2021-07-10_10h01.02.013,ImageRatingTask_S5,2021.1.4,Win32,60.29181237,,,,,,,,,,,,,,,,,
,,,,,,,,,,,,0,3,3,3,1,fourth,6,21,Female,R,Donders,2021-07-10_10h01.02.013,ImageRatingTask_S5,2021.1.4,Win32,60.29181237,,,,,,,,,,,,,,,,,
,,,,,,,,,,,,0,4,4,4,1,fifth,6,21,Female,R,Donders,2021-07-10_10h01.02.013,ImageRatingTask_S5,2021.1.4,Win32,60.29181237,,,,,,,,,,,,,,,,,
,,,,,,,,,,,,0,5,5,5,1,sixth,6,21,Female,R,Donders,2021-07-10_10h01.02.013,ImageRatingTask_S5,2021.1.4,Win32,60.29181237,,,,,,,,,,,,,,,,,
,,,,,,,,,,,,0,6,6,6,1,seventh,6,21,Female,R,Donders,2021-07-10_10h01.02.013,ImageRatingTask_S5,2021.1.4,Win32,60.29181237,,,,,,,,,,,,,,,,,
,,,,,,,,,,,,0,7,7,7,1,last,6,21,Female,R,Donders,2021-07-10_10h01.02.013,ImageRatingTask_S5,2021.1.4,Win32,60.29181237,,,,,,,,,,,,,,,,,
,,,,,,,,,,,,,,,,,,6,21,Female,R,Donders,2021-07-10_10h01.02.013,ImageRatingTask_S5,2021.1.4,Win32,60.29181237,0,65,65,130,1,DreamStudyImages_rs1000x750g/Water/Lake 12.jpg,,,,,,,,,,,
,,8,1.2321,6,1.3537,7,2.1157,1,1.0325,3,0.8571,0,0,0,0,1,main,6,21,Female,R,Donders,2021-07-10_10h01.02.013,ImageRatingTask_S5,2021.1.4,Win32,60.29181237,,,,,,,,,,,,,,,,,
,,,,,,,,,,,,0,1,1,1,1,second,6,21,Female,R,Donders,2021-07-10_10h01.02.013,ImageRatingTask_S5,2021.1.4,Win32,60.29181237,,,,,,,,,,,,,,,,,
,,,,,,,,,,,,0,2,2,2,1,third,6,21,Female,R,Donders,2021-07-10_10h01.02.013,ImageRatingTask_S5,2021.1.4,Win32,60.29181237,,,,,,,,,,,,,,,,,
,,,,,,,,,,,,0,3,3,3,1,fourth,6,21,Female,R,Donders,2021-07-10_10h01.02.013,ImageRatingTask_S5,2021.1.4,Win32,60.29181237,,,,,,,,,,,,,,,,,
,,,,,,,,,,,,0,4,4,4,1,fifth,6,21,Female,R,Donders,2021-07-10_10h01.02.013,ImageRatingTask_S5,2021.1.4,Win32,60.29181237,,,,,,,,,,,,,,,,,
,,,,,,,,,,,,0,5,5,5,1,sixth,6,21,Female,R,Donders,2021-07-10_10h01.02.013,ImageRatingTask_S5,2021.1.4,Win32,60.29181237,,,,,,,,,,,,,,,,,
,,,,,,,,,,,,0,6,6,6,1,seventh,6,21,Female,R,Donders,2021-07-10_10h01.02.013,ImageRatingTask_S5,2021.1.4,Win32,60.29181237,,,,,,,,,,,,,,,,,
,,,,,,,,,,,,0,7,7,7,1,last,6,21,Female,R,Donders,2021-07-10_10h01.02.013,ImageRatingTask_S5,2021.1.4,Win32,60.29181237,,,,,,,,,,,,,,,,,
,,,,,,,,,,,,,,,,,,6,21,Female,R,Donders,2021-07-10_10h01.02.013,ImageRatingTask_S5,2021.1.4,Win32,60.29181237,0,66,66,37,1,DreamStudyImages_rs1000x750g/Mammals/Animals_002_v.jpg,,,,,,,,,,,
,,3,1.5967,7,1.1147,7,1.7923,1,1.4005,6,0.8847,0,0,0,0,1,main,6,21,Female,R,Donders,2021-07-10_10h01.02.013,ImageRatingTask_S5,2021.1.4,Win32,60.29181237,,,,,,,,,,,,,,,,,
,,,,,,,,,,,,0,1,1,1,1,second,6,21,Female,R,Donders,2021-07-10_10h01.02.013,ImageRatingTask_S5,2021.1.4,Win32,60.29181237,,,,,,,,,,,,,,,,,
,,,,,,,,,,,,0,2,2,2,1,third,6,21,Female,R,Donders,2021-07-10_10h01.02.013,ImageRatingTask_S5,2021.1.4,Win32,60.29181237,,,,,,,,,,,,,,,,,
,,,,,,,,,,,,0,3,3,3,1,fourth,6,21,Female,R,Donders,2021-07-10_10h01.02.013,ImageRatingTask_S5,2021.1.4,Win32,60.29181237,,,,,,,,,,,,,,,,,
,,,,,,,,,,,,0,4,4,4,1,fifth,6,21,Female,R,Donders,2021-07-10_10h01.02.013,ImageRatingTask_S5,2021.1.4,Win32,60.29181237,,,,,,,,,,,,,,,,,
,,,,,,,,,,,,0,5,5,5,1,sixth,6,21,Female,R,Donders,2021-07-10_10h01.02.013,ImageRatingTask_S5,2021.1.4,Win32,60.29181237,,,,,,,,,,,,,,,,,
,,,,,,,,,,,,0,6,6,6,1,seventh,6,21,Female,R,Donders,2021-07-10_10h01.02.013,ImageRatingTask_S5,2021.1.4,Win32,60.29181237,,,,,,,,,,,,,,,,,
,,,,,,,,,,,,0,7,7,7,1,last,6,21,Female,R,Donders,2021-07-10_10h01.02.013,ImageRatingTask_S5,2021.1.4,Win32,60.29181237,,,,,,,,,,,,,,,,,
,,,,,,,,,,,,,,,,,,6,21,Female,R,Donders,2021-07-10_10h01.02.013,ImageRatingTask_S5,2021.1.4,Win32,60.29181237,0,67,67,89,1,DreamStudyImages_rs1000x750g/Houses/Landscapes_058_h_CROPPED.jpg,,,,,,,,,,,
,,5,2.0212,2,1.1975,1,2.0962,2,2.9433,8,1.6458,0,0,0,0,1,main,6,21,Female,R,Donders,2021-07-10_10h01.02.013,ImageRatingTask_S5,2021.1.4,Win32,60.29181237,,,,,,,,,,,,,,,,,
,,,,,,,,,,7,2.0674,0,1,1,1,1,second,6,21,Female,R,Donders,2021-07-10_10h01.02.013,ImageRatingTask_S5,2021.1.4,Win32,60.29181237,,,,,,,,,,,,,,,,,
,,,,,,,,,,,,0,2,2,2,1,third,6,21,Female,R,Donders,2021-07-10_10h01.02.013,ImageRatingTask_S5,2021.1.4,Win32,60.29181237,,,,,,,,,,,,,,,,,
,,,,,,,,,,,,0,3,3,3,1,fourth,6,21,Female,R,Donders,2021-07-10_10h01.02.013,ImageRatingTask_S5,2021.1.4,Win32,60.29181237,,,,,,,,,,,,,,,,,
,,,,,,,,,,,,0,4,4,4,1,fifth,6,21,Female,R,Donders,2021-07-10_10h01.02.013,ImageRatingTask_S5,2021.1.4,Win32,60.29181237,,,,,,,,,,,,,,,,,
,,,,,,,,,,,,0,5,5,5,1,sixth,6,21,Female,R,Donders,2021-07-10_10h01.02.013,ImageRatingTask_S5,2021.1.4,Win32,60.29181237,,,,,,,,,,,,,,,,,
,,,,,,,,,,,,0,6,6,6,1,seventh,6,21,Female,R,Donders,2021-07-10_10h01.02.013,ImageRatingTask_S5,2021.1.4,Win32,60.29181237,,,,,,,,,,,,,,,,,
,,,,,,,,,,,,0,7,7,7,1,last,6,21,Female,R,Donders,2021-07-10_10h01.02.013,ImageRatingTask_S5,2021.1.4,Win32,60.29181237,,,,,,,,,,,,,,,,,
,,,,,,,,,,,,,,,,,,6,21,Female,R,Donders,2021-07-10_10h01.02.013,ImageRatingTask_S5,2021.1.4,Win32,60.29181237,0,68,68,60,1,DreamStudyImages_rs1000x750g/Water/IAPS7036_harbour_CROPPED.jpg,,,,,,,,,,,
,,7,1.6362,2,7.4262,5,3.3065,1,3.3934,8,0.8731,0,0,0,0,1,main,6,21,Female,R,Donders,2021-07-10_10h01.02.013,ImageRatingTask_S5,2021.1.4,Win32,60.29181237,,,,,,,,,,,,,,,,,
,,,,,,,,,,,,0,1,1,1,1,second,6,21,Female,R,Donders,2021-07-10_10h01.02.013,ImageRatingTask_S5,2021.1.4,Win32,60.29181237,,,,,,,,,,,,,,,,,
,,,,,,,,,,,,0,2,2,2,1,third,6,21,Female,R,Donders,2021-07-10_10h01.02.013,ImageRatingTask_S5,2021.1.4,Win32,60.29181237,,,,,,,,,,,,,,,,,
,,,,,,,,,,,,0,3,3,3,1,fourth,6,21,Female,R,Donders,2021-07-10_10h01.02.013,ImageRatingTask_S5,2021.1.4,Win32,60.29181237,,,,,,,,,,,,,,,,,
,,,,,,,,,,,,0,4,4,4,1,fifth,6,21,Female,R,Donders,2021-07-10_10h01.02.013,ImageRatingTask_S5,2021.1.4,Win32,60.29181237,,,,,,,,,,,,,,,,,
,,,,,,,,,,,,0,5,5,5,1,sixth,6,21,Female,R,Donders,2021-07-10_10h01.02.013,ImageRatingTask_S5,2021.1.4,Win32,60.29181237,,,,,,,,,,,,,,,,,
,,,,,,,,,,,,0,6,6,6,1,seventh,6,21,Female,R,Donders,2021-07-10_10h01.02.013,ImageRatingTask_S5,2021.1.4,Win32,60.29181237,,,,,,,,,,,,,,,,,
,,,,,,,,,,,,0,7,7,7,1,last,6,21,Female,R,Donders,2021-07-10_10h01.02.013,ImageRatingTask_S5,2021.1.4,Win32,60.29181237,,,,,,,,,,,,,,,,,
,,,,,,,,,,,,,,,,,,6,21,Female,R,Donders,2021-07-10_10h01.02.013,ImageRatingTask_S5,2021.1.4,Win32,60.29181237,0,69,69,6,1,DreamStudyImages_rs1000x750g/Water/Landscapes_109_h.jpg,,,,,,,,,,,
,,6,4.7026,4,1.3035,7,1.6159,1,0.7491,2,0.1717,0,0,0,0,1,main,6,21,Female,R,Donders,2021-07-10_10h01.02.013,ImageRatingTask_S5,2021.1.4,Win32,60.29181237,,,,,,,,,,,,,,,,,
,,,,,,,,,,,,0,1,1,1,1,second,6,21,Female,R,Donders,2021-07-10_10h01.02.013,ImageRatingTask_S5,2021.1.4,Win32,60.29181237,,,,,,,,,,,,,,,,,
,,,,,,,,,,,,0,2,2,2,1,third,6,21,Female,R,Donders,2021-07-10_10h01.02.013,ImageRatingTask_S5,2021.1.4,Win32,60.29181237,,,,,,,,,,,,,,,,,
,,,,,,,,,,,,0,3,3,3,1,fourth,6,21,Female,R,Donders,2021-07-10_10h01.02.013,ImageRatingTask_S5,2021.1.4,Win32,60.29181237,,,,,,,,,,,,,,,,,
,,,,,,,,,,,,0,4,4,4,1,fifth,6,21,Female,R,Donders,2021-07-10_10h01.02.013,ImageRatingTask_S5,2021.1.4,Win32,60.29181237,,,,,,,,,,,,,,,,,
,,,,,,,,,,,,0,5,5,5,1,sixth,6,21,Female,R,Donders,2021-07-10_10h01.02.013,ImageRatingTask_S5,2021.1.4,Win32,60.29181237,,,,,,,,,,,,,,,,,
,,,,,,,,,,,,0,6,6,6,1,seventh,6,21,Female,R,Donders,2021-07-10_10h01.02.013,ImageRatingTask_S5,2021.1.4,Win32,60.29181237,,,,,,,,,,,,,,,,,
,,,,,,,,,,,,0,7,7,7,1,last,6,21,Female,R,Donders,2021-07-10_10h01.02.013,ImageRatingTask_S5,2021.1.4,Win32,60.29181237,,,,,,,,,,,,,,,,,
,,,,,,,,,,,,,,,,,,6,21,Female,R,Donders,2021-07-10_10h01.02.013,ImageRatingTask_S5,2021.1.4,Win32,60.29181237,0,70,70,41,1,DreamStudyImages_rs1000x750g/Children/IAPS2060_baby7.jpg,,,,,,,,,,,
,,8,1.421,3,2.1053,6,2.0358,1,1.2186,3,0.4185,0,0,0,0,1,main,6,21,Female,R,Donders,2021-07-10_10h01.02.013,ImageRatingTask_S5,2021.1.4,Win32,60.29181237,,,,,,,,,,,,,,,,,
,,,,,,,,,,,,0,1,1,1,1,second,6,21,Female,R,Donders,2021-07-10_10h01.02.013,ImageRatingTask_S5,2021.1.4,Win32,60.29181237,,,,,,,,,,,,,,,,,
,,,,,,,,,,,,0,2,2,2,1,third,6,21,Female,R,Donders,2021-07-10_10h01.02.013,ImageRatingTask_S5,2021.1.4,Win32,60.29181237,,,,,,,,,,,,,,,,,
,,,,,,,,,,,,0,3,3,3,1,fourth,6,21,Female,R,Donders,2021-07-10_10h01.02.013,ImageRatingTask_S5,2021.1.4,Win32,60.29181237,,,,,,,,,,,,,,,,,
,,,,,,,,,,,,0,4,4,4,1,fifth,6,21,Female,R,Donders,2021-07-10_10h01.02.013,ImageRatingTask_S5,2021.1.4,Win32,60.29181237,,,,,,,,,,,,,,,,,
,,,,,,,,,,,,0,5,5,5,1,sixth,6,21,Female,R,Donders,2021-07-10_10h01.02.013,ImageRatingTask_S5,2021.1.4,Win32,60.29181237,,,,,,,,,,,,,,,,,
,,,,,,,,,,,,0,6,6,6,1,seventh,6,21,Female,R,Donders,2021-07-10_10h01.02.013,ImageRatingTask_S5,2021.1.4,Win32,60.29181237,,,,,,,,,,,,,,,,,
,,,,,,,,,,,,0,7,7,7,1,last,6,21,Female,R,Donders,2021-07-10_10h01.02.013,ImageRatingTask_S5,2021.1.4,Win32,60.29181237,,,,,,,,,,,,,,,,,
,,,,,,,,,,,,,,,,,,6,21,Female,R,Donders,2021-07-10_10h01.02.013,ImageRatingTask_S5,2021.1.4,Win32,60.29181237,0,71,71,30,1,DreamStudyImages_rs1000x750g/Mammals/Goat 1.jpg,,,,,,,,,,,
,,6,2.9086,5,1.7604,5,2.0547,1,0.7508,8,0.7244,0,0,0,0,1,main,6,21,Female,R,Donders,2021-07-10_10h01.02.013,ImageRatingTask_S5,2021.1.4,Win32,60.29181237,,,,,,,,,,,,,,,,,
,,,,,,,,,,,,0,1,1,1,1,second,6,21,Female,R,Donders,2021-07-10_10h01.02.013,ImageRatingTask_S5,2021.1.4,Win32,60.29181237,,,,,,,,,,,,,,,,,
,,,,,,,,,,,,0,2,2,2,1,third,6,21,Female,R,Donders,2021-07-10_10h01.02.013,ImageRatingTask_S5,2021.1.4,Win32,60.29181237,,,,,,,,,,,,,,,,,
,,,,,,,,,,,,0,3,3,3,1,fourth,6,21,Female,R,Donders,2021-07-10_10h01.02.013,ImageRatingTask_S5,2021.1.4,Win32,60.29181237,,,,,,,,,,,,,,,,,
,,,,,,,,,,,,0,4,4,4,1,fifth,6,21,Female,R,Donders,2021-07-10_10h01.02.013,ImageRatingTask_S5,2021.1.4,Win32,60.29181237,,,,,,,,,,,,,,,,,
,,,,,,,,,,,,0,5,5,5,1,sixth,6,21,Female,R,Donders,2021-07-10_10h01.02.013,ImageRatingTask_S5,2021.1.4,Win32,60.29181237,,,,,,,,,,,,,,,,,
,,,,,,,,,,,,0,6,6,6,1,seventh,6,21,Female,R,Donders,2021-07-10_10h01.02.013,ImageRatingTask_S5,2021.1.4,Win32,60.29181237,,,,,,,,,,,,,,,,,
,,,,,,,,,,,,0,7,7,7,1,last,6,21,Female,R,Donders,2021-07-10_10h01.02.013,ImageRatingTask_S5,2021.1.4,Win32,60.29181237,,,,,,,,,,,,,,,,,
,,,,,,,,,,,,,,,,,,6,21,Female,R,Donders,2021-07-10_10h01.02.013,ImageRatingTask_S5,2021.1.4,Win32,60.29181237,0,72,72,139,1,DreamStudyImages_rs1000x750g/Water/97.jpg,,,,,,,,,,,
,,6,3.9488,3,3.235,8,1.5473,1,1.381,2,0.3263,0,0,0,0,1,main,6,21,Female,R,Donders,2021-07-10_10h01.02.013,ImageRatingTask_S5,2021.1.4,Win32,60.29181237,,,,,,,,,,,,,,,,,
,,,,,,,,,,,,0,1,1,1,1,second,6,21,Female,R,Donders,2021-07-10_10h01.02.013,ImageRatingTask_S5,2021.1.4,Win32,60.29181237,,,,,,,,,,,,,,,,,
,,,,,,,,,,,,0,2,2,2,1,third,6,21,Female,R,Donders,2021-07-10_10h01.02.013,ImageRatingTask_S5,2021.1.4,Win32,60.29181237,,,,,,,,,,,,,,,,,
,,,,,,,,,,,,0,3,3,3,1,fourth,6,21,Female,R,Donders,2021-07-10_10h01.02.013,ImageRatingTask_S5,2021.1.4,Win32,60.29181237,,,,,,,,,,,,,,,,,
,,,,,,,,,,,,0,4,4,4,1,fifth,6,21,Female,R,Donders,2021-07-10_10h01.02.013,ImageRatingTask_S5,2021.1.4,Win32,60.29181237,,,,,,,,,,,,,,,,,
,,,,,,,,,,,,0,5,5,5,1,sixth,6,21,Female,R,Donders,2021-07-10_10h01.02.013,ImageRatingTask_S5,2021.1.4,Win32,60.29181237,,,,,,,,,,,,,,,,,
,,,,,,,,,,,,0,6,6,6,1,seventh,6,21,Female,R,Donders,2021-07-10_10h01.02.013,ImageRatingTask_S5,2021.1.4,Win32,60.29181237,,,,,,,,,,,,,,,,,
,,,,,,,,,,,,0,7,7,7,1,last,6,21,Female,R,Donders,2021-07-10_10h01.02.013,ImageRatingTask_S5,2021.1.4,Win32,60.29181237,,,,,,,,,,,,,,,,,
,,,,,,,,,,,,,,,,,,6,21,Female,R,Donders,2021-07-10_10h01.02.013,ImageRatingTask_S5,2021.1.4,Win32,60.29181237,0,73,73,3,1,DreamStudyImages_rs1000x750g/Children/Faces_102_h.jpg,,,,,,,,,,,
,,5,2.4413,3,1.8728,8,1.9165,1,0.7435,6,1.0707,0,0,0,0,1,main,6,21,Female,R,Donders,2021-07-10_10h01.02.013,ImageRatingTask_S5,2021.1.4,Win32,60.29181237,,,,,,,,,,,,,,,,,
,,,,,,,,,,,,0,1,1,1,1,second,6,21,Female,R,Donders,2021-07-10_10h01.02.013,ImageRatingTask_S5,2021.1.4,Win32,60.29181237,,,,,,,,,,,,,,,,,
,,,,,,,,,,,,0,2,2,2,1,third,6,21,Female,R,Donders,2021-07-10_10h01.02.013,ImageRatingTask_S5,2021.1.4,Win32,60.29181237,,,,,,,,,,,,,,,,,
,,,,,,,,,,,,0,3,3,3,1,fourth,6,21,Female,R,Donders,2021-07-10_10h01.02.013,ImageRatingTask_S5,2021.1.4,Win32,60.29181237,,,,,,,,,,,,,,,,,
,,,,,,,,,,,,0,4,4,4,1,fifth,6,21,Female,R,Donders,2021-07-10_10h01.02.013,ImageRatingTask_S5,2021.1.4,Win32,60.29181237,,,,,,,,,,,,,,,,,
,,,,,,,,,,,,0,5,5,5,1,sixth,6,21,Female,R,Donders,2021-07-10_10h01.02.013,ImageRatingTask_S5,2021.1.4,Win32,60.29181237,,,,,,,,,,,,,,,,,
,,,,,,,,,,,,0,6,6,6,1,seventh,6,21,Female,R,Donders,2021-07-10_10h01.02.013,ImageRatingTask_S5,2021.1.4,Win32,60.29181237,,,,,,,,,,,,,,,,,
,,,,,,,,,,,,0,7,7,7,1,last,6,21,Female,R,Donders,2021-07-10_10h01.02.013,ImageRatingTask_S5,2021.1.4,Win32,60.29181237,,,,,,,,,,,,,,,,,
,,,,,,,,,,,,,,,,,,6,21,Female,R,Donders,2021-07-10_10h01.02.013,ImageRatingTask_S5,2021.1.4,Win32,60.29181237,0,74,74,69,1,DreamStudyImages_rs1000x750g/Houses/abandonedhouse2.jpg,,,,,,,,,,,
,,3,3.5562,7,1.819,6,2.4522,1,1.7462,5,1.291,0,0,0,0,1,main,6,21,Female,R,Donders,2021-07-10_10h01.02.013,ImageRatingTask_S5,2021.1.4,Win32,60.29181237,,,,,,,,,,,,,,,,,
