slider_pre.response,slider_pre.rt,key_val.keys,key_val.rt,key_aro.keys,key_aro.rt,key_qual.keys,key_qual.rt,key_ncat.keys,key_ncat.rt,key_cats.keys,key_cats.rt,ncat_order.thisRepN,ncat_order.thisTrialN,ncat_order.thisN,ncat_order.thisIndex,ncat_order.ran,cond_cat,participant,age,gender,handedness (L/R),site (IMT/Donders),date,expName,psychopyVersion,OS,frameRate,img_trials.thisRepN,img_trials.thisTrialN,img_trials.thisN,img_trials.thisIndex,img_trials.ran,filename,slider_post.response,slider_post.rt,textbox_openfb.text
7,4.9857,6,3.1173,1,2.1078,4,2.2588,1,2.5962,2,0.9788,0,0,0,0,1,main,6,21,Female,R,Donders,2021-07-07_08h54.21.138,ImageRatingTask_S2,2021.1.4,Win32,60.02400962,,,,,,,,,
,,,,,,,,,,,,0,1,1,1,1,second,6,21,Female,R,Donders,2021-07-07_08h54.21.138,ImageRatingTask_S2,2021.1.4,Win32,60.02400962,,,,,,,,,
,,,,,,,,,,,,0,2,2,2,1,third,6,21,Female,R,Donders,2021-07-07_08h54.21.138,ImageRatingTask_S2,2021.1.4,Win32,60.02400962,,,,,,,,,
,,,,,,,,,,,,0,3,3,3,1,fourth,6,21,Female,R,Donders,2021-07-07_08h54.21.138,ImageRatingTask_S2,2021.1.4,Win32,60.02400962,,,,,,,,,
,,,,,,,,,,,,0,4,4,4,1,fifth,6,21,Female,R,Donders,2021-07-07_08h54.21.138,ImageRatingTask_S2,2021.1.4,Win32,60.02400962,,,,,,,,,
,,,,,,,,,,,,0,5,5,5,1,sixth,6,21,Female,R,Donders,2021-07-07_08h54.21.138,ImageRatingTask_S2,2021.1.4,Win32,60.02400962,,,,,,,,,
,,,,,,,,,,,,0,6,6,6,1,seventh,6,21,Female,R,Donders,2021-07-07_08h54.21.138,ImageRatingTask_S2,2021.1.4,Win32,60.02400962,,,,,,,,,
,,,,,,,,,,,,0,7,7,7,1,last,6,21,Female,R,Donders,2021-07-07_08h54.21.138,ImageRatingTask_S2,2021.1.4,Win32,60.02400962,,,,,,,,,
,,,,,,,,,,,,,,,,,,6,21,Female,R,Donders,2021-07-07_08h54.21.138,ImageRatingTask_S2,2021.1.4,Win32,60.02400962,0,0,0,22,1,DreamStudyImages_rs1000x750g/Children/Child labor 3.jpg,,,
,,2,4.2974,6,1.8276,7,5.3024,1,1.315,3,0.882,0,0,0,0,1,main,6,21,Female,R,Donders,2021-07-07_08h54.21.138,ImageRatingTask_S2,2021.1.4,Win32,60.02400962,,,,,,,,,
,,,,,,,,,,,,0,1,1,1,1,second,6,21,Female,R,Donders,2021-07-07_08h54.21.138,ImageRatingTask_S2,2021.1.4,Win32,60.02400962,,,,,,,,,
,,,,,,,,,,,,0,2,2,2,1,third,6,21,Female,R,Donders,2021-07-07_08h54.21.138,ImageRatingTask_S2,2021.1.4,Win32,60.02400962,,,,,,,,,
,,,,,,,,,,,,0,3,3,3,1,fourth,6,21,Female,R,Donders,2021-07-07_08h54.21.138,ImageRatingTask_S2,2021.1.4,Win32,60.02400962,,,,,,,,,
,,,,,,,,,,,,0,4,4,4,1,fifth,6,21,Female,R,Donders,2021-07-07_08h54.21.138,ImageRatingTask_S2,2021.1.4,Win32,60.02400962,,,,,,,,,
,,,,,,,,,,,,0,5,5,5,1,sixth,6,21,Female,R,Donders,2021-07-07_08h54.21.138,ImageRatingTask_S2,2021.1.4,Win32,60.02400962,,,,,,,,,
,,,,,,,,,,,,0,6,6,6,1,seventh,6,21,Female,R,Donders,2021-07-07_08h54.21.138,ImageRatingTask_S2,2021.1.4,Win32,60.02400962,,,,,,,,,
,,,,,,,,,,,,0,7,7,7,1,last,6,21,Female,R,Donders,2021-07-07_08h54.21.138,ImageRatingTask_S2,2021.1.4,Win32,60.02400962,,,,,,,,,
,,,,,,,,,,,,,,,,,,6,21,Female,R,Donders,2021-07-07_08h54.21.138,ImageRatingTask_S2,2021.1.4,Win32,60.02400962,0,1,1,95,1,DreamStudyImages_rs1000x750g/Mammals/Animals_078_h.jpg,,,
,,8,8.9109,7,1.9802,7,9.8365,1,1.2807,3,0.7712,0,0,0,0,1,main,6,21,Female,R,Donders,2021-07-07_08h54.21.138,ImageRatingTask_S2,2021.1.4,Win32,60.02400962,,,,,,,,,
,,,,,,,,,,,,0,1,1,1,1,second,6,21,Female,R,Donders,2021-07-07_08h54.21.138,ImageRatingTask_S2,2021.1.4,Win32,60.02400962,,,,,,,,,
,,,,,,,,,,,,0,2,2,2,1,third,6,21,Female,R,Donders,2021-07-07_08h54.21.138,ImageRatingTask_S2,2021.1.4,Win32,60.02400962,,,,,,,,,
,,,,,,,,,,,,0,3,3,3,1,fourth,6,21,Female,R,Donders,2021-07-07_08h54.21.138,ImageRatingTask_S2,2021.1.4,Win32,60.02400962,,,,,,,,,
,,,,,,,,,,,,0,4,4,4,1,fifth,6,21,Female,R,Donders,2021-07-07_08h54.21.138,ImageRatingTask_S2,2021.1.4,Win32,60.02400962,,,,,,,,,
,,,,,,,,,,,,0,5,5,5,1,sixth,6,21,Female,R,Donders,2021-07-07_08h54.21.138,ImageRatingTask_S2,2021.1.4,Win32,60.02400962,,,,,,,,,
,,,,,,,,,,,,0,6,6,6,1,seventh,6,21,Female,R,Donders,2021-07-07_08h54.21.138,ImageRatingTask_S2,2021.1.4,Win32,60.02400962,,,,,,,,,
,,,,,,,,,,,,0,7,7,7,1,last,6,21,Female,R,Donders,2021-07-07_08h54.21.138,ImageRatingTask_S2,2021.1.4,Win32,60.02400962,,,,,,,,,
,,,,,,,,,,,,,,,,,,6,21,Female,R,Donders,2021-07-07_08h54.21.138,ImageRatingTask_S2,2021.1.4,Win32,60.02400962,0,2,2,25,1,DreamStudyImages_rs1000x750g/Mammals/Wolf 2.jpg,,,
,,5,16.3336,1,3.6475,6,2.0172,0,2.5236,,,0,0,0,0,1,main,6,21,Female,R,Donders,2021-07-07_08h54.21.138,ImageRatingTask_S2,2021.1.4,Win32,60.02400962,,,,,,,,,
,,,,,,,,,,,,0,1,1,1,1,second,6,21,Female,R,Donders,2021-07-07_08h54.21.138,ImageRatingTask_S2,2021.1.4,Win32,60.02400962,,,,,,,,,
,,,,,,,,,,,,0,2,2,2,1,third,6,21,Female,R,Donders,2021-07-07_08h54.21.138,ImageRatingTask_S2,2021.1.4,Win32,60.02400962,,,,,,,,,
,,,,,,,,,,,,0,3,3,3,1,fourth,6,21,Female,R,Donders,2021-07-07_08h54.21.138,ImageRatingTask_S2,2021.1.4,Win32,60.02400962,,,,,,,,,
,,,,,,,,,,,,0,4,4,4,1,fifth,6,21,Female,R,Donders,2021-07-07_08h54.21.138,ImageRatingTask_S2,2021.1.4,Win32,60.02400962,,,,,,,,,
,,,,,,,,,,,,0,5,5,5,1,sixth,6,21,Female,R,Donders,2021-07-07_08h54.21.138,ImageRatingTask_S2,2021.1.4,Win32,60.02400962,,,,,,,,,
,,,,,,,,,,,,0,6,6,6,1,seventh,6,21,Female,R,Donders,2021-07-07_08h54.21.138,ImageRatingTask_S2,2021.1.4,Win32,60.02400962,,,,,,,,,
,,,,,,,,,,,,0,7,7,7,1,last,6,21,Female,R,Donders,2021-07-07_08h54.21.138,ImageRatingTask_S2,2021.1.4,Win32,60.02400962,,,,,,,,,
,,,,,,,,,,,,,,,,,,6,21,Female,R,Donders,2021-07-07_08h54.21.138,ImageRatingTask_S2,2021.1.4,Win32,60.02400962,0,3,3,89,1,DreamStudyImages_rs1000x750g/Houses/Objects_180_v.jpg,,,
,,5,14.1191,1,1.8168,7,2.2513,1,0.9386,7,0.8133,0,0,0,0,1,main,6,21,Female,R,Donders,2021-07-07_08h54.21.138,ImageRatingTask_S2,2021.1.4,Win32,60.02400962,,,,,,,,,
,,,,,,,,,,,,0,1,1,1,1,second,6,21,Female,R,Donders,2021-07-07_08h54.21.138,ImageRatingTask_S2,2021.1.4,Win32,60.02400962,,,,,,,,,
,,,,,,,,,,,,0,2,2,2,1,third,6,21,Female,R,Donders,2021-07-07_08h54.21.138,ImageRatingTask_S2,2021.1.4,Win32,60.02400962,,,,,,,,,
,,,,,,,,,,,,0,3,3,3,1,fourth,6,21,Female,R,Donders,2021-07-07_08h54.21.138,ImageRatingTask_S2,2021.1.4,Win32,60.02400962,,,,,,,,,
,,,,,,,,,,,,0,4,4,4,1,fifth,6,21,Female,R,Donders,2021-07-07_08h54.21.138,ImageRatingTask_S2,2021.1.4,Win32,60.02400962,,,,,,,,,
,,,,,,,,,,,,0,5,5,5,1,sixth,6,21,Female,R,Donders,2021-07-07_08h54.21.138,ImageRatingTask_S2,2021.1.4,Win32,60.02400962,,,,,,,,,
,,,,,,,,,,,,0,6,6,6,1,seventh,6,21,Female,R,Donders,2021-07-07_08h54.21.138,ImageRatingTask_S2,2021.1.4,Win32,60.02400962,,,,,,,,,
,,,,,,,,,,,,0,7,7,7,1,last,6,21,Female,R,Donders,2021-07-07_08h54.21.138,ImageRatingTask_S2,2021.1.4,Win32,60.02400962,,,,,,,,,
,,,,,,,,,,,,,,,,,,6,21,Female,R,Donders,2021-07-07_08h54.21.138,ImageRatingTask_S2,2021.1.4,Win32,60.02400962,0,4,4,17,1,DreamStudyImages_rs1000x750g/Vehicles/Objects_311_h.jpg,,,
,,2,4.4426,7,1.516,3,2.8529,1,2.7514,2,0.7467,0,0,0,0,1,main,6,21,Female,R,Donders,2021-07-07_08h54.21.138,ImageRatingTask_S2,2021.1.4,Win32,60.02400962,,,,,,,,,
,,,,,,,,,,,,0,1,1,1,1,second,6,21,Female,R,Donders,2021-07-07_08h54.21.138,ImageRatingTask_S2,2021.1.4,Win32,60.02400962,,,,,,,,,
,,,,,,,,,,,,0,2,2,2,1,third,6,21,Female,R,Donders,2021-07-07_08h54.21.138,ImageRatingTask_S2,2021.1.4,Win32,60.02400962,,,,,,,,,
,,,,,,,,,,,,0,3,3,3,1,fourth,6,21,Female,R,Donders,2021-07-07_08h54.21.138,ImageRatingTask_S2,2021.1.4,Win32,60.02400962,,,,,,,,,
,,,,,,,,,,,,0,4,4,4,1,fifth,6,21,Female,R,Donders,2021-07-07_08h54.21.138,ImageRatingTask_S2,2021.1.4,Win32,60.02400962,,,,,,,,,
,,,,,,,,,,,,0,5,5,5,1,sixth,6,21,Female,R,Donders,2021-07-07_08h54.21.138,ImageRatingTask_S2,2021.1.4,Win32,60.02400962,,,,,,,,,
,,,,,,,,,,,,0,6,6,6,1,seventh,6,21,Female,R,Donders,2021-07-07_08h54.21.138,ImageRatingTask_S2,2021.1.4,Win32,60.02400962,,,,,,,,,
,,,,,,,,,,,,0,7,7,7,1,last,6,21,Female,R,Donders,2021-07-07_08h54.21.138,ImageRatingTask_S2,2021.1.4,Win32,60.02400962,,,,,,,,,
,,,,,,,,,,,,,,,,,,6,21,Female,R,Donders,2021-07-07_08h54.21.138,ImageRatingTask_S2,2021.1.4,Win32,60.02400962,0,5,5,42,1,DreamStudyImages_rs1000x750g/Children/War 1.jpg,,,
,,5,6.2381,1,1.3183,7,1.6991,1,0.9757,7,0.8513,0,0,0,0,1,main,6,21,Female,R,Donders,2021-07-07_08h54.21.138,ImageRatingTask_S2,2021.1.4,Win32,60.02400962,,,,,,,,,
,,,,,,,,,,,,0,1,1,1,1,second,6,21,Female,R,Donders,2021-07-07_08h54.21.138,ImageRatingTask_S2,2021.1.4,Win32,60.02400962,,,,,,,,,
,,,,,,,,,,,,0,2,2,2,1,third,6,21,Female,R,Donders,2021-07-07_08h54.21.138,ImageRatingTask_S2,2021.1.4,Win32,60.02400962,,,,,,,,,
,,,,,,,,,,,,0,3,3,3,1,fourth,6,21,Female,R,Donders,2021-07-07_08h54.21.138,ImageRatingTask_S2,2021.1.4,Win32,60.02400962,,,,,,,,,
,,,,,,,,,,,,0,4,4,4,1,fifth,6,21,Female,R,Donders,2021-07-07_08h54.21.138,ImageRatingTask_S2,2021.1.4,Win32,60.02400962,,,,,,,,,
,,,,,,,,,,,,0,5,5,5,1,sixth,6,21,Female,R,Donders,2021-07-07_08h54.21.138,ImageRatingTask_S2,2021.1.4,Win32,60.02400962,,,,,,,,,
,,,,,,,,,,,,0,6,6,6,1,seventh,6,21,Female,R,Donders,2021-07-07_08h54.21.138,ImageRatingTask_S2,2021.1.4,Win32,60.02400962,,,,,,,,,
,,,,,,,,,,,,0,7,7,7,1,last,6,21,Female,R,Donders,2021-07-07_08h54.21.138,ImageRatingTask_S2,2021.1.4,Win32,60.02400962,,,,,,,,,
,,,,,,,,,,,,,,,,,,6,21,Female,R,Donders,2021-07-07_08h54.21.138,ImageRatingTask_S2,2021.1.4,Win32,60.02400962,0,6,6,66,1,DreamStudyImages_rs1000x750g/Vehicles/vanfleet.jpg,,,
,,5,8.1356,1,1.1362,5,2.5213,0,1.4782,,,0,0,0,0,1,main,6,21,Female,R,Donders,2021-07-07_08h54.21.138,ImageRatingTask_S2,2021.1.4,Win32,60.02400962,,,,,,,,,
,,,,,,,,,,,,0,1,1,1,1,second,6,21,Female,R,Donders,2021-07-07_08h54.21.138,ImageRatingTask_S2,2021.1.4,Win32,60.02400962,,,,,,,,,
,,,,,,,,,,,,0,2,2,2,1,third,6,21,Female,R,Donders,2021-07-07_08h54.21.138,ImageRatingTask_S2,2021.1.4,Win32,60.02400962,,,,,,,,,
,,,,,,,,,,,,0,3,3,3,1,fourth,6,21,Female,R,Donders,2021-07-07_08h54.21.138,ImageRatingTask_S2,2021.1.4,Win32,60.02400962,,,,,,,,,
,,,,,,,,,,,,0,4,4,4,1,fifth,6,21,Female,R,Donders,2021-07-07_08h54.21.138,ImageRatingTask_S2,2021.1.4,Win32,60.02400962,,,,,,,,,
,,,,,,,,,,,,0,5,5,5,1,sixth,6,21,Female,R,Donders,2021-07-07_08h54.21.138,ImageRatingTask_S2,2021.1.4,Win32,60.02400962,,,,,,,,,
,,,,,,,,,,,,0,6,6,6,1,seventh,6,21,Female,R,Donders,2021-07-07_08h54.21.138,ImageRatingTask_S2,2021.1.4,Win32,60.02400962,,,,,,,,,
,,,,,,,,,,,,0,7,7,7,1,last,6,21,Female,R,Donders,2021-07-07_08h54.21.138,ImageRatingTask_S2,2021.1.4,Win32,60.02400962,,,,,,,,,
,,,,,,,,,,,,,,,,,,6,21,Female,R,Donders,2021-07-07_08h54.21.138,ImageRatingTask_S2,2021.1.4,Win32,60.02400962,0,7,7,105,1,DreamStudyImages_rs1000x750g/Houses/Landscapes_013_v.jpg,,,
,,6,16.6387,2,1.385,6,3.1278,1,1.1017,5,1.5387,0,0,0,0,1,main,6,21,Female,R,Donders,2021-07-07_08h54.21.138,ImageRatingTask_S2,2021.1.4,Win32,60.02400962,,,,,,,,,
,,,,,,,,,,,,0,1,1,1,1,second,6,21,Female,R,Donders,2021-07-07_08h54.21.138,ImageRatingTask_S2,2021.1.4,Win32,60.02400962,,,,,,,,,
,,,,,,,,,,,,0,2,2,2,1,third,6,21,Female,R,Donders,2021-07-07_08h54.21.138,ImageRatingTask_S2,2021.1.4,Win32,60.02400962,,,,,,,,,
,,,,,,,,,,,,0,3,3,3,1,fourth,6,21,Female,R,Donders,2021-07-07_08h54.21.138,ImageRatingTask_S2,2021.1.4,Win32,60.02400962,,,,,,,,,
,,,,,,,,,,,,0,4,4,4,1,fifth,6,21,Female,R,Donders,2021-07-07_08h54.21.138,ImageRatingTask_S2,2021.1.4,Win32,60.02400962,,,,,,,,,
,,,,,,,,,,,,0,5,5,5,1,sixth,6,21,Female,R,Donders,2021-07-07_08h54.21.138,ImageRatingTask_S2,2021.1.4,Win32,60.02400962,,,,,,,,,
,,,,,,,,,,,,0,6,6,6,1,seventh,6,21,Female,R,Donders,2021-07-07_08h54.21.138,ImageRatingTask_S2,2021.1.4,Win32,60.02400962,,,,,,,,,
,,,,,,,,,,,,0,7,7,7,1,last,6,21,Female,R,Donders,2021-07-07_08h54.21.138,ImageRatingTask_S2,2021.1.4,Win32,60.02400962,,,,,,,,,
,,,,,,,,,,,,,,,,,,6,21,Female,R,Donders,2021-07-07_08h54.21.138,ImageRatingTask_S2,2021.1.4,Win32,60.02400962,0,8,8,139,1,DreamStudyImages_rs1000x750g/Food/Objects_045_h.jpg,,,
,,7,3.6737,2,1.719,7,2.0545,1,9.1847,8,0.9292,0,0,0,0,1,main,6,21,Female,R,Donders,2021-07-07_08h54.21.138,ImageRatingTask_S2,2021.1.4,Win32,60.02400962,,,,,,,,,
,,,,,,,,,,,,0,1,1,1,1,second,6,21,Female,R,Donders,2021-07-07_08h54.21.138,ImageRatingTask_S2,2021.1.4,Win32,60.02400962,,,,,,,,,
,,,,,,,,,,,,0,2,2,2,1,third,6,21,Female,R,Donders,2021-07-07_08h54.21.138,ImageRatingTask_S2,2021.1.4,Win32,60.02400962,,,,,,,,,
,,,,,,,,,,,,0,3,3,3,1,fourth,6,21,Female,R,Donders,2021-07-07_08h54.21.138,ImageRatingTask_S2,2021.1.4,Win32,60.02400962,,,,,,,,,
,,,,,,,,,,,,0,4,4,4,1,fifth,6,21,Female,R,Donders,2021-07-07_08h54.21.138,ImageRatingTask_S2,2021.1.4,Win32,60.02400962,,,,,,,,,
,,,,,,,,,,,,0,5,5,5,1,sixth,6,21,Female,R,Donders,2021-07-07_08h54.21.138,ImageRatingTask_S2,2021.1.4,Win32,60.02400962,,,,,,,,,
,,,,,,,,,,,,0,6,6,6,1,seventh,6,21,Female,R,Donders,2021-07-07_08h54.21.138,ImageRatingTask_S2,2021.1.4,Win32,60.02400962,,,,,,,,,
,,,,,,,,,,,,0,7,7,7,1,last,6,21,Female,R,Donders,2021-07-07_08h54.21.138,ImageRatingTask_S2,2021.1.4,Win32,60.02400962,,,,,,,,,
,,,,,,,,,,,,,,,,,,6,21,Female,R,Donders,2021-07-07_08h54.21.138,ImageRatingTask_S2,2021.1.4,Win32,60.02400962,0,9,9,70,1,DreamStudyImages_rs1000x750g/Water/Landscapes_154_h.jpg,,,
,,6,21.8979,3,1.7062,7,1.8397,1,1.2506,2,0.3187,0,0,0,0,1,main,6,21,Female,R,Donders,2021-07-07_08h54.21.138,ImageRatingTask_S2,2021.1.4,Win32,60.02400962,,,,,,,,,
,,,,,,,,,,,,0,1,1,1,1,second,6,21,Female,R,Donders,2021-07-07_08h54.21.138,ImageRatingTask_S2,2021.1.4,Win32,60.02400962,,,,,,,,,
,,,,,,,,,,,,0,2,2,2,1,third,6,21,Female,R,Donders,2021-07-07_08h54.21.138,ImageRatingTask_S2,2021.1.4,Win32,60.02400962,,,,,,,,,
,,,,,,,,,,,,0,3,3,3,1,fourth,6,21,Female,R,Donders,2021-07-07_08h54.21.138,ImageRatingTask_S2,2021.1.4,Win32,60.02400962,,,,,,,,,
,,,,,,,,,,,,0,4,4,4,1,fifth,6,21,Female,R,Donders,2021-07-07_08h54.21.138,ImageRatingTask_S2,2021.1.4,Win32,60.02400962,,,,,,,,,
,,,,,,,,,,,,0,5,5,5,1,sixth,6,21,Female,R,Donders,2021-07-07_08h54.21.138,ImageRatingTask_S2,2021.1.4,Win32,60.02400962,,,,,,,,,
,,,,,,,,,,,,0,6,6,6,1,seventh,6,21,Female,R,Donders,2021-07-07_08h54.21.138,ImageRatingTask_S2,2021.1.4,Win32,60.02400962,,,,,,,,,
,,,,,,,,,,,,0,7,7,7,1,last,6,21,Female,R,Donders,2021-07-07_08h54.21.138,ImageRatingTask_S2,2021.1.4,Win32,60.02400962,,,,,,,,,
,,,,,,,,,,,,,,,,,,6,21,Female,R,Donders,2021-07-07_08h54.21.138,ImageRatingTask_S2,2021.1.4,Win32,60.02400962,0,10,10,120,1,DreamStudyImages_rs1000x750g/Children/Faces_116_h.jpg,,,
,,8,34.3485,3,1.3561,5,3.1649,1,1.2337,5,0.9057,0,0,0,0,1,main,6,21,Female,R,Donders,2021-07-07_08h54.21.138,ImageRatingTask_S2,2021.1.4,Win32,60.02400962,,,,,,,,,
,,,,,,,,,,,,0,1,1,1,1,second,6,21,Female,R,Donders,2021-07-07_08h54.21.138,ImageRatingTask_S2,2021.1.4,Win32,60.02400962,,,,,,,,,
,,,,,,,,,,,,0,2,2,2,1,third,6,21,Female,R,Donders,2021-07-07_08h54.21.138,ImageRatingTask_S2,2021.1.4,Win32,60.02400962,,,,,,,,,
,,,,,,,,,,,,0,3,3,3,1,fourth,6,21,Female,R,Donders,2021-07-07_08h54.21.138,ImageRatingTask_S2,2021.1.4,Win32,60.02400962,,,,,,,,,
,,,,,,,,,,,,0,4,4,4,1,fifth,6,21,Female,R,Donders,2021-07-07_08h54.21.138,ImageRatingTask_S2,2021.1.4,Win32,60.02400962,,,,,,,,,
,,,,,,,,,,,,0,5,5,5,1,sixth,6,21,Female,R,Donders,2021-07-07_08h54.21.138,ImageRatingTask_S2,2021.1.4,Win32,60.02400962,,,,,,,,,
,,,,,,,,,,,,0,6,6,6,1,seventh,6,21,Female,R,Donders,2021-07-07_08h54.21.138,ImageRatingTask_S2,2021.1.4,Win32,60.02400962,,,,,,,,,
,,,,,,,,,,,,0,7,7,7,1,last,6,21,Female,R,Donders,2021-07-07_08h54.21.138,ImageRatingTask_S2,2021.1.4,Win32,60.02400962,,,,,,,,,
,,,,,,,,,,,,,,,,,,6,21,Female,R,Donders,2021-07-07_08h54.21.138,ImageRatingTask_S2,2021.1.4,Win32,60.02400962,0,11,11,126,1,DreamStudyImages_rs1000x750g/Food/Dessert 6.jpg,,,
,,7,12.5161,2,1.2349,6,1.5029,1,1.0111,3,0.8018,0,0,0,0,1,main,6,21,Female,R,Donders,2021-07-07_08h54.21.138,ImageRatingTask_S2,2021.1.4,Win32,60.02400962,,,,,,,,,
,,,,,,,,,,,,0,1,1,1,1,second,6,21,Female,R,Donders,2021-07-07_08h54.21.138,ImageRatingTask_S2,2021.1.4,Win32,60.02400962,,,,,,,,,
,,,,,,,,,,,,0,2,2,2,1,third,6,21,Female,R,Donders,2021-07-07_08h54.21.138,ImageRatingTask_S2,2021.1.4,Win32,60.02400962,,,,,,,,,
,,,,,,,,,,,,0,3,3,3,1,fourth,6,21,Female,R,Donders,2021-07-07_08h54.21.138,ImageRatingTask_S2,2021.1.4,Win32,60.02400962,,,,,,,,,
,,,,,,,,,,,,0,4,4,4,1,fifth,6,21,Female,R,Donders,2021-07-07_08h54.21.138,ImageRatingTask_S2,2021.1.4,Win32,60.02400962,,,,,,,,,
,,,,,,,,,,,,0,5,5,5,1,sixth,6,21,Female,R,Donders,2021-07-07_08h54.21.138,ImageRatingTask_S2,2021.1.4,Win32,60.02400962,,,,,,,,,
,,,,,,,,,,,,0,6,6,6,1,seventh,6,21,Female,R,Donders,2021-07-07_08h54.21.138,ImageRatingTask_S2,2021.1.4,Win32,60.02400962,,,,,,,,,
,,,,,,,,,,,,0,7,7,7,1,last,6,21,Female,R,Donders,2021-07-07_08h54.21.138,ImageRatingTask_S2,2021.1.4,Win32,60.02400962,,,,,,,,,
,,,,,,,,,,,,,,,,,,6,21,Female,R,Donders,2021-07-07_08h54.21.138,ImageRatingTask_S2,2021.1.4,Win32,60.02400962,0,12,12,79,1,DreamStudyImages_rs1000x750g/Mammals/Orangutan 1.jpg,,,
,,7,98.4927,1,1.543,6,1.8805,1,0.9612,8,0.9068,0,0,0,0,1,main,6,21,Female,R,Donders,2021-07-07_08h54.21.138,ImageRatingTask_S2,2021.1.4,Win32,60.02400962,,,,,,,,,
,,,,,,,,,,,,0,1,1,1,1,second,6,21,Female,R,Donders,2021-07-07_08h54.21.138,ImageRatingTask_S2,2021.1.4,Win32,60.02400962,,,,,,,,,
,,,,,,,,,,,,0,2,2,2,1,third,6,21,Female,R,Donders,2021-07-07_08h54.21.138,ImageRatingTask_S2,2021.1.4,Win32,60.02400962,,,,,,,,,
,,,,,,,,,,,,0,3,3,3,1,fourth,6,21,Female,R,Donders,2021-07-07_08h54.21.138,ImageRatingTask_S2,2021.1.4,Win32,60.02400962,,,,,,,,,
,,,,,,,,,,,,0,4,4,4,1,fifth,6,21,Female,R,Donders,2021-07-07_08h54.21.138,ImageRatingTask_S2,2021.1.4,Win32,60.02400962,,,,,,,,,
,,,,,,,,,,,,0,5,5,5,1,sixth,6,21,Female,R,Donders,2021-07-07_08h54.21.138,ImageRatingTask_S2,2021.1.4,Win32,60.02400962,,,,,,,,,
,,,,,,,,,,,,0,6,6,6,1,seventh,6,21,Female,R,Donders,2021-07-07_08h54.21.138,ImageRatingTask_S2,2021.1.4,Win32,60.02400962,,,,,,,,,
,,,,,,,,,,,,0,7,7,7,1,last,6,21,Female,R,Donders,2021-07-07_08h54.21.138,ImageRatingTask_S2,2021.1.4,Win32,60.02400962,,,,,,,,,
,,,,,,,,,,,,,,,,,,6,21,Female,R,Donders,2021-07-07_08h54.21.138,ImageRatingTask_S2,2021.1.4,Win32,60.02400962,0,13,13,135,1,DreamStudyImages_rs1000x750g/Water/Landscapes_145_h.jpg,,,
,,7,9.5394,3,1.2399,7,1.7469,1,1.1686,5,0.9791,0,0,0,0,1,main,6,21,Female,R,Donders,2021-07-07_08h54.21.138,ImageRatingTask_S2,2021.1.4,Win32,60.02400962,,,,,,,,,
,,,,,,,,,,,,0,1,1,1,1,second,6,21,Female,R,Donders,2021-07-07_08h54.21.138,ImageRatingTask_S2,2021.1.4,Win32,60.02400962,,,,,,,,,
,,,,,,,,,,,,0,2,2,2,1,third,6,21,Female,R,Donders,2021-07-07_08h54.21.138,ImageRatingTask_S2,2021.1.4,Win32,60.02400962,,,,,,,,,
,,,,,,,,,,,,0,3,3,3,1,fourth,6,21,Female,R,Donders,2021-07-07_08h54.21.138,ImageRatingTask_S2,2021.1.4,Win32,60.02400962,,,,,,,,,
,,,,,,,,,,,,0,4,4,4,1,fifth,6,21,Female,R,Donders,2021-07-07_08h54.21.138,ImageRatingTask_S2,2021.1.4,Win32,60.02400962,,,,,,,,,
,,,,,,,,,,,,0,5,5,5,1,sixth,6,21,Female,R,Donders,2021-07-07_08h54.21.138,ImageRatingTask_S2,2021.1.4,Win32,60.02400962,,,,,,,,,
,,,,,,,,,,,,0,6,6,6,1,seventh,6,21,Female,R,Donders,2021-07-07_08h54.21.138,ImageRatingTask_S2,2021.1.4,Win32,60.02400962,,,,,,,,,
,,,,,,,,,,,,0,7,7,7,1,last,6,21,Female,R,Donders,2021-07-07_08h54.21.138,ImageRatingTask_S2,2021.1.4,Win32,60.02400962,,,,,,,,,
,,,,,,,,,,,,,,,,,,6,21,Female,R,Donders,2021-07-07_08h54.21.138,ImageRatingTask_S2,2021.1.4,Win32,60.02400962,0,14,14,137,1,DreamStudyImages_rs1000x750g/Food/IAPS7482_diner4.jpg,,,
,,2,1.8734,6,2.4404,6,3.6236,1,1.0099,2,0.5973,0,0,0,0,1,main,6,21,Female,R,Donders,2021-07-07_08h54.21.138,ImageRatingTask_S2,2021.1.4,Win32,60.02400962,,,,,,,,,
,,,,,,,,,,,,0,1,1,1,1,second,6,21,Female,R,Donders,2021-07-07_08h54.21.138,ImageRatingTask_S2,2021.1.4,Win32,60.02400962,,,,,,,,,
,,,,,,,,,,,,0,2,2,2,1,third,6,21,Female,R,Donders,2021-07-07_08h54.21.138,ImageRatingTask_S2,2021.1.4,Win32,60.02400962,,,,,,,,,
,,,,,,,,,,,,0,3,3,3,1,fourth,6,21,Female,R,Donders,2021-07-07_08h54.21.138,ImageRatingTask_S2,2021.1.4,Win32,60.02400962,,,,,,,,,
,,,,,,,,,,,,0,4,4,4,1,fifth,6,21,Female,R,Donders,2021-07-07_08h54.21.138,ImageRatingTask_S2,2021.1.4,Win32,60.02400962,,,,,,,,,
,,,,,,,,,,,,0,5,5,5,1,sixth,6,21,Female,R,Donders,2021-07-07_08h54.21.138,ImageRatingTask_S2,2021.1.4,Win32,60.02400962,,,,,,,,,
,,,,,,,,,,,,0,6,6,6,1,seventh,6,21,Female,R,Donders,2021-07-07_08h54.21.138,ImageRatingTask_S2,2021.1.4,Win32,60.02400962,,,,,,,,,
,,,,,,,,,,,,0,7,7,7,1,last,6,21,Female,R,Donders,2021-07-07_08h54.21.138,ImageRatingTask_S2,2021.1.4,Win32,60.02400962,,,,,,,,,
,,,,,,,,,,,,,,,,,,6,21,Female,R,Donders,2021-07-07_08h54.21.138,ImageRatingTask_S2,2021.1.4,Win32,60.02400962,0,15,15,44,1,DreamStudyImages_rs1000x750g/Children/Faces_369_v.jpg,,,
,,5,10.3989,2,1.7668,6,2.004,0,3.1599,,,0,0,0,0,1,main,6,21,Female,R,Donders,2021-07-07_08h54.21.138,ImageRatingTask_S2,2021.1.4,Win32,60.02400962,,,,,,,,,
,,,,,,,,,,,,0,1,1,1,1,second,6,21,Female,R,Donders,2021-07-07_08h54.21.138,ImageRatingTask_S2,2021.1.4,Win32,60.02400962,,,,,,,,,
,,,,,,,,,,,,0,2,2,2,1,third,6,21,Female,R,Donders,2021-07-07_08h54.21.138,ImageRatingTask_S2,2021.1.4,Win32,60.02400962,,,,,,,,,
,,,,,,,,,,,,0,3,3,3,1,fourth,6,21,Female,R,Donders,2021-07-07_08h54.21.138,ImageRatingTask_S2,2021.1.4,Win32,60.02400962,,,,,,,,,
,,,,,,,,,,,,0,4,4,4,1,fifth,6,21,Female,R,Donders,2021-07-07_08h54.21.138,ImageRatingTask_S2,2021.1.4,Win32,60.02400962,,,,,,,,,
,,,,,,,,,,,,0,5,5,5,1,sixth,6,21,Female,R,Donders,2021-07-07_08h54.21.138,ImageRatingTask_S2,2021.1.4,Win32,60.02400962,,,,,,,,,
,,,,,,,,,,,,0,6,6,6,1,seventh,6,21,Female,R,Donders,2021-07-07_08h54.21.138,ImageRatingTask_S2,2021.1.4,Win32,60.02400962,,,,,,,,,
,,,,,,,,,,,,0,7,7,7,1,last,6,21,Female,R,Donders,2021-07-07_08h54.21.138,ImageRatingTask_S2,2021.1.4,Win32,60.02400962,,,,,,,,,
,,,,,,,,,,,,,,,,,,6,21,Female,R,Donders,2021-07-07_08h54.21.138,ImageRatingTask_S2,2021.1.4,Win32,60.02400962,0,16,16,102,1,DreamStudyImages_rs1000x750g/Houses/Bar 2.jpg,,,
,,8,2.3024,6,1.2518,6,2.1219,1,0.8966,3,0.9973,0,0,0,0,1,main,6,21,Female,R,Donders,2021-07-07_08h54.21.138,ImageRatingTask_S2,2021.1.4,Win32,60.02400962,,,,,,,,,
,,,,,,,,,,,,0,1,1,1,1,second,6,21,Female,R,Donders,2021-07-07_08h54.21.138,ImageRatingTask_S2,2021.1.4,Win32,60.02400962,,,,,,,,,
,,,,,,,,,,,,0,2,2,2,1,third,6,21,Female,R,Donders,2021-07-07_08h54.21.138,ImageRatingTask_S2,2021.1.4,Win32,60.02400962,,,,,,,,,
,,,,,,,,,,,,0,3,3,3,1,fourth,6,21,Female,R,Donders,2021-07-07_08h54.21.138,ImageRatingTask_S2,2021.1.4,Win32,60.02400962,,,,,,,,,
,,,,,,,,,,,,0,4,4,4,1,fifth,6,21,Female,R,Donders,2021-07-07_08h54.21.138,ImageRatingTask_S2,2021.1.4,Win32,60.02400962,,,,,,,,,
,,,,,,,,,,,,0,5,5,5,1,sixth,6,21,Female,R,Donders,2021-07-07_08h54.21.138,ImageRatingTask_S2,2021.1.4,Win32,60.02400962,,,,,,,,,
,,,,,,,,,,,,0,6,6,6,1,seventh,6,21,Female,R,Donders,2021-07-07_08h54.21.138,ImageRatingTask_S2,2021.1.4,Win32,60.02400962,,,,,,,,,
,,,,,,,,,,,,0,7,7,7,1,last,6,21,Female,R,Donders,2021-07-07_08h54.21.138,ImageRatingTask_S2,2021.1.4,Win32,60.02400962,,,,,,,,,
,,,,,,,,,,,,,,,,,,6,21,Female,R,Donders,2021-07-07_08h54.21.138,ImageRatingTask_S2,2021.1.4,Win32,60.02400962,0,17,17,156,1,DreamStudyImages_rs1000x750g/Mammals/IAPS1510_dog8.jpg,,,
,,8,1.2561,7,1.4043,7,3.5717,1,1.2112,3,0.9084,0,0,0,0,1,main,6,21,Female,R,Donders,2021-07-07_08h54.21.138,ImageRatingTask_S2,2021.1.4,Win32,60.02400962,,,,,,,,,
,,,,,,,,,,,,0,1,1,1,1,second,6,21,Female,R,Donders,2021-07-07_08h54.21.138,ImageRatingTask_S2,2021.1.4,Win32,60.02400962,,,,,,,,,
,,,,,,,,,,,,0,2,2,2,1,third,6,21,Female,R,Donders,2021-07-07_08h54.21.138,ImageRatingTask_S2,2021.1.4,Win32,60.02400962,,,,,,,,,
,,,,,,,,,,,,0,3,3,3,1,fourth,6,21,Female,R,Donders,2021-07-07_08h54.21.138,ImageRatingTask_S2,2021.1.4,Win32,60.02400962,,,,,,,,,
,,,,,,,,,,,,0,4,4,4,1,fifth,6,21,Female,R,Donders,2021-07-07_08h54.21.138,ImageRatingTask_S2,2021.1.4,Win32,60.02400962,,,,,,,,,
,,,,,,,,,,,,0,5,5,5,1,sixth,6,21,Female,R,Donders,2021-07-07_08h54.21.138,ImageRatingTask_S2,2021.1.4,Win32,60.02400962,,,,,,,,,
,,,,,,,,,,,,0,6,6,6,1,seventh,6,21,Female,R,Donders,2021-07-07_08h54.21.138,ImageRatingTask_S2,2021.1.4,Win32,60.02400962,,,,,,,,,
,,,,,,,,,,,,0,7,7,7,1,last,6,21,Female,R,Donders,2021-07-07_08h54.21.138,ImageRatingTask_S2,2021.1.4,Win32,60.02400962,,,,,,,,,
,,,,,,,,,,,,,,,,,,6,21,Female,R,Donders,2021-07-07_08h54.21.138,ImageRatingTask_S2,2021.1.4,Win32,60.02400962,0,18,18,46,1,DreamStudyImages_rs1000x750g/Mammals/Lion 1.jpg,,,
,,7,3.8224,4,1.2438,8,2.1175,1,1.0499,5,0.9234,0,0,0,0,1,main,6,21,Female,R,Donders,2021-07-07_08h54.21.138,ImageRatingTask_S2,2021.1.4,Win32,60.02400962,,,,,,,,,
,,,,,,,,,,,,0,1,1,1,1,second,6,21,Female,R,Donders,2021-07-07_08h54.21.138,ImageRatingTask_S2,2021.1.4,Win32,60.02400962,,,,,,,,,
,,,,,,,,,,,,0,2,2,2,1,third,6,21,Female,R,Donders,2021-07-07_08h54.21.138,ImageRatingTask_S2,2021.1.4,Win32,60.02400962,,,,,,,,,
,,,,,,,,,,,,0,3,3,3,1,fourth,6,21,Female,R,Donders,2021-07-07_08h54.21.138,ImageRatingTask_S2,2021.1.4,Win32,60.02400962,,,,,,,,,
,,,,,,,,,,,,0,4,4,4,1,fifth,6,21,Female,R,Donders,2021-07-07_08h54.21.138,ImageRatingTask_S2,2021.1.4,Win32,60.02400962,,,,,,,,,
,,,,,,,,,,,,0,5,5,5,1,sixth,6,21,Female,R,Donders,2021-07-07_08h54.21.138,ImageRatingTask_S2,2021.1.4,Win32,60.02400962,,,,,,,,,
,,,,,,,,,,,,0,6,6,6,1,seventh,6,21,Female,R,Donders,2021-07-07_08h54.21.138,ImageRatingTask_S2,2021.1.4,Win32,60.02400962,,,,,,,,,
,,,,,,,,,,,,0,7,7,7,1,last,6,21,Female,R,Donders,2021-07-07_08h54.21.138,ImageRatingTask_S2,2021.1.4,Win32,60.02400962,,,,,,,,,
,,,,,,,,,,,,,,,,,,6,21,Female,R,Donders,2021-07-07_08h54.21.138,ImageRatingTask_S2,2021.1.4,Win32,60.02400962,0,19,19,20,1,DreamStudyImages_rs1000x750g/Food/Objects_067_h.jpg,,,
,,8,6.0812,5,1.2584,7,2.3364,1,1.9504,8,1.0708,0,0,0,0,1,main,6,21,Female,R,Donders,2021-07-07_08h54.21.138,ImageRatingTask_S2,2021.1.4,Win32,60.02400962,,,,,,,,,
,,,,,,,,,,,,0,1,1,1,1,second,6,21,Female,R,Donders,2021-07-07_08h54.21.138,ImageRatingTask_S2,2021.1.4,Win32,60.02400962,,,,,,,,,
,,,,,,,,,,,,0,2,2,2,1,third,6,21,Female,R,Donders,2021-07-07_08h54.21.138,ImageRatingTask_S2,2021.1.4,Win32,60.02400962,,,,,,,,,
,,,,,,,,,,,,0,3,3,3,1,fourth,6,21,Female,R,Donders,2021-07-07_08h54.21.138,ImageRatingTask_S2,2021.1.4,Win32,60.02400962,,,,,,,,,
,,,,,,,,,,,,0,4,4,4,1,fifth,6,21,Female,R,Donders,2021-07-07_08h54.21.138,ImageRatingTask_S2,2021.1.4,Win32,60.02400962,,,,,,,,,
,,,,,,,,,,,,0,5,5,5,1,sixth,6,21,Female,R,Donders,2021-07-07_08h54.21.138,ImageRatingTask_S2,2021.1.4,Win32,60.02400962,,,,,,,,,
,,,,,,,,,,,,0,6,6,6,1,seventh,6,21,Female,R,Donders,2021-07-07_08h54.21.138,ImageRatingTask_S2,2021.1.4,Win32,60.02400962,,,,,,,,,
,,,,,,,,,,,,0,7,7,7,1,last,6,21,Female,R,Donders,2021-07-07_08h54.21.138,ImageRatingTask_S2,2021.1.4,Win32,60.02400962,,,,,,,,,
,,,,,,,,,,,,,,,,,,6,21,Female,R,Donders,2021-07-07_08h54.21.138,ImageRatingTask_S2,2021.1.4,Win32,60.02400962,0,20,20,4,1,DreamStudyImages_rs1000x750g/Water/5825.jpg,,,
,,6,2.8952,4,3.8853,7,1.4688,1,1.1099,4,0.8387,0,0,0,0,1,main,6,21,Female,R,Donders,2021-07-07_08h54.21.138,ImageRatingTask_S2,2021.1.4,Win32,60.02400962,,,,,,,,,
,,,,,,,,,,,,0,1,1,1,1,second,6,21,Female,R,Donders,2021-07-07_08h54.21.138,ImageRatingTask_S2,2021.1.4,Win32,60.02400962,,,,,,,,,
,,,,,,,,,,,,0,2,2,2,1,third,6,21,Female,R,Donders,2021-07-07_08h54.21.138,ImageRatingTask_S2,2021.1.4,Win32,60.02400962,,,,,,,,,
,,,,,,,,,,,,0,3,3,3,1,fourth,6,21,Female,R,Donders,2021-07-07_08h54.21.138,ImageRatingTask_S2,2021.1.4,Win32,60.02400962,,,,,,,,,
,,,,,,,,,,,,0,4,4,4,1,fifth,6,21,Female,R,Donders,2021-07-07_08h54.21.138,ImageRatingTask_S2,2021.1.4,Win32,60.02400962,,,,,,,,,
,,,,,,,,,,,,0,5,5,5,1,sixth,6,21,Female,R,Donders,2021-07-07_08h54.21.138,ImageRatingTask_S2,2021.1.4,Win32,60.02400962,,,,,,,,,
,,,,,,,,,,,,0,6,6,6,1,seventh,6,21,Female,R,Donders,2021-07-07_08h54.21.138,ImageRatingTask_S2,2021.1.4,Win32,60.02400962,,,,,,,,,
,,,,,,,,,,,,0,7,7,7,1,last,6,21,Female,R,Donders,2021-07-07_08h54.21.138,ImageRatingTask_S2,2021.1.4,Win32,60.02400962,,,,,,,,,
,,,,,,,,,,,,,,,,,,6,21,Female,R,Donders,2021-07-07_08h54.21.138,ImageRatingTask_S2,2021.1.4,Win32,60.02400962,0,21,21,96,1,DreamStudyImages_rs1000x750g/Mammals/Animals_005_h.jpg,,,
,,3,7.6697,7,1.6102,7,2.2815,1,1.7816,8,1.0951,0,0,0,0,1,main,6,21,Female,R,Donders,2021-07-07_08h54.21.138,ImageRatingTask_S2,2021.1.4,Win32,60.02400962,,,,,,,,,
,,,,,,,,,,,,0,1,1,1,1,second,6,21,Female,R,Donders,2021-07-07_08h54.21.138,ImageRatingTask_S2,2021.1.4,Win32,60.02400962,,,,,,,,,
,,,,,,,,,,,,0,2,2,2,1,third,6,21,Female,R,Donders,2021-07-07_08h54.21.138,ImageRatingTask_S2,2021.1.4,Win32,60.02400962,,,,,,,,,
,,,,,,,,,,,,0,3,3,3,1,fourth,6,21,Female,R,Donders,2021-07-07_08h54.21.138,ImageRatingTask_S2,2021.1.4,Win32,60.02400962,,,,,,,,,
,,,,,,,,,,,,0,4,4,4,1,fifth,6,21,Female,R,Donders,2021-07-07_08h54.21.138,ImageRatingTask_S2,2021.1.4,Win32,60.02400962,,,,,,,,,
,,,,,,,,,,,,0,5,5,5,1,sixth,6,21,Female,R,Donders,2021-07-07_08h54.21.138,ImageRatingTask_S2,2021.1.4,Win32,60.02400962,,,,,,,,,
,,,,,,,,,,,,0,6,6,6,1,seventh,6,21,Female,R,Donders,2021-07-07_08h54.21.138,ImageRatingTask_S2,2021.1.4,Win32,60.02400962,,,,,,,,,
,,,,,,,,,,,,0,7,7,7,1,last,6,21,Female,R,Donders,2021-07-07_08h54.21.138,ImageRatingTask_S2,2021.1.4,Win32,60.02400962,,,,,,,,,
,,,,,,,,,,,,,,,,,,6,21,Female,R,Donders,2021-07-07_08h54.21.138,ImageRatingTask_S2,2021.1.4,Win32,60.02400962,0,22,22,24,1,DreamStudyImages_rs1000x750g/Water/Landscapes_004_h.jpg,,,
,,5,3.4525,1,1.6979,8,5.4699,1,3.8503,5,0.9267,0,0,0,0,1,main,6,21,Female,R,Donders,2021-07-07_08h54.21.138,ImageRatingTask_S2,2021.1.4,Win32,60.02400962,,,,,,,,,
,,,,,,,,,,,,0,1,1,1,1,second,6,21,Female,R,Donders,2021-07-07_08h54.21.138,ImageRatingTask_S2,2021.1.4,Win32,60.02400962,,,,,,,,,
,,,,,,,,,,,,0,2,2,2,1,third,6,21,Female,R,Donders,2021-07-07_08h54.21.138,ImageRatingTask_S2,2021.1.4,Win32,60.02400962,,,,,,,,,
,,,,,,,,,,,,0,3,3,3,1,fourth,6,21,Female,R,Donders,2021-07-07_08h54.21.138,ImageRatingTask_S2,2021.1.4,Win32,60.02400962,,,,,,,,,
,,,,,,,,,,,,0,4,4,4,1,fifth,6,21,Female,R,Donders,2021-07-07_08h54.21.138,ImageRatingTask_S2,2021.1.4,Win32,60.02400962,,,,,,,,,
,,,,,,,,,,,,0,5,5,5,1,sixth,6,21,Female,R,Donders,2021-07-07_08h54.21.138,ImageRatingTask_S2,2021.1.4,Win32,60.02400962,,,,,,,,,
,,,,,,,,,,,,0,6,6,6,1,seventh,6,21,Female,R,Donders,2021-07-07_08h54.21.138,ImageRatingTask_S2,2021.1.4,Win32,60.02400962,,,,,,,,,
,,,,,,,,,,,,0,7,7,7,1,last,6,21,Female,R,Donders,2021-07-07_08h54.21.138,ImageRatingTask_S2,2021.1.4,Win32,60.02400962,,,,,,,,,
,,,,,,,,,,,,,,,,,,6,21,Female,R,Donders,2021-07-07_08h54.21.138,ImageRatingTask_S2,2021.1.4,Win32,60.02400962,0,23,23,10,1,DreamStudyImages_rs1000x750g/Food/Objects_098_v.jpg,,,
,,7,12.7371,6,23.1109,8,1.859,1,1.4853,6,1.1564,0,0,0,0,1,main,6,21,Female,R,Donders,2021-07-07_08h54.21.138,ImageRatingTask_S2,2021.1.4,Win32,60.02400962,,,,,,,,,
,,,,,,,,,,,,0,1,1,1,1,second,6,21,Female,R,Donders,2021-07-07_08h54.21.138,ImageRatingTask_S2,2021.1.4,Win32,60.02400962,,,,,,,,,
,,,,,,,,,,,,0,2,2,2,1,third,6,21,Female,R,Donders,2021-07-07_08h54.21.138,ImageRatingTask_S2,2021.1.4,Win32,60.02400962,,,,,,,,,
,,,,,,,,,,,,0,3,3,3,1,fourth,6,21,Female,R,Donders,2021-07-07_08h54.21.138,ImageRatingTask_S2,2021.1.4,Win32,60.02400962,,,,,,,,,
,,,,,,,,,,,,0,4,4,4,1,fifth,6,21,Female,R,Donders,2021-07-07_08h54.21.138,ImageRatingTask_S2,2021.1.4,Win32,60.02400962,,,,,,,,,
,,,,,,,,,,,,0,5,5,5,1,sixth,6,21,Female,R,Donders,2021-07-07_08h54.21.138,ImageRatingTask_S2,2021.1.4,Win32,60.02400962,,,,,,,,,
,,,,,,,,,,,,0,6,6,6,1,seventh,6,21,Female,R,Donders,2021-07-07_08h54.21.138,ImageRatingTask_S2,2021.1.4,Win32,60.02400962,,,,,,,,,
,,,,,,,,,,,,0,7,7,7,1,last,6,21,Female,R,Donders,2021-07-07_08h54.21.138,ImageRatingTask_S2,2021.1.4,Win32,60.02400962,,,,,,,,,
,,,,,,,,,,,,,,,,,,6,21,Female,R,Donders,2021-07-07_08h54.21.138,ImageRatingTask_S2,2021.1.4,Win32,60.02400962,0,24,24,129,1,DreamStudyImages_rs1000x750g/Houses/nicehouse.jpg,,,
,,8,17.9143,4,1.416,4,1.8027,1,1.506,5,0.9521,0,0,0,0,1,main,6,21,Female,R,Donders,2021-07-07_08h54.21.138,ImageRatingTask_S2,2021.1.4,Win32,60.02400962,,,,,,,,,
,,,,,,,,,,,,0,1,1,1,1,second,6,21,Female,R,Donders,2021-07-07_08h54.21.138,ImageRatingTask_S2,2021.1.4,Win32,60.02400962,,,,,,,,,
,,,,,,,,,,,,0,2,2,2,1,third,6,21,Female,R,Donders,2021-07-07_08h54.21.138,ImageRatingTask_S2,2021.1.4,Win32,60.02400962,,,,,,,,,
,,,,,,,,,,,,0,3,3,3,1,fourth,6,21,Female,R,Donders,2021-07-07_08h54.21.138,ImageRatingTask_S2,2021.1.4,Win32,60.02400962,,,,,,,,,
,,,,,,,,,,,,0,4,4,4,1,fifth,6,21,Female,R,Donders,2021-07-07_08h54.21.138,ImageRatingTask_S2,2021.1.4,Win32,60.02400962,,,,,,,,,
,,,,,,,,,,,,0,5,5,5,1,sixth,6,21,Female,R,Donders,2021-07-07_08h54.21.138,ImageRatingTask_S2,2021.1.4,Win32,60.02400962,,,,,,,,,
,,,,,,,,,,,,0,6,6,6,1,seventh,6,21,Female,R,Donders,2021-07-07_08h54.21.138,ImageRatingTask_S2,2021.1.4,Win32,60.02400962,,,,,,,,,
,,,,,,,,,,,,0,7,7,7,1,last,6,21,Female,R,Donders,2021-07-07_08h54.21.138,ImageRatingTask_S2,2021.1.4,Win32,60.02400962,,,,,,,,,
,,,,,,,,,,,,,,,,,,6,21,Female,R,Donders,2021-07-07_08h54.21.138,ImageRatingTask_S2,2021.1.4,Win32,60.02400962,0,25,25,151,1,DreamStudyImages_rs1000x750g/Food/IAPS7430_chocolate3.jpg,,,
,,7,12.0507,4,0.7889,7,2.6453,0,2.0637,,,0,0,0,0,1,main,6,21,Female,R,Donders,2021-07-07_08h54.21.138,ImageRatingTask_S2,2021.1.4,Win32,60.02400962,,,,,,,,,
,,,,,,,,,,,,0,1,1,1,1,second,6,21,Female,R,Donders,2021-07-07_08h54.21.138,ImageRatingTask_S2,2021.1.4,Win32,60.02400962,,,,,,,,,
,,,,,,,,,,,,0,2,2,2,1,third,6,21,Female,R,Donders,2021-07-07_08h54.21.138,ImageRatingTask_S2,2021.1.4,Win32,60.02400962,,,,,,,,,
,,,,,,,,,,,,0,3,3,3,1,fourth,6,21,Female,R,Donders,2021-07-07_08h54.21.138,ImageRatingTask_S2,2021.1.4,Win32,60.02400962,,,,,,,,,
,,,,,,,,,,,,0,4,4,4,1,fifth,6,21,Female,R,Donders,2021-07-07_08h54.21.138,ImageRatingTask_S2,2021.1.4,Win32,60.02400962,,,,,,,,,
,,,,,,,,,,,,0,5,5,5,1,sixth,6,21,Female,R,Donders,2021-07-07_08h54.21.138,ImageRatingTask_S2,2021.1.4,Win32,60.02400962,,,,,,,,,
,,,,,,,,,,,,0,6,6,6,1,seventh,6,21,Female,R,Donders,2021-07-07_08h54.21.138,ImageRatingTask_S2,2021.1.4,Win32,60.02400962,,,,,,,,,
,,,,,,,,,,,,0,7,7,7,1,last,6,21,Female,R,Donders,2021-07-07_08h54.21.138,ImageRatingTask_S2,2021.1.4,Win32,60.02400962,,,,,,,,,
,,,,,,,,,,,,,,,,,,6,21,Female,R,Donders,2021-07-07_08h54.21.138,ImageRatingTask_S2,2021.1.4,Win32,60.02400962,0,26,26,60,1,DreamStudyImages_rs1000x750g/Food/Objects_028_v.jpg,,,
,,7,21.8302,6,1.1402,6,1.8607,1,1.1581,5,0.7645,0,0,0,0,1,main,6,21,Female,R,Donders,2021-07-07_08h54.21.138,ImageRatingTask_S2,2021.1.4,Win32,60.02400962,,,,,,,,,
,,,,,,,,,,,,0,1,1,1,1,second,6,21,Female,R,Donders,2021-07-07_08h54.21.138,ImageRatingTask_S2,2021.1.4,Win32,60.02400962,,,,,,,,,
,,,,,,,,,,,,0,2,2,2,1,third,6,21,Female,R,Donders,2021-07-07_08h54.21.138,ImageRatingTask_S2,2021.1.4,Win32,60.02400962,,,,,,,,,
,,,,,,,,,,,,0,3,3,3,1,fourth,6,21,Female,R,Donders,2021-07-07_08h54.21.138,ImageRatingTask_S2,2021.1.4,Win32,60.02400962,,,,,,,,,
,,,,,,,,,,,,0,4,4,4,1,fifth,6,21,Female,R,Donders,2021-07-07_08h54.21.138,ImageRatingTask_S2,2021.1.4,Win32,60.02400962,,,,,,,,,
,,,,,,,,,,,,0,5,5,5,1,sixth,6,21,Female,R,Donders,2021-07-07_08h54.21.138,ImageRatingTask_S2,2021.1.4,Win32,60.02400962,,,,,,,,,
,,,,,,,,,,,,0,6,6,6,1,seventh,6,21,Female,R,Donders,2021-07-07_08h54.21.138,ImageRatingTask_S2,2021.1.4,Win32,60.02400962,,,,,,,,,
,,,,,,,,,,,,0,7,7,7,1,last,6,21,Female,R,Donders,2021-07-07_08h54.21.138,ImageRatingTask_S2,2021.1.4,Win32,60.02400962,,,,,,,,,
,,,,,,,,,,,,,,,,,,6,21,Female,R,Donders,2021-07-07_08h54.21.138,ImageRatingTask_S2,2021.1.4,Win32,60.02400962,0,27,27,114,1,DreamStudyImages_rs1000x750g/Food/Objects_042_h.jpg,,,
,,4,28.9567,6,1.4826,6,2.4034,1,8.9861,8,1.0459,0,0,0,0,1,main,6,21,Female,R,Donders,2021-07-07_08h54.21.138,ImageRatingTask_S2,2021.1.4,Win32,60.02400962,,,,,,,,,
,,,,,,,,,,,,0,1,1,1,1,second,6,21,Female,R,Donders,2021-07-07_08h54.21.138,ImageRatingTask_S2,2021.1.4,Win32,60.02400962,,,,,,,,,
,,,,,,,,,,,,0,2,2,2,1,third,6,21,Female,R,Donders,2021-07-07_08h54.21.138,ImageRatingTask_S2,2021.1.4,Win32,60.02400962,,,,,,,,,
,,,,,,,,,,,,0,3,3,3,1,fourth,6,21,Female,R,Donders,2021-07-07_08h54.21.138,ImageRatingTask_S2,2021.1.4,Win32,60.02400962,,,,,,,,,
,,,,,,,,,,,,0,4,4,4,1,fifth,6,21,Female,R,Donders,2021-07-07_08h54.21.138,ImageRatingTask_S2,2021.1.4,Win32,60.02400962,,,,,,,,,
,,,,,,,,,,,,0,5,5,5,1,sixth,6,21,Female,R,Donders,2021-07-07_08h54.21.138,ImageRatingTask_S2,2021.1.4,Win32,60.02400962,,,,,,,,,
,,,,,,,,,,,,0,6,6,6,1,seventh,6,21,Female,R,Donders,2021-07-07_08h54.21.138,ImageRatingTask_S2,2021.1.4,Win32,60.02400962,,,,,,,,,
,,,,,,,,,,,,0,7,7,7,1,last,6,21,Female,R,Donders,2021-07-07_08h54.21.138,ImageRatingTask_S2,2021.1.4,Win32,60.02400962,,,,,,,,,
,,,,,,,,,,,,,,,,,,6,21,Female,R,Donders,2021-07-07_08h54.21.138,ImageRatingTask_S2,2021.1.4,Win32,60.02400962,0,28,28,57,1,DreamStudyImages_rs1000x750g/Water/89.jpg,,,
,,9,11.5483,8,1.2329,9,1.4856,1,1.2068,3,1.0848,0,0,0,0,1,main,6,21,Female,R,Donders,2021-07-07_08h54.21.138,ImageRatingTask_S2,2021.1.4,Win32,60.02400962,,,,,,,,,
,,,,,,,,,,,,0,1,1,1,1,second,6,21,Female,R,Donders,2021-07-07_08h54.21.138,ImageRatingTask_S2,2021.1.4,Win32,60.02400962,,,,,,,,,
,,,,,,,,,,,,0,2,2,2,1,third,6,21,Female,R,Donders,2021-07-07_08h54.21.138,ImageRatingTask_S2,2021.1.4,Win32,60.02400962,,,,,,,,,
,,,,,,,,,,,,0,3,3,3,1,fourth,6,21,Female,R,Donders,2021-07-07_08h54.21.138,ImageRatingTask_S2,2021.1.4,Win32,60.02400962,,,,,,,,,
,,,,,,,,,,,,0,4,4,4,1,fifth,6,21,Female,R,Donders,2021-07-07_08h54.21.138,ImageRatingTask_S2,2021.1.4,Win32,60.02400962,,,,,,,,,
,,,,,,,,,,,,0,5,5,5,1,sixth,6,21,Female,R,Donders,2021-07-07_08h54.21.138,ImageRatingTask_S2,2021.1.4,Win32,60.02400962,,,,,,,,,
,,,,,,,,,,,,0,6,6,6,1,seventh,6,21,Female,R,Donders,2021-07-07_08h54.21.138,ImageRatingTask_S2,2021.1.4,Win32,60.02400962,,,,,,,,,
,,,,,,,,,,,,0,7,7,7,1,last,6,21,Female,R,Donders,2021-07-07_08h54.21.138,ImageRatingTask_S2,2021.1.4,Win32,60.02400962,,,,,,,,,
,,,,,,,,,,,,,,,,,,6,21,Female,R,Donders,2021-07-07_08h54.21.138,ImageRatingTask_S2,2021.1.4,Win32,60.02400962,0,29,29,148,1,DreamStudyImages_rs1000x750g/Mammals/IAPS1630_deer.jpg,,,
,,5,28.2189,2,1.3513,8,1.646,1,1.19,7,0.8288,0,0,0,0,1,main,6,21,Female,R,Donders,2021-07-07_08h54.21.138,ImageRatingTask_S2,2021.1.4,Win32,60.02400962,,,,,,,,,
,,,,,,,,,,,,0,1,1,1,1,second,6,21,Female,R,Donders,2021-07-07_08h54.21.138,ImageRatingTask_S2,2021.1.4,Win32,60.02400962,,,,,,,,,
,,,,,,,,,,,,0,2,2,2,1,third,6,21,Female,R,Donders,2021-07-07_08h54.21.138,ImageRatingTask_S2,2021.1.4,Win32,60.02400962,,,,,,,,,
,,,,,,,,,,,,0,3,3,3,1,fourth,6,21,Female,R,Donders,2021-07-07_08h54.21.138,ImageRatingTask_S2,2021.1.4,Win32,60.02400962,,,,,,,,,
,,,,,,,,,,,,0,4,4,4,1,fifth,6,21,Female,R,Donders,2021-07-07_08h54.21.138,ImageRatingTask_S2,2021.1.4,Win32,60.02400962,,,,,,,,,
,,,,,,,,,,,,0,5,5,5,1,sixth,6,21,Female,R,Donders,2021-07-07_08h54.21.138,ImageRatingTask_S2,2021.1.4,Win32,60.02400962,,,,,,,,,
,,,,,,,,,,,,0,6,6,6,1,seventh,6,21,Female,R,Donders,2021-07-07_08h54.21.138,ImageRatingTask_S2,2021.1.4,Win32,60.02400962,,,,,,,,,
,,,,,,,,,,,,0,7,7,7,1,last,6,21,Female,R,Donders,2021-07-07_08h54.21.138,ImageRatingTask_S2,2021.1.4,Win32,60.02400962,,,,,,,,,
,,,,,,,,,,,,,,,,,,6,21,Female,R,Donders,2021-07-07_08h54.21.138,ImageRatingTask_S2,2021.1.4,Win32,60.02400962,0,30,30,40,1,DreamStudyImages_rs1000x750g/Vehicles/toytruck.jpg,,,
,,3,14.333,6,1.2221,5,2.2248,0,1.5707,,,0,0,0,0,1,main,6,21,Female,R,Donders,2021-07-07_08h54.21.138,ImageRatingTask_S2,2021.1.4,Win32,60.02400962,,,,,,,,,
,,,,,,,,,,,,0,1,1,1,1,second,6,21,Female,R,Donders,2021-07-07_08h54.21.138,ImageRatingTask_S2,2021.1.4,Win32,60.02400962,,,,,,,,,
,,,,,,,,,,,,0,2,2,2,1,third,6,21,Female,R,Donders,2021-07-07_08h54.21.138,ImageRatingTask_S2,2021.1.4,Win32,60.02400962,,,,,,,,,
,,,,,,,,,,,,0,3,3,3,1,fourth,6,21,Female,R,Donders,2021-07-07_08h54.21.138,ImageRatingTask_S2,2021.1.4,Win32,60.02400962,,,,,,,,,
,,,,,,,,,,,,0,4,4,4,1,fifth,6,21,Female,R,Donders,2021-07-07_08h54.21.138,ImageRatingTask_S2,2021.1.4,Win32,60.02400962,,,,,,,,,
,,,,,,,,,,,,0,5,5,5,1,sixth,6,21,Female,R,Donders,2021-07-07_08h54.21.138,ImageRatingTask_S2,2021.1.4,Win32,60.02400962,,,,,,,,,
,,,,,,,,,,,,0,6,6,6,1,seventh,6,21,Female,R,Donders,2021-07-07_08h54.21.138,ImageRatingTask_S2,2021.1.4,Win32,60.02400962,,,,,,,,,
,,,,,,,,,,,,0,7,7,7,1,last,6,21,Female,R,Donders,2021-07-07_08h54.21.138,ImageRatingTask_S2,2021.1.4,Win32,60.02400962,,,,,,,,,
,,,,,,,,,,,,,,,,,,6,21,Female,R,Donders,2021-07-07_08h54.21.138,ImageRatingTask_S2,2021.1.4,Win32,60.02400962,0,31,31,117,1,DreamStudyImages_rs1000x750g/Houses/Jail 5.jpg,,,
,,3,17.2196,7,1.1828,8,4.3864,1,0.9308,3,1.3396,0,0,0,0,1,main,6,21,Female,R,Donders,2021-07-07_08h54.21.138,ImageRatingTask_S2,2021.1.4,Win32,60.02400962,,,,,,,,,
,,,,,,,,,,,,0,1,1,1,1,second,6,21,Female,R,Donders,2021-07-07_08h54.21.138,ImageRatingTask_S2,2021.1.4,Win32,60.02400962,,,,,,,,,
,,,,,,,,,,,,0,2,2,2,1,third,6,21,Female,R,Donders,2021-07-07_08h54.21.138,ImageRatingTask_S2,2021.1.4,Win32,60.02400962,,,,,,,,,
,,,,,,,,,,,,0,3,3,3,1,fourth,6,21,Female,R,Donders,2021-07-07_08h54.21.138,ImageRatingTask_S2,2021.1.4,Win32,60.02400962,,,,,,,,,
,,,,,,,,,,,,0,4,4,4,1,fifth,6,21,Female,R,Donders,2021-07-07_08h54.21.138,ImageRatingTask_S2,2021.1.4,Win32,60.02400962,,,,,,,,,
,,,,,,,,,,,,0,5,5,5,1,sixth,6,21,Female,R,Donders,2021-07-07_08h54.21.138,ImageRatingTask_S2,2021.1.4,Win32,60.02400962,,,,,,,,,
,,,,,,,,,,,,0,6,6,6,1,seventh,6,21,Female,R,Donders,2021-07-07_08h54.21.138,ImageRatingTask_S2,2021.1.4,Win32,60.02400962,,,,,,,,,
,,,,,,,,,,,,0,7,7,7,1,last,6,21,Female,R,Donders,2021-07-07_08h54.21.138,ImageRatingTask_S2,2021.1.4,Win32,60.02400962,,,,,,,,,
,,,,,,,,,,,,,,,,,,6,21,Female,R,Donders,2021-07-07_08h54.21.138,ImageRatingTask_S2,2021.1.4,Win32,60.02400962,0,32,32,12,1,DreamStudyImages_rs1000x750g/Mammals/Animals_019_h.jpg,,,
,,1,3.1987,8,1.8639,5,2.126,1,2.2894,6,1.0193,0,0,0,0,1,main,6,21,Female,R,Donders,2021-07-07_08h54.21.138,ImageRatingTask_S2,2021.1.4,Win32,60.02400962,,,,,,,,,
,,,,,,,,,,,,0,1,1,1,1,second,6,21,Female,R,Donders,2021-07-07_08h54.21.138,ImageRatingTask_S2,2021.1.4,Win32,60.02400962,,,,,,,,,
,,,,,,,,,,,,0,2,2,2,1,third,6,21,Female,R,Donders,2021-07-07_08h54.21.138,ImageRatingTask_S2,2021.1.4,Win32,60.02400962,,,,,,,,,
,,,,,,,,,,,,0,3,3,3,1,fourth,6,21,Female,R,Donders,2021-07-07_08h54.21.138,ImageRatingTask_S2,2021.1.4,Win32,60.02400962,,,,,,,,,
,,,,,,,,,,,,0,4,4,4,1,fifth,6,21,Female,R,Donders,2021-07-07_08h54.21.138,ImageRatingTask_S2,2021.1.4,Win32,60.02400962,,,,,,,,,
,,,,,,,,,,,,0,5,5,5,1,sixth,6,21,Female,R,Donders,2021-07-07_08h54.21.138,ImageRatingTask_S2,2021.1.4,Win32,60.02400962,,,,,,,,,
,,,,,,,,,,,,0,6,6,6,1,seventh,6,21,Female,R,Donders,2021-07-07_08h54.21.138,ImageRatingTask_S2,2021.1.4,Win32,60.02400962,,,,,,,,,
,,,,,,,,,,,,0,7,7,7,1,last,6,21,Female,R,Donders,2021-07-07_08h54.21.138,ImageRatingTask_S2,2021.1.4,Win32,60.02400962,,,,,,,,,
,,,,,,,,,,,,,,,,,,6,21,Female,R,Donders,2021-07-07_08h54.21.138,ImageRatingTask_S2,2021.1.4,Win32,60.02400962,0,33,33,55,1,DreamStudyImages_rs1000x750g/Houses/IAPS9940_twintowers.jpg,,,
,,7,9.7203,2,2.0706,6,7.6032,1,1.2728,8,0.8557,0,0,0,0,1,main,6,21,Female,R,Donders,2021-07-07_08h54.21.138,ImageRatingTask_S2,2021.1.4,Win32,60.02400962,,,,,,,,,
,,,,,,,,,,,,0,1,1,1,1,second,6,21,Female,R,Donders,2021-07-07_08h54.21.138,ImageRatingTask_S2,2021.1.4,Win32,60.02400962,,,,,,,,,
,,,,,,,,,,,,0,2,2,2,1,third,6,21,Female,R,Donders,2021-07-07_08h54.21.138,ImageRatingTask_S2,2021.1.4,Win32,60.02400962,,,,,,,,,
,,,,,,,,,,,,0,3,3,3,1,fourth,6,21,Female,R,Donders,2021-07-07_08h54.21.138,ImageRatingTask_S2,2021.1.4,Win32,60.02400962,,,,,,,,,
,,,,,,,,,,,,0,4,4,4,1,fifth,6,21,Female,R,Donders,2021-07-07_08h54.21.138,ImageRatingTask_S2,2021.1.4,Win32,60.02400962,,,,,,,,,
,,,,,,,,,,,,0,5,5,5,1,sixth,6,21,Female,R,Donders,2021-07-07_08h54.21.138,ImageRatingTask_S2,2021.1.4,Win32,60.02400962,,,,,,,,,
,,,,,,,,,,,,0,6,6,6,1,seventh,6,21,Female,R,Donders,2021-07-07_08h54.21.138,ImageRatingTask_S2,2021.1.4,Win32,60.02400962,,,,,,,,,
,,,,,,,,,,,,0,7,7,7,1,last,6,21,Female,R,Donders,2021-07-07_08h54.21.138,ImageRatingTask_S2,2021.1.4,Win32,60.02400962,,,,,,,,,
,,,,,,,,,,,,,,,,,,6,21,Female,R,Donders,2021-07-07_08h54.21.138,ImageRatingTask_S2,2021.1.4,Win32,60.02400962,0,34,34,37,1,DreamStudyImages_rs1000x750g/Water/NDPS126_volcanicwater2.jpg,,,
,,3,7.5246,3,2.093,6,1.8878,1,1.6182,2,0.9993,0,0,0,0,1,main,6,21,Female,R,Donders,2021-07-07_08h54.21.138,ImageRatingTask_S2,2021.1.4,Win32,60.02400962,,,,,,,,,
,,,,,,,,,,,,0,1,1,1,1,second,6,21,Female,R,Donders,2021-07-07_08h54.21.138,ImageRatingTask_S2,2021.1.4,Win32,60.02400962,,,,,,,,,
,,,,,,,,,,,,0,2,2,2,1,third,6,21,Female,R,Donders,2021-07-07_08h54.21.138,ImageRatingTask_S2,2021.1.4,Win32,60.02400962,,,,,,,,,
,,,,,,,,,,,,0,3,3,3,1,fourth,6,21,Female,R,Donders,2021-07-07_08h54.21.138,ImageRatingTask_S2,2021.1.4,Win32,60.02400962,,,,,,,,,
,,,,,,,,,,,,0,4,4,4,1,fifth,6,21,Female,R,Donders,2021-07-07_08h54.21.138,ImageRatingTask_S2,2021.1.4,Win32,60.02400962,,,,,,,,,
,,,,,,,,,,,,0,5,5,5,1,sixth,6,21,Female,R,Donders,2021-07-07_08h54.21.138,ImageRatingTask_S2,2021.1.4,Win32,60.02400962,,,,,,,,,
,,,,,,,,,,,,0,6,6,6,1,seventh,6,21,Female,R,Donders,2021-07-07_08h54.21.138,ImageRatingTask_S2,2021.1.4,Win32,60.02400962,,,,,,,,,
,,,,,,,,,,,,0,7,7,7,1,last,6,21,Female,R,Donders,2021-07-07_08h54.21.138,ImageRatingTask_S2,2021.1.4,Win32,60.02400962,,,,,,,,,
,,,,,,,,,,,,,,,,,,6,21,Female,R,Donders,2021-07-07_08h54.21.138,ImageRatingTask_S2,2021.1.4,Win32,60.02400962,0,35,35,30,1,DreamStudyImages_rs1000x750g/Children/IAPS2301_boy5.jpg,,,
,,8,50.7156,8,1.6003,8,1.2938,1,1.3875,5,0.6979,0,0,0,0,1,main,6,21,Female,R,Donders,2021-07-07_08h54.21.138,ImageRatingTask_S2,2021.1.4,Win32,60.02400962,,,,,,,,,
,,,,,,,,,,,,0,1,1,1,1,second,6,21,Female,R,Donders,2021-07-07_08h54.21.138,ImageRatingTask_S2,2021.1.4,Win32,60.02400962,,,,,,,,,
,,,,,,,,,,,,0,2,2,2,1,third,6,21,Female,R,Donders,2021-07-07_08h54.21.138,ImageRatingTask_S2,2021.1.4,Win32,60.02400962,,,,,,,,,
,,,,,,,,,,,,0,3,3,3,1,fourth,6,21,Female,R,Donders,2021-07-07_08h54.21.138,ImageRatingTask_S2,2021.1.4,Win32,60.02400962,,,,,,,,,
,,,,,,,,,,,,0,4,4,4,1,fifth,6,21,Female,R,Donders,2021-07-07_08h54.21.138,ImageRatingTask_S2,2021.1.4,Win32,60.02400962,,,,,,,,,
,,,,,,,,,,,,0,5,5,5,1,sixth,6,21,Female,R,Donders,2021-07-07_08h54.21.138,ImageRatingTask_S2,2021.1.4,Win32,60.02400962,,,,,,,,,
,,,,,,,,,,,,0,6,6,6,1,seventh,6,21,Female,R,Donders,2021-07-07_08h54.21.138,ImageRatingTask_S2,2021.1.4,Win32,60.02400962,,,,,,,,,
,,,,,,,,,,,,0,7,7,7,1,last,6,21,Female,R,Donders,2021-07-07_08h54.21.138,ImageRatingTask_S2,2021.1.4,Win32,60.02400962,,,,,,,,,
,,,,,,,,,,,,,,,,,,6,21,Female,R,Donders,2021-07-07_08h54.21.138,ImageRatingTask_S2,2021.1.4,Win32,60.02400962,0,36,36,91,1,DreamStudyImages_rs1000x750g/Food/Objects_080_h.jpg,,,
,,8,3.5192,7,1.6141,6,1.5515,1,1.1024,3,0.7868,0,0,0,0,1,main,6,21,Female,R,Donders,2021-07-07_08h54.21.138,ImageRatingTask_S2,2021.1.4,Win32,60.02400962,,,,,,,,,
,,,,,,,,,,,,0,1,1,1,1,second,6,21,Female,R,Donders,2021-07-07_08h54.21.138,ImageRatingTask_S2,2021.1.4,Win32,60.02400962,,,,,,,,,
,,,,,,,,,,,,0,2,2,2,1,third,6,21,Female,R,Donders,2021-07-07_08h54.21.138,ImageRatingTask_S2,2021.1.4,Win32,60.02400962,,,,,,,,,
,,,,,,,,,,,,0,3,3,3,1,fourth,6,21,Female,R,Donders,2021-07-07_08h54.21.138,ImageRatingTask_S2,2021.1.4,Win32,60.02400962,,,,,,,,,
,,,,,,,,,,,,0,4,4,4,1,fifth,6,21,Female,R,Donders,2021-07-07_08h54.21.138,ImageRatingTask_S2,2021.1.4,Win32,60.02400962,,,,,,,,,
,,,,,,,,,,,,0,5,5,5,1,sixth,6,21,Female,R,Donders,2021-07-07_08h54.21.138,ImageRatingTask_S2,2021.1.4,Win32,60.02400962,,,,,,,,,
,,,,,,,,,,,,0,6,6,6,1,seventh,6,21,Female,R,Donders,2021-07-07_08h54.21.138,ImageRatingTask_S2,2021.1.4,Win32,60.02400962,,,,,,,,,
,,,,,,,,,,,,0,7,7,7,1,last,6,21,Female,R,Donders,2021-07-07_08h54.21.138,ImageRatingTask_S2,2021.1.4,Win32,60.02400962,,,,,,,,,
,,,,,,,,,,,,,,,,,,6,21,Female,R,Donders,2021-07-07_08h54.21.138,ImageRatingTask_S2,2021.1.4,Win32,60.02400962,0,37,37,73,1,DreamStudyImages_rs1000x750g/Mammals/Animals_117_h.jpg,,,
,,5,14.2791,2,1.7166,6,2.3666,1,2.1736,7,0.8848,0,0,0,0,1,main,6,21,Female,R,Donders,2021-07-07_08h54.21.138,ImageRatingTask_S2,2021.1.4,Win32,60.02400962,,,,,,,,,
,,,,,,,,,,,,0,1,1,1,1,second,6,21,Female,R,Donders,2021-07-07_08h54.21.138,ImageRatingTask_S2,2021.1.4,Win32,60.02400962,,,,,,,,,
,,,,,,,,,,,,0,2,2,2,1,third,6,21,Female,R,Donders,2021-07-07_08h54.21.138,ImageRatingTask_S2,2021.1.4,Win32,60.02400962,,,,,,,,,
,,,,,,,,,,,,0,3,3,3,1,fourth,6,21,Female,R,Donders,2021-07-07_08h54.21.138,ImageRatingTask_S2,2021.1.4,Win32,60.02400962,,,,,,,,,
,,,,,,,,,,,,0,4,4,4,1,fifth,6,21,Female,R,Donders,2021-07-07_08h54.21.138,ImageRatingTask_S2,2021.1.4,Win32,60.02400962,,,,,,,,,
,,,,,,,,,,,,0,5,5,5,1,sixth,6,21,Female,R,Donders,2021-07-07_08h54.21.138,ImageRatingTask_S2,2021.1.4,Win32,60.02400962,,,,,,,,,
,,,,,,,,,,,,0,6,6,6,1,seventh,6,21,Female,R,Donders,2021-07-07_08h54.21.138,ImageRatingTask_S2,2021.1.4,Win32,60.02400962,,,,,,,,,
,,,,,,,,,,,,0,7,7,7,1,last,6,21,Female,R,Donders,2021-07-07_08h54.21.138,ImageRatingTask_S2,2021.1.4,Win32,60.02400962,,,,,,,,,
,,,,,,,,,,,,,,,,,,6,21,Female,R,Donders,2021-07-07_08h54.21.138,ImageRatingTask_S2,2021.1.4,Win32,60.02400962,0,38,38,54,1,DreamStudyImages_rs1000x750g/Vehicles/Objects_288_h.jpg,,,
,,7,2.7056,5,7.6252,6,2.0647,1,1.5331,7,0.9491,0,0,0,0,1,main,6,21,Female,R,Donders,2021-07-07_08h54.21.138,ImageRatingTask_S2,2021.1.4,Win32,60.02400962,,,,,,,,,
,,,,,,,,,,,,0,1,1,1,1,second,6,21,Female,R,Donders,2021-07-07_08h54.21.138,ImageRatingTask_S2,2021.1.4,Win32,60.02400962,,,,,,,,,
,,,,,,,,,,,,0,2,2,2,1,third,6,21,Female,R,Donders,2021-07-07_08h54.21.138,ImageRatingTask_S2,2021.1.4,Win32,60.02400962,,,,,,,,,
,,,,,,,,,,,,0,3,3,3,1,fourth,6,21,Female,R,Donders,2021-07-07_08h54.21.138,ImageRatingTask_S2,2021.1.4,Win32,60.02400962,,,,,,,,,
,,,,,,,,,,,,0,4,4,4,1,fifth,6,21,Female,R,Donders,2021-07-07_08h54.21.138,ImageRatingTask_S2,2021.1.4,Win32,60.02400962,,,,,,,,,
,,,,,,,,,,,,0,5,5,5,1,sixth,6,21,Female,R,Donders,2021-07-07_08h54.21.138,ImageRatingTask_S2,2021.1.4,Win32,60.02400962,,,,,,,,,
,,,,,,,,,,,,0,6,6,6,1,seventh,6,21,Female,R,Donders,2021-07-07_08h54.21.138,ImageRatingTask_S2,2021.1.4,Win32,60.02400962,,,,,,,,,
,,,,,,,,,,,,0,7,7,7,1,last,6,21,Female,R,Donders,2021-07-07_08h54.21.138,ImageRatingTask_S2,2021.1.4,Win32,60.02400962,,,,,,,,,
,,,,,,,,,,,,,,,,,,6,21,Female,R,Donders,2021-07-07_08h54.21.138,ImageRatingTask_S2,2021.1.4,Win32,60.02400962,0,39,39,74,1,DreamStudyImages_rs1000x750g/Vehicles/Objects_301_h.jpg,,,
,,4,15.154,6,1.8291,3,1.9349,0,1.7831,,,0,0,0,0,1,main,6,21,Female,R,Donders,2021-07-07_08h54.21.138,ImageRatingTask_S2,2021.1.4,Win32,60.02400962,,,,,,,,,
,,,,,,,,,,,,0,1,1,1,1,second,6,21,Female,R,Donders,2021-07-07_08h54.21.138,ImageRatingTask_S2,2021.1.4,Win32,60.02400962,,,,,,,,,
,,,,,,,,,,,,0,2,2,2,1,third,6,21,Female,R,Donders,2021-07-07_08h54.21.138,ImageRatingTask_S2,2021.1.4,Win32,60.02400962,,,,,,,,,
,,,,,,,,,,,,0,3,3,3,1,fourth,6,21,Female,R,Donders,2021-07-07_08h54.21.138,ImageRatingTask_S2,2021.1.4,Win32,60.02400962,,,,,,,,,
,,,,,,,,,,,,0,4,4,4,1,fifth,6,21,Female,R,Donders,2021-07-07_08h54.21.138,ImageRatingTask_S2,2021.1.4,Win32,60.02400962,,,,,,,,,
,,,,,,,,,,,,0,5,5,5,1,sixth,6,21,Female,R,Donders,2021-07-07_08h54.21.138,ImageRatingTask_S2,2021.1.4,Win32,60.02400962,,,,,,,,,
,,,,,,,,,,,,0,6,6,6,1,seventh,6,21,Female,R,Donders,2021-07-07_08h54.21.138,ImageRatingTask_S2,2021.1.4,Win32,60.02400962,,,,,,,,,
,,,,,,,,,,,,0,7,7,7,1,last,6,21,Female,R,Donders,2021-07-07_08h54.21.138,ImageRatingTask_S2,2021.1.4,Win32,60.02400962,,,,,,,,,
,,,,,,,,,,,,,,,,,,6,21,Female,R,Donders,2021-07-07_08h54.21.138,ImageRatingTask_S2,2021.1.4,Win32,60.02400962,0,40,40,158,1,DreamStudyImages_rs1000x750g/Vehicles/Tornado 1.jpg,,,
,,2,2.2952,7,1.3508,7,1.7124,1,1.2323,7,0.8934,0,0,0,0,1,main,6,21,Female,R,Donders,2021-07-07_08h54.21.138,ImageRatingTask_S2,2021.1.4,Win32,60.02400962,,,,,,,,,
,,,,,,,,,,,,0,1,1,1,1,second,6,21,Female,R,Donders,2021-07-07_08h54.21.138,ImageRatingTask_S2,2021.1.4,Win32,60.02400962,,,,,,,,,
,,,,,,,,,,,,0,2,2,2,1,third,6,21,Female,R,Donders,2021-07-07_08h54.21.138,ImageRatingTask_S2,2021.1.4,Win32,60.02400962,,,,,,,,,
,,,,,,,,,,,,0,3,3,3,1,fourth,6,21,Female,R,Donders,2021-07-07_08h54.21.138,ImageRatingTask_S2,2021.1.4,Win32,60.02400962,,,,,,,,,
,,,,,,,,,,,,0,4,4,4,1,fifth,6,21,Female,R,Donders,2021-07-07_08h54.21.138,ImageRatingTask_S2,2021.1.4,Win32,60.02400962,,,,,,,,,
,,,,,,,,,,,,0,5,5,5,1,sixth,6,21,Female,R,Donders,2021-07-07_08h54.21.138,ImageRatingTask_S2,2021.1.4,Win32,60.02400962,,,,,,,,,
,,,,,,,,,,,,0,6,6,6,1,seventh,6,21,Female,R,Donders,2021-07-07_08h54.21.138,ImageRatingTask_S2,2021.1.4,Win32,60.02400962,,,,,,,,,
,,,,,,,,,,,,0,7,7,7,1,last,6,21,Female,R,Donders,2021-07-07_08h54.21.138,ImageRatingTask_S2,2021.1.4,Win32,60.02400962,,,,,,,,,
,,,,,,,,,,,,,,,,,,6,21,Female,R,Donders,2021-07-07_08h54.21.138,ImageRatingTask_S2,2021.1.4,Win32,60.02400962,0,41,41,15,1,DreamStudyImages_rs1000x750g/Vehicles/Objects_002_h.jpg,,,
,,5,20.4528,3,1.3574,6,1.7962,1,1.0529,7,0.8131,0,0,0,0,1,main,6,21,Female,R,Donders,2021-07-07_08h54.21.138,ImageRatingTask_S2,2021.1.4,Win32,60.02400962,,,,,,,,,
,,,,,,,,,,,,0,1,1,1,1,second,6,21,Female,R,Donders,2021-07-07_08h54.21.138,ImageRatingTask_S2,2021.1.4,Win32,60.02400962,,,,,,,,,
,,,,,,,,,,,,0,2,2,2,1,third,6,21,Female,R,Donders,2021-07-07_08h54.21.138,ImageRatingTask_S2,2021.1.4,Win32,60.02400962,,,,,,,,,
,,,,,,,,,,,,0,3,3,3,1,fourth,6,21,Female,R,Donders,2021-07-07_08h54.21.138,ImageRatingTask_S2,2021.1.4,Win32,60.02400962,,,,,,,,,
,,,,,,,,,,,,0,4,4,4,1,fifth,6,21,Female,R,Donders,2021-07-07_08h54.21.138,ImageRatingTask_S2,2021.1.4,Win32,60.02400962,,,,,,,,,
,,,,,,,,,,,,0,5,5,5,1,sixth,6,21,Female,R,Donders,2021-07-07_08h54.21.138,ImageRatingTask_S2,2021.1.4,Win32,60.02400962,,,,,,,,,
,,,,,,,,,,,,0,6,6,6,1,seventh,6,21,Female,R,Donders,2021-07-07_08h54.21.138,ImageRatingTask_S2,2021.1.4,Win32,60.02400962,,,,,,,,,
,,,,,,,,,,,,0,7,7,7,1,last,6,21,Female,R,Donders,2021-07-07_08h54.21.138,ImageRatingTask_S2,2021.1.4,Win32,60.02400962,,,,,,,,,
,,,,,,,,,,,,,,,,,,6,21,Female,R,Donders,2021-07-07_08h54.21.138,ImageRatingTask_S2,2021.1.4,Win32,60.02400962,0,42,42,149,1,DreamStudyImages_rs1000x750g/Vehicles/Objects_309_h.jpg,,,
,,8,57.9198,6,1.2985,6,1.4171,1,0.8709,2,0.6136,0,0,0,0,1,main,6,21,Female,R,Donders,2021-07-07_08h54.21.138,ImageRatingTask_S2,2021.1.4,Win32,60.02400962,,,,,,,,,
,,,,,,,,,,,,0,1,1,1,1,second,6,21,Female,R,Donders,2021-07-07_08h54.21.138,ImageRatingTask_S2,2021.1.4,Win32,60.02400962,,,,,,,,,
,,,,,,,,,,,,0,2,2,2,1,third,6,21,Female,R,Donders,2021-07-07_08h54.21.138,ImageRatingTask_S2,2021.1.4,Win32,60.02400962,,,,,,,,,
,,,,,,,,,,,,0,3,3,3,1,fourth,6,21,Female,R,Donders,2021-07-07_08h54.21.138,ImageRatingTask_S2,2021.1.4,Win32,60.02400962,,,,,,,,,
,,,,,,,,,,,,0,4,4,4,1,fifth,6,21,Female,R,Donders,2021-07-07_08h54.21.138,ImageRatingTask_S2,2021.1.4,Win32,60.02400962,,,,,,,,,
,,,,,,,,,,,,0,5,5,5,1,sixth,6,21,Female,R,Donders,2021-07-07_08h54.21.138,ImageRatingTask_S2,2021.1.4,Win32,60.02400962,,,,,,,,,
,,,,,,,,,,,,0,6,6,6,1,seventh,6,21,Female,R,Donders,2021-07-07_08h54.21.138,ImageRatingTask_S2,2021.1.4,Win32,60.02400962,,,,,,,,,
,,,,,,,,,,,,0,7,7,7,1,last,6,21,Female,R,Donders,2021-07-07_08h54.21.138,ImageRatingTask_S2,2021.1.4,Win32,60.02400962,,,,,,,,,
,,,,,,,,,,,,,,,,,,6,21,Female,R,Donders,2021-07-07_08h54.21.138,ImageRatingTask_S2,2021.1.4,Win32,60.02400962,0,43,43,2,1,DreamStudyImages_rs1000x750g/Children/2071.jpg,,,
,,5,5.7229,2,2.1508,5,1.9592,0,1.4551,,,0,0,0,0,1,main,6,21,Female,R,Donders,2021-07-07_08h54.21.138,ImageRatingTask_S2,2021.1.4,Win32,60.02400962,,,,,,,,,
,,,,,,,,,,,,0,1,1,1,1,second,6,21,Female,R,Donders,2021-07-07_08h54.21.138,ImageRatingTask_S2,2021.1.4,Win32,60.02400962,,,,,,,,,
,,,,,,,,,,,,0,2,2,2,1,third,6,21,Female,R,Donders,2021-07-07_08h54.21.138,ImageRatingTask_S2,2021.1.4,Win32,60.02400962,,,,,,,,,
,,,,,,,,,,,,0,3,3,3,1,fourth,6,21,Female,R,Donders,2021-07-07_08h54.21.138,ImageRatingTask_S2,2021.1.4,Win32,60.02400962,,,,,,,,,
,,,,,,,,,,,,0,4,4,4,1,fifth,6,21,Female,R,Donders,2021-07-07_08h54.21.138,ImageRatingTask_S2,2021.1.4,Win32,60.02400962,,,,,,,,,
,,,,,,,,,,,,0,5,5,5,1,sixth,6,21,Female,R,Donders,2021-07-07_08h54.21.138,ImageRatingTask_S2,2021.1.4,Win32,60.02400962,,,,,,,,,
,,,,,,,,,,,,0,6,6,6,1,seventh,6,21,Female,R,Donders,2021-07-07_08h54.21.138,ImageRatingTask_S2,2021.1.4,Win32,60.02400962,,,,,,,,,
,,,,,,,,,,,,0,7,7,7,1,last,6,21,Female,R,Donders,2021-07-07_08h54.21.138,ImageRatingTask_S2,2021.1.4,Win32,60.02400962,,,,,,,,,
,,,,,,,,,,,,,,,,,,6,21,Female,R,Donders,2021-07-07_08h54.21.138,ImageRatingTask_S2,2021.1.4,Win32,60.02400962,0,44,44,104,1,DreamStudyImages_rs1000x750g/Water/Lake 6.jpg,,,
,,7,3.4363,5,10.01,7,1.9512,1,1.3851,5,1.0303,0,0,0,0,1,main,6,21,Female,R,Donders,2021-07-07_08h54.21.138,ImageRatingTask_S2,2021.1.4,Win32,60.02400962,,,,,,,,,
,,,,,,,,,,,,0,1,1,1,1,second,6,21,Female,R,Donders,2021-07-07_08h54.21.138,ImageRatingTask_S2,2021.1.4,Win32,60.02400962,,,,,,,,,
,,,,,,,,,,,,0,2,2,2,1,third,6,21,Female,R,Donders,2021-07-07_08h54.21.138,ImageRatingTask_S2,2021.1.4,Win32,60.02400962,,,,,,,,,
,,,,,,,,,,,,0,3,3,3,1,fourth,6,21,Female,R,Donders,2021-07-07_08h54.21.138,ImageRatingTask_S2,2021.1.4,Win32,60.02400962,,,,,,,,,
,,,,,,,,,,,,0,4,4,4,1,fifth,6,21,Female,R,Donders,2021-07-07_08h54.21.138,ImageRatingTask_S2,2021.1.4,Win32,60.02400962,,,,,,,,,
,,,,,,,,,,,,0,5,5,5,1,sixth,6,21,Female,R,Donders,2021-07-07_08h54.21.138,ImageRatingTask_S2,2021.1.4,Win32,60.02400962,,,,,,,,,
,,,,,,,,,,,,0,6,6,6,1,seventh,6,21,Female,R,Donders,2021-07-07_08h54.21.138,ImageRatingTask_S2,2021.1.4,Win32,60.02400962,,,,,,,,,
,,,,,,,,,,,,0,7,7,7,1,last,6,21,Female,R,Donders,2021-07-07_08h54.21.138,ImageRatingTask_S2,2021.1.4,Win32,60.02400962,,,,,,,,,
,,,,,,,,,,,,,,,,,,6,21,Female,R,Donders,2021-07-07_08h54.21.138,ImageRatingTask_S2,2021.1.4,Win32,60.02400962,0,45,45,3,1,DreamStudyImages_rs1000x750g/Food/Objects_066_v.jpg,,,
,,6,4.4137,3,1.2728,8,3.0361,1,1.931,7,1.1226,0,0,0,0,1,main,6,21,Female,R,Donders,2021-07-07_08h54.21.138,ImageRatingTask_S2,2021.1.4,Win32,60.02400962,,,,,,,,,
,,,,,,,,,,,,0,1,1,1,1,second,6,21,Female,R,Donders,2021-07-07_08h54.21.138,ImageRatingTask_S2,2021.1.4,Win32,60.02400962,,,,,,,,,
,,,,,,,,,,,,0,2,2,2,1,third,6,21,Female,R,Donders,2021-07-07_08h54.21.138,ImageRatingTask_S2,2021.1.4,Win32,60.02400962,,,,,,,,,
,,,,,,,,,,,,0,3,3,3,1,fourth,6,21,Female,R,Donders,2021-07-07_08h54.21.138,ImageRatingTask_S2,2021.1.4,Win32,60.02400962,,,,,,,,,
,,,,,,,,,,,,0,4,4,4,1,fifth,6,21,Female,R,Donders,2021-07-07_08h54.21.138,ImageRatingTask_S2,2021.1.4,Win32,60.02400962,,,,,,,,,
,,,,,,,,,,,,0,5,5,5,1,sixth,6,21,Female,R,Donders,2021-07-07_08h54.21.138,ImageRatingTask_S2,2021.1.4,Win32,60.02400962,,,,,,,,,
,,,,,,,,,,,,0,6,6,6,1,seventh,6,21,Female,R,Donders,2021-07-07_08h54.21.138,ImageRatingTask_S2,2021.1.4,Win32,60.02400962,,,,,,,,,
,,,,,,,,,,,,0,7,7,7,1,last,6,21,Female,R,Donders,2021-07-07_08h54.21.138,ImageRatingTask_S2,2021.1.4,Win32,60.02400962,,,,,,,,,
,,,,,,,,,,,,,,,,,,6,21,Female,R,Donders,2021-07-07_08h54.21.138,ImageRatingTask_S2,2021.1.4,Win32,60.02400962,0,46,46,21,1,DreamStudyImages_rs1000x750g/Vehicles/fireengine.jpg,,,
,,8,1.513,6,1.5543,7,4.5383,1,1.2029,3,3.5089,0,0,0,0,1,main,6,21,Female,R,Donders,2021-07-07_08h54.21.138,ImageRatingTask_S2,2021.1.4,Win32,60.02400962,,,,,,,,,
,,,,,,,,,,,,0,1,1,1,1,second,6,21,Female,R,Donders,2021-07-07_08h54.21.138,ImageRatingTask_S2,2021.1.4,Win32,60.02400962,,,,,,,,,
,,,,,,,,,,,,0,2,2,2,1,third,6,21,Female,R,Donders,2021-07-07_08h54.21.138,ImageRatingTask_S2,2021.1.4,Win32,60.02400962,,,,,,,,,
,,,,,,,,,,,,0,3,3,3,1,fourth,6,21,Female,R,Donders,2021-07-07_08h54.21.138,ImageRatingTask_S2,2021.1.4,Win32,60.02400962,,,,,,,,,
,,,,,,,,,,,,0,4,4,4,1,fifth,6,21,Female,R,Donders,2021-07-07_08h54.21.138,ImageRatingTask_S2,2021.1.4,Win32,60.02400962,,,,,,,,,
,,,,,,,,,,,,0,5,5,5,1,sixth,6,21,Female,R,Donders,2021-07-07_08h54.21.138,ImageRatingTask_S2,2021.1.4,Win32,60.02400962,,,,,,,,,
,,,,,,,,,,,,0,6,6,6,1,seventh,6,21,Female,R,Donders,2021-07-07_08h54.21.138,ImageRatingTask_S2,2021.1.4,Win32,60.02400962,,,,,,,,,
,,,,,,,,,,,,0,7,7,7,1,last,6,21,Female,R,Donders,2021-07-07_08h54.21.138,ImageRatingTask_S2,2021.1.4,Win32,60.02400962,,,,,,,,,
,,,,,,,,,,,,,,,,,,6,21,Female,R,Donders,2021-07-07_08h54.21.138,ImageRatingTask_S2,2021.1.4,Win32,60.02400962,0,47,47,19,1,DreamStudyImages_rs1000x750g/Mammals/Animals_148_h.jpg,,,
,,7,3.4986,2,1.8015,5,1.7757,1,1.2187,8,1.1165,0,0,0,0,1,main,6,21,Female,R,Donders,2021-07-07_08h54.21.138,ImageRatingTask_S2,2021.1.4,Win32,60.02400962,,,,,,,,,
,,,,,,,,,,,,0,1,1,1,1,second,6,21,Female,R,Donders,2021-07-07_08h54.21.138,ImageRatingTask_S2,2021.1.4,Win32,60.02400962,,,,,,,,,
,,,,,,,,,,,,0,2,2,2,1,third,6,21,Female,R,Donders,2021-07-07_08h54.21.138,ImageRatingTask_S2,2021.1.4,Win32,60.02400962,,,,,,,,,
,,,,,,,,,,,,0,3,3,3,1,fourth,6,21,Female,R,Donders,2021-07-07_08h54.21.138,ImageRatingTask_S2,2021.1.4,Win32,60.02400962,,,,,,,,,
,,,,,,,,,,,,0,4,4,4,1,fifth,6,21,Female,R,Donders,2021-07-07_08h54.21.138,ImageRatingTask_S2,2021.1.4,Win32,60.02400962,,,,,,,,,
,,,,,,,,,,,,0,5,5,5,1,sixth,6,21,Female,R,Donders,2021-07-07_08h54.21.138,ImageRatingTask_S2,2021.1.4,Win32,60.02400962,,,,,,,,,
,,,,,,,,,,,,0,6,6,6,1,seventh,6,21,Female,R,Donders,2021-07-07_08h54.21.138,ImageRatingTask_S2,2021.1.4,Win32,60.02400962,,,,,,,,,
,,,,,,,,,,,,0,7,7,7,1,last,6,21,Female,R,Donders,2021-07-07_08h54.21.138,ImageRatingTask_S2,2021.1.4,Win32,60.02400962,,,,,,,,,
,,,,,,,,,,,,,,,,,,6,21,Female,R,Donders,2021-07-07_08h54.21.138,ImageRatingTask_S2,2021.1.4,Win32,60.02400962,0,48,48,76,1,DreamStudyImages_rs1000x750g/Water/IAPS7492_mountainlake_CROPPED.jpg,,,
,,3,2.3342,5,2.0904,6,2.4684,1,1.1685,7,0.7053,0,0,0,0,1,main,6,21,Female,R,Donders,2021-07-07_08h54.21.138,ImageRatingTask_S2,2021.1.4,Win32,60.02400962,,,,,,,,,
,,,,,,,,,,,,0,1,1,1,1,second,6,21,Female,R,Donders,2021-07-07_08h54.21.138,ImageRatingTask_S2,2021.1.4,Win32,60.02400962,,,,,,,,,
,,,,,,,,,,,,0,2,2,2,1,third,6,21,Female,R,Donders,2021-07-07_08h54.21.138,ImageRatingTask_S2,2021.1.4,Win32,60.02400962,,,,,,,,,
,,,,,,,,,,,,0,3,3,3,1,fourth,6,21,Female,R,Donders,2021-07-07_08h54.21.138,ImageRatingTask_S2,2021.1.4,Win32,60.02400962,,,,,,,,,
,,,,,,,,,,,,0,4,4,4,1,fifth,6,21,Female,R,Donders,2021-07-07_08h54.21.138,ImageRatingTask_S2,2021.1.4,Win32,60.02400962,,,,,,,,,
,,,,,,,,,,,,0,5,5,5,1,sixth,6,21,Female,R,Donders,2021-07-07_08h54.21.138,ImageRatingTask_S2,2021.1.4,Win32,60.02400962,,,,,,,,,
,,,,,,,,,,,,0,6,6,6,1,seventh,6,21,Female,R,Donders,2021-07-07_08h54.21.138,ImageRatingTask_S2,2021.1.4,Win32,60.02400962,,,,,,,,,
,,,,,,,,,,,,0,7,7,7,1,last,6,21,Female,R,Donders,2021-07-07_08h54.21.138,ImageRatingTask_S2,2021.1.4,Win32,60.02400962,,,,,,,,,
,,,,,,,,,,,,,,,,,,6,21,Female,R,Donders,2021-07-07_08h54.21.138,ImageRatingTask_S2,2021.1.4,Win32,60.02400962,0,49,49,1,1,DreamStudyImages_rs1000x750g/Vehicles/Objects_318_h.jpg,,,
,,5,1.9533,2,1.3165,5,2.565,1,1.1502,7,1.204,0,0,0,0,1,main,6,21,Female,R,Donders,2021-07-07_08h54.21.138,ImageRatingTask_S2,2021.1.4,Win32,60.02400962,,,,,,,,,
,,,,,,,,,,,,0,1,1,1,1,second,6,21,Female,R,Donders,2021-07-07_08h54.21.138,ImageRatingTask_S2,2021.1.4,Win32,60.02400962,,,,,,,,,
,,,,,,,,,,,,0,2,2,2,1,third,6,21,Female,R,Donders,2021-07-07_08h54.21.138,ImageRatingTask_S2,2021.1.4,Win32,60.02400962,,,,,,,,,
,,,,,,,,,,,,0,3,3,3,1,fourth,6,21,Female,R,Donders,2021-07-07_08h54.21.138,ImageRatingTask_S2,2021.1.4,Win32,60.02400962,,,,,,,,,
,,,,,,,,,,,,0,4,4,4,1,fifth,6,21,Female,R,Donders,2021-07-07_08h54.21.138,ImageRatingTask_S2,2021.1.4,Win32,60.02400962,,,,,,,,,
,,,,,,,,,,,,0,5,5,5,1,sixth,6,21,Female,R,Donders,2021-07-07_08h54.21.138,ImageRatingTask_S2,2021.1.4,Win32,60.02400962,,,,,,,,,
,,,,,,,,,,,,0,6,6,6,1,seventh,6,21,Female,R,Donders,2021-07-07_08h54.21.138,ImageRatingTask_S2,2021.1.4,Win32,60.02400962,,,,,,,,,
,,,,,,,,,,,,0,7,7,7,1,last,6,21,Female,R,Donders,2021-07-07_08h54.21.138,ImageRatingTask_S2,2021.1.4,Win32,60.02400962,,,,,,,,,
,,,,,,,,,,,,,,,,,,6,21,Female,R,Donders,2021-07-07_08h54.21.138,ImageRatingTask_S2,2021.1.4,Win32,60.02400962,0,50,50,90,1,DreamStudyImages_rs1000x750g/Vehicles/rheingoldtrain_CROPPED.jpg,,,
,,2,4.5347,5,1.6631,6,2.4362,1,2.3717,2,1.4657,0,0,0,0,1,main,6,21,Female,R,Donders,2021-07-07_08h54.21.138,ImageRatingTask_S2,2021.1.4,Win32,60.02400962,,,,,,,,,
,,,,,,,,,,,,0,1,1,1,1,second,6,21,Female,R,Donders,2021-07-07_08h54.21.138,ImageRatingTask_S2,2021.1.4,Win32,60.02400962,,,,,,,,,
,,,,,,,,,,,,0,2,2,2,1,third,6,21,Female,R,Donders,2021-07-07_08h54.21.138,ImageRatingTask_S2,2021.1.4,Win32,60.02400962,,,,,,,,,
,,,,,,,,,,,,0,3,3,3,1,fourth,6,21,Female,R,Donders,2021-07-07_08h54.21.138,ImageRatingTask_S2,2021.1.4,Win32,60.02400962,,,,,,,,,
,,,,,,,,,,,,0,4,4,4,1,fifth,6,21,Female,R,Donders,2021-07-07_08h54.21.138,ImageRatingTask_S2,2021.1.4,Win32,60.02400962,,,,,,,,,
,,,,,,,,,,,,0,5,5,5,1,sixth,6,21,Female,R,Donders,2021-07-07_08h54.21.138,ImageRatingTask_S2,2021.1.4,Win32,60.02400962,,,,,,,,,
,,,,,,,,,,,,0,6,6,6,1,seventh,6,21,Female,R,Donders,2021-07-07_08h54.21.138,ImageRatingTask_S2,2021.1.4,Win32,60.02400962,,,,,,,,,
,,,,,,,,,,,,0,7,7,7,1,last,6,21,Female,R,Donders,2021-07-07_08h54.21.138,ImageRatingTask_S2,2021.1.4,Win32,60.02400962,,,,,,,,,
,,,,,,,,,,,,,,,,,,6,21,Female,R,Donders,2021-07-07_08h54.21.138,ImageRatingTask_S2,2021.1.4,Win32,60.02400962,0,51,51,85,1,DreamStudyImages_rs1000x750g/Children/People_037_h_CROPPED.jpg,,,
,,4,3.9206,7,2.8876,6,1.947,2,1.9928,3,2.2504,0,0,0,0,1,main,6,21,Female,R,Donders,2021-07-07_08h54.21.138,ImageRatingTask_S2,2021.1.4,Win32,60.02400962,,,,,,,,,
,,,,,,,,,,5,0.8912,0,1,1,1,1,second,6,21,Female,R,Donders,2021-07-07_08h54.21.138,ImageRatingTask_S2,2021.1.4,Win32,60.02400962,,,,,,,,,
,,,,,,,,,,,,0,2,2,2,1,third,6,21,Female,R,Donders,2021-07-07_08h54.21.138,ImageRatingTask_S2,2021.1.4,Win32,60.02400962,,,,,,,,,
,,,,,,,,,,,,0,3,3,3,1,fourth,6,21,Female,R,Donders,2021-07-07_08h54.21.138,ImageRatingTask_S2,2021.1.4,Win32,60.02400962,,,,,,,,,
,,,,,,,,,,,,0,4,4,4,1,fifth,6,21,Female,R,Donders,2021-07-07_08h54.21.138,ImageRatingTask_S2,2021.1.4,Win32,60.02400962,,,,,,,,,
,,,,,,,,,,,,0,5,5,5,1,sixth,6,21,Female,R,Donders,2021-07-07_08h54.21.138,ImageRatingTask_S2,2021.1.4,Win32,60.02400962,,,,,,,,,
,,,,,,,,,,,,0,6,6,6,1,seventh,6,21,Female,R,Donders,2021-07-07_08h54.21.138,ImageRatingTask_S2,2021.1.4,Win32,60.02400962,,,,,,,,,
,,,,,,,,,,,,0,7,7,7,1,last,6,21,Female,R,Donders,2021-07-07_08h54.21.138,ImageRatingTask_S2,2021.1.4,Win32,60.02400962,,,,,,,,,
,,,,,,,,,,,,,,,,,,6,21,Female,R,Donders,2021-07-07_08h54.21.138,ImageRatingTask_S2,2021.1.4,Win32,60.02400962,0,52,52,140,1,DreamStudyImages_rs1000x750g/Mammals/Animal carcass 6.jpg,,,
,,4,2.257,4,3.6157,7,4.3522,1,1.1176,2,0.3395,0,0,0,0,1,main,6,21,Female,R,Donders,2021-07-07_08h54.21.138,ImageRatingTask_S2,2021.1.4,Win32,60.02400962,,,,,,,,,
,,,,,,,,,,,,0,1,1,1,1,second,6,21,Female,R,Donders,2021-07-07_08h54.21.138,ImageRatingTask_S2,2021.1.4,Win32,60.02400962,,,,,,,,,
,,,,,,,,,,,,0,2,2,2,1,third,6,21,Female,R,Donders,2021-07-07_08h54.21.138,ImageRatingTask_S2,2021.1.4,Win32,60.02400962,,,,,,,,,
,,,,,,,,,,,,0,3,3,3,1,fourth,6,21,Female,R,Donders,2021-07-07_08h54.21.138,ImageRatingTask_S2,2021.1.4,Win32,60.02400962,,,,,,,,,
,,,,,,,,,,,,0,4,4,4,1,fifth,6,21,Female,R,Donders,2021-07-07_08h54.21.138,ImageRatingTask_S2,2021.1.4,Win32,60.02400962,,,,,,,,,
,,,,,,,,,,,,0,5,5,5,1,sixth,6,21,Female,R,Donders,2021-07-07_08h54.21.138,ImageRatingTask_S2,2021.1.4,Win32,60.02400962,,,,,,,,,
,,,,,,,,,,,,0,6,6,6,1,seventh,6,21,Female,R,Donders,2021-07-07_08h54.21.138,ImageRatingTask_S2,2021.1.4,Win32,60.02400962,,,,,,,,,
,,,,,,,,,,,,0,7,7,7,1,last,6,21,Female,R,Donders,2021-07-07_08h54.21.138,ImageRatingTask_S2,2021.1.4,Win32,60.02400962,,,,,,,,,
,,,,,,,,,,,,,,,,,,6,21,Female,R,Donders,2021-07-07_08h54.21.138,ImageRatingTask_S2,2021.1.4,Win32,60.02400962,0,53,53,84,1,DreamStudyImages_rs1000x750g/Children/Baby 7.jpg,,,
,,6,1.9296,5,2.7005,6,3.9347,1,1.3635,5,0.8032,0,0,0,0,1,main,6,21,Female,R,Donders,2021-07-07_08h54.21.138,ImageRatingTask_S2,2021.1.4,Win32,60.02400962,,,,,,,,,
,,,,,,,,,,,,0,1,1,1,1,second,6,21,Female,R,Donders,2021-07-07_08h54.21.138,ImageRatingTask_S2,2021.1.4,Win32,60.02400962,,,,,,,,,
,,,,,,,,,,,,0,2,2,2,1,third,6,21,Female,R,Donders,2021-07-07_08h54.21.138,ImageRatingTask_S2,2021.1.4,Win32,60.02400962,,,,,,,,,
,,,,,,,,,,,,0,3,3,3,1,fourth,6,21,Female,R,Donders,2021-07-07_08h54.21.138,ImageRatingTask_S2,2021.1.4,Win32,60.02400962,,,,,,,,,
,,,,,,,,,,,,0,4,4,4,1,fifth,6,21,Female,R,Donders,2021-07-07_08h54.21.138,ImageRatingTask_S2,2021.1.4,Win32,60.02400962,,,,,,,,,
,,,,,,,,,,,,0,5,5,5,1,sixth,6,21,Female,R,Donders,2021-07-07_08h54.21.138,ImageRatingTask_S2,2021.1.4,Win32,60.02400962,,,,,,,,,
,,,,,,,,,,,,0,6,6,6,1,seventh,6,21,Female,R,Donders,2021-07-07_08h54.21.138,ImageRatingTask_S2,2021.1.4,Win32,60.02400962,,,,,,,,,
,,,,,,,,,,,,0,7,7,7,1,last,6,21,Female,R,Donders,2021-07-07_08h54.21.138,ImageRatingTask_S2,2021.1.4,Win32,60.02400962,,,,,,,,,
,,,,,,,,,,,,,,,,,,6,21,Female,R,Donders,2021-07-07_08h54.21.138,ImageRatingTask_S2,2021.1.4,Win32,60.02400962,0,54,54,5,1,DreamStudyImages_rs1000x750g/Food/Objects_014_h.jpg,,,
,,8,1.3235,7,1.1241,6,1.8986,1,1.1269,3,0.9017,0,0,0,0,1,main,6,21,Female,R,Donders,2021-07-07_08h54.21.138,ImageRatingTask_S2,2021.1.4,Win32,60.02400962,,,,,,,,,
,,,,,,,,,,,,0,1,1,1,1,second,6,21,Female,R,Donders,2021-07-07_08h54.21.138,ImageRatingTask_S2,2021.1.4,Win32,60.02400962,,,,,,,,,
,,,,,,,,,,,,0,2,2,2,1,third,6,21,Female,R,Donders,2021-07-07_08h54.21.138,ImageRatingTask_S2,2021.1.4,Win32,60.02400962,,,,,,,,,
,,,,,,,,,,,,0,3,3,3,1,fourth,6,21,Female,R,Donders,2021-07-07_08h54.21.138,ImageRatingTask_S2,2021.1.4,Win32,60.02400962,,,,,,,,,
,,,,,,,,,,,,0,4,4,4,1,fifth,6,21,Female,R,Donders,2021-07-07_08h54.21.138,ImageRatingTask_S2,2021.1.4,Win32,60.02400962,,,,,,,,,
,,,,,,,,,,,,0,5,5,5,1,sixth,6,21,Female,R,Donders,2021-07-07_08h54.21.138,ImageRatingTask_S2,2021.1.4,Win32,60.02400962,,,,,,,,,
,,,,,,,,,,,,0,6,6,6,1,seventh,6,21,Female,R,Donders,2021-07-07_08h54.21.138,ImageRatingTask_S2,2021.1.4,Win32,60.02400962,,,,,,,,,
,,,,,,,,,,,,0,7,7,7,1,last,6,21,Female,R,Donders,2021-07-07_08h54.21.138,ImageRatingTask_S2,2021.1.4,Win32,60.02400962,,,,,,,,,
,,,,,,,,,,,,,,,,,,6,21,Female,R,Donders,2021-07-07_08h54.21.138,ImageRatingTask_S2,2021.1.4,Win32,60.02400962,0,55,55,47,1,DreamStudyImages_rs1000x750g/Mammals/Wolf 1.jpg,,,
,,5,3.4292,3,1.4498,7,3.2875,1,1.0219,7,0.903,0,0,0,0,1,main,6,21,Female,R,Donders,2021-07-07_08h54.21.138,ImageRatingTask_S2,2021.1.4,Win32,60.02400962,,,,,,,,,
,,,,,,,,,,,,0,1,1,1,1,second,6,21,Female,R,Donders,2021-07-07_08h54.21.138,ImageRatingTask_S2,2021.1.4,Win32,60.02400962,,,,,,,,,
,,,,,,,,,,,,0,2,2,2,1,third,6,21,Female,R,Donders,2021-07-07_08h54.21.138,ImageRatingTask_S2,2021.1.4,Win32,60.02400962,,,,,,,,,
,,,,,,,,,,,,0,3,3,3,1,fourth,6,21,Female,R,Donders,2021-07-07_08h54.21.138,ImageRatingTask_S2,2021.1.4,Win32,60.02400962,,,,,,,,,
,,,,,,,,,,,,0,4,4,4,1,fifth,6,21,Female,R,Donders,2021-07-07_08h54.21.138,ImageRatingTask_S2,2021.1.4,Win32,60.02400962,,,,,,,,,
,,,,,,,,,,,,0,5,5,5,1,sixth,6,21,Female,R,Donders,2021-07-07_08h54.21.138,ImageRatingTask_S2,2021.1.4,Win32,60.02400962,,,,,,,,,
,,,,,,,,,,,,0,6,6,6,1,seventh,6,21,Female,R,Donders,2021-07-07_08h54.21.138,ImageRatingTask_S2,2021.1.4,Win32,60.02400962,,,,,,,,,
,,,,,,,,,,,,0,7,7,7,1,last,6,21,Female,R,Donders,2021-07-07_08h54.21.138,ImageRatingTask_S2,2021.1.4,Win32,60.02400962,,,,,,,,,
,,,,,,,,,,,,,,,,,,6,21,Female,R,Donders,2021-07-07_08h54.21.138,ImageRatingTask_S2,2021.1.4,Win32,60.02400962,0,56,56,50,1,DreamStudyImages_rs1000x750g/Vehicles/8531.jpg,,,
,,5,4.4984,2,1.2434,7,3.0109,1,1.2601,2,0.5971,0,0,0,0,1,main,6,21,Female,R,Donders,2021-07-07_08h54.21.138,ImageRatingTask_S2,2021.1.4,Win32,60.02400962,,,,,,,,,
,,,,,,,,,,,,0,1,1,1,1,second,6,21,Female,R,Donders,2021-07-07_08h54.21.138,ImageRatingTask_S2,2021.1.4,Win32,60.02400962,,,,,,,,,
,,,,,,,,,,,,0,2,2,2,1,third,6,21,Female,R,Donders,2021-07-07_08h54.21.138,ImageRatingTask_S2,2021.1.4,Win32,60.02400962,,,,,,,,,
,,,,,,,,,,,,0,3,3,3,1,fourth,6,21,Female,R,Donders,2021-07-07_08h54.21.138,ImageRatingTask_S2,2021.1.4,Win32,60.02400962,,,,,,,,,
,,,,,,,,,,,,0,4,4,4,1,fifth,6,21,Female,R,Donders,2021-07-07_08h54.21.138,ImageRatingTask_S2,2021.1.4,Win32,60.02400962,,,,,,,,,
,,,,,,,,,,,,0,5,5,5,1,sixth,6,21,Female,R,Donders,2021-07-07_08h54.21.138,ImageRatingTask_S2,2021.1.4,Win32,60.02400962,,,,,,,,,
,,,,,,,,,,,,0,6,6,6,1,seventh,6,21,Female,R,Donders,2021-07-07_08h54.21.138,ImageRatingTask_S2,2021.1.4,Win32,60.02400962,,,,,,,,,
,,,,,,,,,,,,0,7,7,7,1,last,6,21,Female,R,Donders,2021-07-07_08h54.21.138,ImageRatingTask_S2,2021.1.4,Win32,60.02400962,,,,,,,,,
,,,,,,,,,,,,,,,,,,6,21,Female,R,Donders,2021-07-07_08h54.21.138,ImageRatingTask_S2,2021.1.4,Win32,60.02400962,0,57,57,113,1,DreamStudyImages_rs1000x750g/Children/Faces_097_v.jpg,,,
,,6,2.1476,3,1.8898,6,2.8671,1,1.0833,2,0.2542,0,0,0,0,1,main,6,21,Female,R,Donders,2021-07-07_08h54.21.138,ImageRatingTask_S2,2021.1.4,Win32,60.02400962,,,,,,,,,
,,,,,,,,,,,,0,1,1,1,1,second,6,21,Female,R,Donders,2021-07-07_08h54.21.138,ImageRatingTask_S2,2021.1.4,Win32,60.02400962,,,,,,,,,
,,,,,,,,,,,,0,2,2,2,1,third,6,21,Female,R,Donders,2021-07-07_08h54.21.138,ImageRatingTask_S2,2021.1.4,Win32,60.02400962,,,,,,,,,
,,,,,,,,,,,,0,3,3,3,1,fourth,6,21,Female,R,Donders,2021-07-07_08h54.21.138,ImageRatingTask_S2,2021.1.4,Win32,60.02400962,,,,,,,,,
,,,,,,,,,,,,0,4,4,4,1,fifth,6,21,Female,R,Donders,2021-07-07_08h54.21.138,ImageRatingTask_S2,2021.1.4,Win32,60.02400962,,,,,,,,,
,,,,,,,,,,,,0,5,5,5,1,sixth,6,21,Female,R,Donders,2021-07-07_08h54.21.138,ImageRatingTask_S2,2021.1.4,Win32,60.02400962,,,,,,,,,
,,,,,,,,,,,,0,6,6,6,1,seventh,6,21,Female,R,Donders,2021-07-07_08h54.21.138,ImageRatingTask_S2,2021.1.4,Win32,60.02400962,,,,,,,,,
,,,,,,,,,,,,0,7,7,7,1,last,6,21,Female,R,Donders,2021-07-07_08h54.21.138,ImageRatingTask_S2,2021.1.4,Win32,60.02400962,,,,,,,,,
,,,,,,,,,,,,,,,,,,6,21,Female,R,Donders,2021-07-07_08h54.21.138,ImageRatingTask_S2,2021.1.4,Win32,60.02400962,0,58,58,28,1,DreamStudyImages_rs1000x750g/Children/Excited face 6.jpg,,,
,,7,4.1851,4,1.4027,5,1.9042,1,0.884,2,0.2687,0,0,0,0,1,main,6,21,Female,R,Donders,2021-07-07_08h54.21.138,ImageRatingTask_S2,2021.1.4,Win32,60.02400962,,,,,,,,,
,,,,,,,,,,,,0,1,1,1,1,second,6,21,Female,R,Donders,2021-07-07_08h54.21.138,ImageRatingTask_S2,2021.1.4,Win32,60.02400962,,,,,,,,,
,,,,,,,,,,,,0,2,2,2,1,third,6,21,Female,R,Donders,2021-07-07_08h54.21.138,ImageRatingTask_S2,2021.1.4,Win32,60.02400962,,,,,,,,,
,,,,,,,,,,,,0,3,3,3,1,fourth,6,21,Female,R,Donders,2021-07-07_08h54.21.138,ImageRatingTask_S2,2021.1.4,Win32,60.02400962,,,,,,,,,
,,,,,,,,,,,,0,4,4,4,1,fifth,6,21,Female,R,Donders,2021-07-07_08h54.21.138,ImageRatingTask_S2,2021.1.4,Win32,60.02400962,,,,,,,,,
,,,,,,,,,,,,0,5,5,5,1,sixth,6,21,Female,R,Donders,2021-07-07_08h54.21.138,ImageRatingTask_S2,2021.1.4,Win32,60.02400962,,,,,,,,,
,,,,,,,,,,,,0,6,6,6,1,seventh,6,21,Female,R,Donders,2021-07-07_08h54.21.138,ImageRatingTask_S2,2021.1.4,Win32,60.02400962,,,,,,,,,
,,,,,,,,,,,,0,7,7,7,1,last,6,21,Female,R,Donders,2021-07-07_08h54.21.138,ImageRatingTask_S2,2021.1.4,Win32,60.02400962,,,,,,,,,
,,,,,,,,,,,,,,,,,,6,21,Female,R,Donders,2021-07-07_08h54.21.138,ImageRatingTask_S2,2021.1.4,Win32,60.02400962,0,59,59,34,1,DreamStudyImages_rs1000x750g/Children/IAPS2058_baby6.jpg,,,
,,8,1.6985,6,1.7688,7,1.7456,1,1.3169,3,0.8261,0,0,0,0,1,main,6,21,Female,R,Donders,2021-07-07_08h54.21.138,ImageRatingTask_S2,2021.1.4,Win32,60.02400962,,,,,,,,,
,,,,,,,,,,,,0,1,1,1,1,second,6,21,Female,R,Donders,2021-07-07_08h54.21.138,ImageRatingTask_S2,2021.1.4,Win32,60.02400962,,,,,,,,,
,,,,,,,,,,,,0,2,2,2,1,third,6,21,Female,R,Donders,2021-07-07_08h54.21.138,ImageRatingTask_S2,2021.1.4,Win32,60.02400962,,,,,,,,,
,,,,,,,,,,,,0,3,3,3,1,fourth,6,21,Female,R,Donders,2021-07-07_08h54.21.138,ImageRatingTask_S2,2021.1.4,Win32,60.02400962,,,,,,,,,
,,,,,,,,,,,,0,4,4,4,1,fifth,6,21,Female,R,Donders,2021-07-07_08h54.21.138,ImageRatingTask_S2,2021.1.4,Win32,60.02400962,,,,,,,,,
,,,,,,,,,,,,0,5,5,5,1,sixth,6,21,Female,R,Donders,2021-07-07_08h54.21.138,ImageRatingTask_S2,2021.1.4,Win32,60.02400962,,,,,,,,,
,,,,,,,,,,,,0,6,6,6,1,seventh,6,21,Female,R,Donders,2021-07-07_08h54.21.138,ImageRatingTask_S2,2021.1.4,Win32,60.02400962,,,,,,,,,
,,,,,,,,,,,,0,7,7,7,1,last,6,21,Female,R,Donders,2021-07-07_08h54.21.138,ImageRatingTask_S2,2021.1.4,Win32,60.02400962,,,,,,,,,
,,,,,,,,,,,,,,,,,,6,21,Female,R,Donders,2021-07-07_08h54.21.138,ImageRatingTask_S2,2021.1.4,Win32,60.02400962,0,60,60,48,1,DreamStudyImages_rs1000x750g/Mammals/Animals_118_h.jpg,,,
,,9,1.1797,8,1.4375,7,8.3005,1,0.908,3,0.718,0,0,0,0,1,main,6,21,Female,R,Donders,2021-07-07_08h54.21.138,ImageRatingTask_S2,2021.1.4,Win32,60.02400962,,,,,,,,,
,,,,,,,,,,,,0,1,1,1,1,second,6,21,Female,R,Donders,2021-07-07_08h54.21.138,ImageRatingTask_S2,2021.1.4,Win32,60.02400962,,,,,,,,,
,,,,,,,,,,,,0,2,2,2,1,third,6,21,Female,R,Donders,2021-07-07_08h54.21.138,ImageRatingTask_S2,2021.1.4,Win32,60.02400962,,,,,,,,,
,,,,,,,,,,,,0,3,3,3,1,fourth,6,21,Female,R,Donders,2021-07-07_08h54.21.138,ImageRatingTask_S2,2021.1.4,Win32,60.02400962,,,,,,,,,
,,,,,,,,,,,,0,4,4,4,1,fifth,6,21,Female,R,Donders,2021-07-07_08h54.21.138,ImageRatingTask_S2,2021.1.4,Win32,60.02400962,,,,,,,,,
,,,,,,,,,,,,0,5,5,5,1,sixth,6,21,Female,R,Donders,2021-07-07_08h54.21.138,ImageRatingTask_S2,2021.1.4,Win32,60.02400962,,,,,,,,,
,,,,,,,,,,,,0,6,6,6,1,seventh,6,21,Female,R,Donders,2021-07-07_08h54.21.138,ImageRatingTask_S2,2021.1.4,Win32,60.02400962,,,,,,,,,
,,,,,,,,,,,,0,7,7,7,1,last,6,21,Female,R,Donders,2021-07-07_08h54.21.138,ImageRatingTask_S2,2021.1.4,Win32,60.02400962,,,,,,,,,
,,,,,,,,,,,,,,,,,,6,21,Female,R,Donders,2021-07-07_08h54.21.138,ImageRatingTask_S2,2021.1.4,Win32,60.02400962,0,61,61,51,1,DreamStudyImages_rs1000x750g/Mammals/Animals_203_h.jpg,,,
,,4,1.4061,5,1.0046,7,3.6558,0,1.6937,,,0,0,0,0,1,main,6,21,Female,R,Donders,2021-07-07_08h54.21.138,ImageRatingTask_S2,2021.1.4,Win32,60.02400962,,,,,,,,,
,,,,,,,,,,,,0,1,1,1,1,second,6,21,Female,R,Donders,2021-07-07_08h54.21.138,ImageRatingTask_S2,2021.1.4,Win32,60.02400962,,,,,,,,,
,,,,,,,,,,,,0,2,2,2,1,third,6,21,Female,R,Donders,2021-07-07_08h54.21.138,ImageRatingTask_S2,2021.1.4,Win32,60.02400962,,,,,,,,,
,,,,,,,,,,,,0,3,3,3,1,fourth,6,21,Female,R,Donders,2021-07-07_08h54.21.138,ImageRatingTask_S2,2021.1.4,Win32,60.02400962,,,,,,,,,
,,,,,,,,,,,,0,4,4,4,1,fifth,6,21,Female,R,Donders,2021-07-07_08h54.21.138,ImageRatingTask_S2,2021.1.4,Win32,60.02400962,,,,,,,,,
,,,,,,,,,,,,0,5,5,5,1,sixth,6,21,Female,R,Donders,2021-07-07_08h54.21.138,ImageRatingTask_S2,2021.1.4,Win32,60.02400962,,,,,,,,,
,,,,,,,,,,,,0,6,6,6,1,seventh,6,21,Female,R,Donders,2021-07-07_08h54.21.138,ImageRatingTask_S2,2021.1.4,Win32,60.02400962,,,,,,,,,
,,,,,,,,,,,,0,7,7,7,1,last,6,21,Female,R,Donders,2021-07-07_08h54.21.138,ImageRatingTask_S2,2021.1.4,Win32,60.02400962,,,,,,,,,
,,,,,,,,,,,,,,,,,,6,21,Female,R,Donders,2021-07-07_08h54.21.138,ImageRatingTask_S2,2021.1.4,Win32,60.02400962,0,62,62,53,1,DreamStudyImages_rs1000x750g/Vehicles/NDPS87_backtruck.jpg,,,
,,5,4.3839,4,1.8352,7,3.067,1,1.5169,8,0.9801,0,0,0,0,1,main,6,21,Female,R,Donders,2021-07-07_08h54.21.138,ImageRatingTask_S2,2021.1.4,Win32,60.02400962,,,,,,,,,
,,,,,,,,,,,,0,1,1,1,1,second,6,21,Female,R,Donders,2021-07-07_08h54.21.138,ImageRatingTask_S2,2021.1.4,Win32,60.02400962,,,,,,,,,
,,,,,,,,,,,,0,2,2,2,1,third,6,21,Female,R,Donders,2021-07-07_08h54.21.138,ImageRatingTask_S2,2021.1.4,Win32,60.02400962,,,,,,,,,
,,,,,,,,,,,,0,3,3,3,1,fourth,6,21,Female,R,Donders,2021-07-07_08h54.21.138,ImageRatingTask_S2,2021.1.4,Win32,60.02400962,,,,,,,,,
,,,,,,,,,,,,0,4,4,4,1,fifth,6,21,Female,R,Donders,2021-07-07_08h54.21.138,ImageRatingTask_S2,2021.1.4,Win32,60.02400962,,,,,,,,,
,,,,,,,,,,,,0,5,5,5,1,sixth,6,21,Female,R,Donders,2021-07-07_08h54.21.138,ImageRatingTask_S2,2021.1.4,Win32,60.02400962,,,,,,,,,
,,,,,,,,,,,,0,6,6,6,1,seventh,6,21,Female,R,Donders,2021-07-07_08h54.21.138,ImageRatingTask_S2,2021.1.4,Win32,60.02400962,,,,,,,,,
,,,,,,,,,,,,0,7,7,7,1,last,6,21,Female,R,Donders,2021-07-07_08h54.21.138,ImageRatingTask_S2,2021.1.4,Win32,60.02400962,,,,,,,,,
,,,,,,,,,,,,,,,,,,6,21,Female,R,Donders,2021-07-07_08h54.21.138,ImageRatingTask_S2,2021.1.4,Win32,60.02400962,0,63,63,75,1,DreamStudyImages_rs1000x750g/Water/IAPS2446_mudpuddle.jpg,,,
,,7,5.5588,4,0.9526,7,1.945,0,1.4775,,,0,0,0,0,1,main,6,21,Female,R,Donders,2021-07-07_08h54.21.138,ImageRatingTask_S2,2021.1.4,Win32,60.02400962,,,,,,,,,
,,,,,,,,,,,,0,1,1,1,1,second,6,21,Female,R,Donders,2021-07-07_08h54.21.138,ImageRatingTask_S2,2021.1.4,Win32,60.02400962,,,,,,,,,
,,,,,,,,,,,,0,2,2,2,1,third,6,21,Female,R,Donders,2021-07-07_08h54.21.138,ImageRatingTask_S2,2021.1.4,Win32,60.02400962,,,,,,,,,
,,,,,,,,,,,,0,3,3,3,1,fourth,6,21,Female,R,Donders,2021-07-07_08h54.21.138,ImageRatingTask_S2,2021.1.4,Win32,60.02400962,,,,,,,,,
,,,,,,,,,,,,0,4,4,4,1,fifth,6,21,Female,R,Donders,2021-07-07_08h54.21.138,ImageRatingTask_S2,2021.1.4,Win32,60.02400962,,,,,,,,,
,,,,,,,,,,,,0,5,5,5,1,sixth,6,21,Female,R,Donders,2021-07-07_08h54.21.138,ImageRatingTask_S2,2021.1.4,Win32,60.02400962,,,,,,,,,
,,,,,,,,,,,,0,6,6,6,1,seventh,6,21,Female,R,Donders,2021-07-07_08h54.21.138,ImageRatingTask_S2,2021.1.4,Win32,60.02400962,,,,,,,,,
,,,,,,,,,,,,0,7,7,7,1,last,6,21,Female,R,Donders,2021-07-07_08h54.21.138,ImageRatingTask_S2,2021.1.4,Win32,60.02400962,,,,,,,,,
,,,,,,,,,,,,,,,,,,6,21,Female,R,Donders,2021-07-07_08h54.21.138,ImageRatingTask_S2,2021.1.4,Win32,60.02400962,0,64,64,33,1,DreamStudyImages_rs1000x750g/Houses/Landscapes_050_h.jpg,,,
,,6,2.3305,4,1.1088,5,1.8411,1,1.3116,3,1.1343,0,0,0,0,1,main,6,21,Female,R,Donders,2021-07-07_08h54.21.138,ImageRatingTask_S2,2021.1.4,Win32,60.02400962,,,,,,,,,
,,,,,,,,,,,,0,1,1,1,1,second,6,21,Female,R,Donders,2021-07-07_08h54.21.138,ImageRatingTask_S2,2021.1.4,Win32,60.02400962,,,,,,,,,
,,,,,,,,,,,,0,2,2,2,1,third,6,21,Female,R,Donders,2021-07-07_08h54.21.138,ImageRatingTask_S2,2021.1.4,Win32,60.02400962,,,,,,,,,
,,,,,,,,,,,,0,3,3,3,1,fourth,6,21,Female,R,Donders,2021-07-07_08h54.21.138,ImageRatingTask_S2,2021.1.4,Win32,60.02400962,,,,,,,,,
,,,,,,,,,,,,0,4,4,4,1,fifth,6,21,Female,R,Donders,2021-07-07_08h54.21.138,ImageRatingTask_S2,2021.1.4,Win32,60.02400962,,,,,,,,,
,,,,,,,,,,,,0,5,5,5,1,sixth,6,21,Female,R,Donders,2021-07-07_08h54.21.138,ImageRatingTask_S2,2021.1.4,Win32,60.02400962,,,,,,,,,
,,,,,,,,,,,,0,6,6,6,1,seventh,6,21,Female,R,Donders,2021-07-07_08h54.21.138,ImageRatingTask_S2,2021.1.4,Win32,60.02400962,,,,,,,,,
,,,,,,,,,,,,0,7,7,7,1,last,6,21,Female,R,Donders,2021-07-07_08h54.21.138,ImageRatingTask_S2,2021.1.4,Win32,60.02400962,,,,,,,,,
,,,,,,,,,,,,,,,,,,6,21,Female,R,Donders,2021-07-07_08h54.21.138,ImageRatingTask_S2,2021.1.4,Win32,60.02400962,0,65,65,71,1,DreamStudyImages_rs1000x750g/Mammals/IAPS1660_gorilla2.jpg,,,
,,7,1.5899,4,0.9705,7,1.4359,1,1.2531,2,0.4067,0,0,0,0,1,main,6,21,Female,R,Donders,2021-07-07_08h54.21.138,ImageRatingTask_S2,2021.1.4,Win32,60.02400962,,,,,,,,,
,,,,,,,,,,,,0,1,1,1,1,second,6,21,Female,R,Donders,2021-07-07_08h54.21.138,ImageRatingTask_S2,2021.1.4,Win32,60.02400962,,,,,,,,,
,,,,,,,,,,,,0,2,2,2,1,third,6,21,Female,R,Donders,2021-07-07_08h54.21.138,ImageRatingTask_S2,2021.1.4,Win32,60.02400962,,,,,,,,,
,,,,,,,,,,,,0,3,3,3,1,fourth,6,21,Female,R,Donders,2021-07-07_08h54.21.138,ImageRatingTask_S2,2021.1.4,Win32,60.02400962,,,,,,,,,
,,,,,,,,,,,,0,4,4,4,1,fifth,6,21,Female,R,Donders,2021-07-07_08h54.21.138,ImageRatingTask_S2,2021.1.4,Win32,60.02400962,,,,,,,,,
,,,,,,,,,,,,0,5,5,5,1,sixth,6,21,Female,R,Donders,2021-07-07_08h54.21.138,ImageRatingTask_S2,2021.1.4,Win32,60.02400962,,,,,,,,,
,,,,,,,,,,,,0,6,6,6,1,seventh,6,21,Female,R,Donders,2021-07-07_08h54.21.138,ImageRatingTask_S2,2021.1.4,Win32,60.02400962,,,,,,,,,
,,,,,,,,,,,,0,7,7,7,1,last,6,21,Female,R,Donders,2021-07-07_08h54.21.138,ImageRatingTask_S2,2021.1.4,Win32,60.02400962,,,,,,,,,
,,,,,,,,,,,,,,,,,,6,21,Female,R,Donders,2021-07-07_08h54.21.138,ImageRatingTask_S2,2021.1.4,Win32,60.02400962,0,66,66,142,1,DreamStudyImages_rs1000x750g/Children/IAPS2075_baby10.jpg,,,
,,6,4.4304,4,1.0966,6,2.3063,2,1.541,2,0.6934,0,0,0,0,1,main,6,21,Female,R,Donders,2021-07-07_08h54.21.138,ImageRatingTask_S2,2021.1.4,Win32,60.02400962,,,,,,,,,
,,,,,,,,,,1,0.5505,0,1,1,1,1,second,6,21,Female,R,Donders,2021-07-07_08h54.21.138,ImageRatingTask_S2,2021.1.4,Win32,60.02400962,,,,,,,,,
,,,,,,,,,,,,0,2,2,2,1,third,6,21,Female,R,Donders,2021-07-07_08h54.21.138,ImageRatingTask_S2,2021.1.4,Win32,60.02400962,,,,,,,,,
,,,,,,,,,,,,0,3,3,3,1,fourth,6,21,Female,R,Donders,2021-07-07_08h54.21.138,ImageRatingTask_S2,2021.1.4,Win32,60.02400962,,,,,,,,,
,,,,,,,,,,,,0,4,4,4,1,fifth,6,21,Female,R,Donders,2021-07-07_08h54.21.138,ImageRatingTask_S2,2021.1.4,Win32,60.02400962,,,,,,,,,
,,,,,,,,,,,,0,5,5,5,1,sixth,6,21,Female,R,Donders,2021-07-07_08h54.21.138,ImageRatingTask_S2,2021.1.4,Win32,60.02400962,,,,,,,,,
,,,,,,,,,,,,0,6,6,6,1,seventh,6,21,Female,R,Donders,2021-07-07_08h54.21.138,ImageRatingTask_S2,2021.1.4,Win32,60.02400962,,,,,,,,,
,,,,,,,,,,,,0,7,7,7,1,last,6,21,Female,R,Donders,2021-07-07_08h54.21.138,ImageRatingTask_S2,2021.1.4,Win32,60.02400962,,,,,,,,,
,,,,,,,,,,,,,,,,,,6,21,Female,R,Donders,2021-07-07_08h54.21.138,ImageRatingTask_S2,2021.1.4,Win32,60.02400962,0,67,67,136,1,DreamStudyImages_rs1000x750g/Children/People_046_h.jpg,,,
,,7,2.7583,4,2.1072,8,1.7296,1,0.9976,3,0.7358,0,0,0,0,1,main,6,21,Female,R,Donders,2021-07-07_08h54.21.138,ImageRatingTask_S2,2021.1.4,Win32,60.02400962,,,,,,,,,
,,,,,,,,,,,,0,1,1,1,1,second,6,21,Female,R,Donders,2021-07-07_08h54.21.138,ImageRatingTask_S2,2021.1.4,Win32,60.02400962,,,,,,,,,
,,,,,,,,,,,,0,2,2,2,1,third,6,21,Female,R,Donders,2021-07-07_08h54.21.138,ImageRatingTask_S2,2021.1.4,Win32,60.02400962,,,,,,,,,
,,,,,,,,,,,,0,3,3,3,1,fourth,6,21,Female,R,Donders,2021-07-07_08h54.21.138,ImageRatingTask_S2,2021.1.4,Win32,60.02400962,,,,,,,,,
,,,,,,,,,,,,0,4,4,4,1,fifth,6,21,Female,R,Donders,2021-07-07_08h54.21.138,ImageRatingTask_S2,2021.1.4,Win32,60.02400962,,,,,,,,,
,,,,,,,,,,,,0,5,5,5,1,sixth,6,21,Female,R,Donders,2021-07-07_08h54.21.138,ImageRatingTask_S2,2021.1.4,Win32,60.02400962,,,,,,,,,
,,,,,,,,,,,,0,6,6,6,1,seventh,6,21,Female,R,Donders,2021-07-07_08h54.21.138,ImageRatingTask_S2,2021.1.4,Win32,60.02400962,,,,,,,,,
,,,,,,,,,,,,0,7,7,7,1,last,6,21,Female,R,Donders,2021-07-07_08h54.21.138,ImageRatingTask_S2,2021.1.4,Win32,60.02400962,,,,,,,,,
,,,,,,,,,,,,,,,,,,6,21,Female,R,Donders,2021-07-07_08h54.21.138,ImageRatingTask_S2,2021.1.4,Win32,60.02400962,0,68,68,132,1,DreamStudyImages_rs1000x750g/Mammals/Animals_053_h.jpg,,,
,,7,2.5535,6,1.5901,7,2.0637,1,0.9517,5,0.7405,0,0,0,0,1,main,6,21,Female,R,Donders,2021-07-07_08h54.21.138,ImageRatingTask_S2,2021.1.4,Win32,60.02400962,,,,,,,,,
,,,,,,,,,,,,0,1,1,1,1,second,6,21,Female,R,Donders,2021-07-07_08h54.21.138,ImageRatingTask_S2,2021.1.4,Win32,60.02400962,,,,,,,,,
,,,,,,,,,,,,0,2,2,2,1,third,6,21,Female,R,Donders,2021-07-07_08h54.21.138,ImageRatingTask_S2,2021.1.4,Win32,60.02400962,,,,,,,,,
,,,,,,,,,,,,0,3,3,3,1,fourth,6,21,Female,R,Donders,2021-07-07_08h54.21.138,ImageRatingTask_S2,2021.1.4,Win32,60.02400962,,,,,,,,,
,,,,,,,,,,,,0,4,4,4,1,fifth,6,21,Female,R,Donders,2021-07-07_08h54.21.138,ImageRatingTask_S2,2021.1.4,Win32,60.02400962,,,,,,,,,
,,,,,,,,,,,,0,5,5,5,1,sixth,6,21,Female,R,Donders,2021-07-07_08h54.21.138,ImageRatingTask_S2,2021.1.4,Win32,60.02400962,,,,,,,,,
,,,,,,,,,,,,0,6,6,6,1,seventh,6,21,Female,R,Donders,2021-07-07_08h54.21.138,ImageRatingTask_S2,2021.1.4,Win32,60.02400962,,,,,,,,,
,,,,,,,,,,,,0,7,7,7,1,last,6,21,Female,R,Donders,2021-07-07_08h54.21.138,ImageRatingTask_S2,2021.1.4,Win32,60.02400962,,,,,,,,,
,,,,,,,,,,,,,,,,,,6,21,Female,R,Donders,2021-07-07_08h54.21.138,ImageRatingTask_S2,2021.1.4,Win32,60.02400962,0,69,69,6,1,DreamStudyImages_rs1000x750g/Food/IAPS7475_curry.jpg,,,
,,3,2.1486,6,3.3373,6,3.3009,1,1.0463,2,0.3219,0,0,0,0,1,main,6,21,Female,R,Donders,2021-07-07_08h54.21.138,ImageRatingTask_S2,2021.1.4,Win32,60.02400962,,,,,,,,,
,,,,,,,,,,,,0,1,1,1,1,second,6,21,Female,R,Donders,2021-07-07_08h54.21.138,ImageRatingTask_S2,2021.1.4,Win32,60.02400962,,,,,,,,,
,,,,,,,,,,,,0,2,2,2,1,third,6,21,Female,R,Donders,2021-07-07_08h54.21.138,ImageRatingTask_S2,2021.1.4,Win32,60.02400962,,,,,,,,,
,,,,,,,,,,,,0,3,3,3,1,fourth,6,21,Female,R,Donders,2021-07-07_08h54.21.138,ImageRatingTask_S2,2021.1.4,Win32,60.02400962,,,,,,,,,
,,,,,,,,,,,,0,4,4,4,1,fifth,6,21,Female,R,Donders,2021-07-07_08h54.21.138,ImageRatingTask_S2,2021.1.4,Win32,60.02400962,,,,,,,,,
,,,,,,,,,,,,0,5,5,5,1,sixth,6,21,Female,R,Donders,2021-07-07_08h54.21.138,ImageRatingTask_S2,2021.1.4,Win32,60.02400962,,,,,,,,,
,,,,,,,,,,,,0,6,6,6,1,seventh,6,21,Female,R,Donders,2021-07-07_08h54.21.138,ImageRatingTask_S2,2021.1.4,Win32,60.02400962,,,,,,,,,
,,,,,,,,,,,,0,7,7,7,1,last,6,21,Female,R,Donders,2021-07-07_08h54.21.138,ImageRatingTask_S2,2021.1.4,Win32,60.02400962,,,,,,,,,
,,,,,,,,,,,,,,,,,,6,21,Female,R,Donders,2021-07-07_08h54.21.138,ImageRatingTask_S2,2021.1.4,Win32,60.02400962,0,70,70,82,1,DreamStudyImages_rs1000x750g/Children/Faces_025_h.jpg,,,
,,6,3.4802,4,2.283,8,3.7601,1,1.0572,7,0.7032,0,0,0,0,1,main,6,21,Female,R,Donders,2021-07-07_08h54.21.138,ImageRatingTask_S2,2021.1.4,Win32,60.02400962,,,,,,,,,
,,,,,,,,,,,,0,1,1,1,1,second,6,21,Female,R,Donders,2021-07-07_08h54.21.138,ImageRatingTask_S2,2021.1.4,Win32,60.02400962,,,,,,,,,
,,,,,,,,,,,,0,2,2,2,1,third,6,21,Female,R,Donders,2021-07-07_08h54.21.138,ImageRatingTask_S2,2021.1.4,Win32,60.02400962,,,,,,,,,
,,,,,,,,,,,,0,3,3,3,1,fourth,6,21,Female,R,Donders,2021-07-07_08h54.21.138,ImageRatingTask_S2,2021.1.4,Win32,60.02400962,,,,,,,,,
,,,,,,,,,,,,0,4,4,4,1,fifth,6,21,Female,R,Donders,2021-07-07_08h54.21.138,ImageRatingTask_S2,2021.1.4,Win32,60.02400962,,,,,,,,,
,,,,,,,,,,,,0,5,5,5,1,sixth,6,21,Female,R,Donders,2021-07-07_08h54.21.138,ImageRatingTask_S2,2021.1.4,Win32,60.02400962,,,,,,,,,
,,,,,,,,,,,,0,6,6,6,1,seventh,6,21,Female,R,Donders,2021-07-07_08h54.21.138,ImageRatingTask_S2,2021.1.4,Win32,60.02400962,,,,,,,,,
,,,,,,,,,,,,0,7,7,7,1,last,6,21,Female,R,Donders,2021-07-07_08h54.21.138,ImageRatingTask_S2,2021.1.4,Win32,60.02400962,,,,,,,,,
,,,,,,,,,,,,,,,,,,6,21,Female,R,Donders,2021-07-07_08h54.21.138,ImageRatingTask_S2,2021.1.4,Win32,60.02400962,0,71,71,43,1,DreamStudyImages_rs1000x750g/Vehicles/Objects_322_h.jpg,,,
,,7,1.4064,5,3.6082,6,2.8963,1,2.3733,2,0.4735,0,0,0,0,1,main,6,21,Female,R,Donders,2021-07-07_08h54.21.138,ImageRatingTask_S2,2021.1.4,Win32,60.02400962,,,,,,,,,
,,,,,,,,,,,,0,1,1,1,1,second,6,21,Female,R,Donders,2021-07-07_08h54.21.138,ImageRatingTask_S2,2021.1.4,Win32,60.02400962,,,,,,,,,
,,,,,,,,,,,,0,2,2,2,1,third,6,21,Female,R,Donders,2021-07-07_08h54.21.138,ImageRatingTask_S2,2021.1.4,Win32,60.02400962,,,,,,,,,
,,,,,,,,,,,,0,3,3,3,1,fourth,6,21,Female,R,Donders,2021-07-07_08h54.21.138,ImageRatingTask_S2,2021.1.4,Win32,60.02400962,,,,,,,,,
,,,,,,,,,,,,0,4,4,4,1,fifth,6,21,Female,R,Donders,2021-07-07_08h54.21.138,ImageRatingTask_S2,2021.1.4,Win32,60.02400962,,,,,,,,,
,,,,,,,,,,,,0,5,5,5,1,sixth,6,21,Female,R,Donders,2021-07-07_08h54.21.138,ImageRatingTask_S2,2021.1.4,Win32,60.02400962,,,,,,,,,
,,,,,,,,,,,,0,6,6,6,1,seventh,6,21,Female,R,Donders,2021-07-07_08h54.21.138,ImageRatingTask_S2,2021.1.4,Win32,60.02400962,,,,,,,,,
,,,,,,,,,,,,0,7,7,7,1,last,6,21,Female,R,Donders,2021-07-07_08h54.21.138,ImageRatingTask_S2,2021.1.4,Win32,60.02400962,,,,,,,,,
,,,,,,,,,,,,,,,,,,6,21,Female,R,Donders,2021-07-07_08h54.21.138,ImageRatingTask_S2,2021.1.4,Win32,60.02400962,0,72,72,13,1,DreamStudyImages_rs1000x750g/Children/Baby 2.jpg,,,
,,7,2.0486,4,2.0069,5,1.7735,1,1.1621,2,0.2998,0,0,0,0,1,main,6,21,Female,R,Donders,2021-07-07_08h54.21.138,ImageRatingTask_S2,2021.1.4,Win32,60.02400962,,,,,,,,,
,,,,,,,,,,,,0,1,1,1,1,second,6,21,Female,R,Donders,2021-07-07_08h54.21.138,ImageRatingTask_S2,2021.1.4,Win32,60.02400962,,,,,,,,,
,,,,,,,,,,,,0,2,2,2,1,third,6,21,Female,R,Donders,2021-07-07_08h54.21.138,ImageRatingTask_S2,2021.1.4,Win32,60.02400962,,,,,,,,,
,,,,,,,,,,,,0,3,3,3,1,fourth,6,21,Female,R,Donders,2021-07-07_08h54.21.138,ImageRatingTask_S2,2021.1.4,Win32,60.02400962,,,,,,,,,
,,,,,,,,,,,,0,4,4,4,1,fifth,6,21,Female,R,Donders,2021-07-07_08h54.21.138,ImageRatingTask_S2,2021.1.4,Win32,60.02400962,,,,,,,,,
,,,,,,,,,,,,0,5,5,5,1,sixth,6,21,Female,R,Donders,2021-07-07_08h54.21.138,ImageRatingTask_S2,2021.1.4,Win32,60.02400962,,,,,,,,,
,,,,,,,,,,,,0,6,6,6,1,seventh,6,21,Female,R,Donders,2021-07-07_08h54.21.138,ImageRatingTask_S2,2021.1.4,Win32,60.02400962,,,,,,,,,
,,,,,,,,,,,,0,7,7,7,1,last,6,21,Female,R,Donders,2021-07-07_08h54.21.138,ImageRatingTask_S2,2021.1.4,Win32,60.02400962,,,,,,,,,
,,,,,,,,,,,,,,,,,,6,21,Female,R,Donders,2021-07-07_08h54.21.138,ImageRatingTask_S2,2021.1.4,Win32,60.02400962,0,73,73,93,1,DreamStudyImages_rs1000x750g/Children/Children 1.jpg,,,
,,6,5.3845,4,2.0975,6,2.6634,1,1.0616,5,0.8358,0,0,0,0,1,main,6,21,Female,R,Donders,2021-07-07_08h54.21.138,ImageRatingTask_S2,2021.1.4,Win32,60.02400962,,,,,,,,,
,,,,,,,,,,,,0,1,1,1,1,second,6,21,Female,R,Donders,2021-07-07_08h54.21.138,ImageRatingTask_S2,2021.1.4,Win32,60.02400962,,,,,,,,,
,,,,,,,,,,,,0,2,2,2,1,third,6,21,Female,R,Donders,2021-07-07_08h54.21.138,ImageRatingTask_S2,2021.1.4,Win32,60.02400962,,,,,,,,,
,,,,,,,,,,,,0,3,3,3,1,fourth,6,21,Female,R,Donders,2021-07-07_08h54.21.138,ImageRatingTask_S2,2021.1.4,Win32,60.02400962,,,,,,,,,
,,,,,,,,,,,,0,4,4,4,1,fifth,6,21,Female,R,Donders,2021-07-07_08h54.21.138,ImageRatingTask_S2,2021.1.4,Win32,60.02400962,,,,,,,,,
,,,,,,,,,,,,0,5,5,5,1,sixth,6,21,Female,R,Donders,2021-07-07_08h54.21.138,ImageRatingTask_S2,2021.1.4,Win32,60.02400962,,,,,,,,,
,,,,,,,,,,,,0,6,6,6,1,seventh,6,21,Female,R,Donders,2021-07-07_08h54.21.138,ImageRatingTask_S2,2021.1.4,Win32,60.02400962,,,,,,,,,
,,,,,,,,,,,,0,7,7,7,1,last,6,21,Female,R,Donders,2021-07-07_08h54.21.138,ImageRatingTask_S2,2021.1.4,Win32,60.02400962,,,,,,,,,
,,,,,,,,,,,,,,,,,,6,21,Female,R,Donders,2021-07-07_08h54.21.138,ImageRatingTask_S2,2021.1.4,Win32,60.02400962,0,74,74,35,1,DreamStudyImages_rs1000x750g/Food/IAPS7286_dessert2.jpg,,,
,,2,1.634,7,1.2608,5,2.4018,1,2.0668,8,1.0916,0,0,0,0,1,main,6,21,Female,R,Donders,2021-07-07_08h54.21.138,ImageRatingTask_S2,2021.1.4,Win32,60.02400962,,,,,,,,,
,,,,,,,,,,,,0,1,1,1,1,second,6,21,Female,R,Donders,2021-07-07_08h54.21.138,ImageRatingTask_S2,2021.1.4,Win32,60.02400962,,,,,,,,,
,,,,,,,,,,,,0,2,2,2,1,third,6,21,Female,R,Donders,2021-07-07_08h54.21.138,ImageRatingTask_S2,2021.1.4,Win32,60.02400962,,,,,,,,,
,,,,,,,,,,,,0,3,3,3,1,fourth,6,21,Female,R,Donders,2021-07-07_08h54.21.138,ImageRatingTask_S2,2021.1.4,Win32,60.02400962,,,,,,,,,
,,,,,,,,,,,,0,4,4,4,1,fifth,6,21,Female,R,Donders,2021-07-07_08h54.21.138,ImageRatingTask_S2,2021.1.4,Win32,60.02400962,,,,,,,,,
,,,,,,,,,,,,0,5,5,5,1,sixth,6,21,Female,R,Donders,2021-07-07_08h54.21.138,ImageRatingTask_S2,2021.1.4,Win32,60.02400962,,,,,,,,,
,,,,,,,,,,,,0,6,6,6,1,seventh,6,21,Female,R,Donders,2021-07-07_08h54.21.138,ImageRatingTask_S2,2021.1.4,Win32,60.02400962,,,,,,,,,
,,,,,,,,,,,,0,7,7,7,1,last,6,21,Female,R,Donders,2021-07-07_08h54.21.138,ImageRatingTask_S2,2021.1.4,Win32,60.02400962,,,,,,,,,
,,,,,,,,,,,,,,,,,,6,21,Female,R,Donders,2021-07-07_08h54.21.138,ImageRatingTask_S2,2021.1.4,Win32,60.02400962,0,75,75,14,1,DreamStudyImages_rs1000x750g/Water/Garbage dump 2.jpg,,,
,,2,2.9666,7,1.4586,3,1.9589,1,1.8398,6,1.0611,0,0,0,0,1,main,6,21,Female,R,Donders,2021-07-07_08h54.21.138,ImageRatingTask_S2,2021.1.4,Win32,60.02400962,,,,,,,,,
,,,,,,,,,,,,0,1,1,1,1,second,6,21,Female,R,Donders,2021-07-07_08h54.21.138,ImageRatingTask_S2,2021.1.4,Win32,60.02400962,,,,,,,,,
,,,,,,,,,,,,0,2,2,2,1,third,6,21,Female,R,Donders,2021-07-07_08h54.21.138,ImageRatingTask_S2,2021.1.4,Win32,60.02400962,,,,,,,,,
,,,,,,,,,,,,0,3,3,3,1,fourth,6,21,Female,R,Donders,2021-07-07_08h54.21.138,ImageRatingTask_S2,2021.1.4,Win32,60.02400962,,,,,,,,,
,,,,,,,,,,,,0,4,4,4,1,fifth,6,21,Female,R,Donders,2021-07-07_08h54.21.138,ImageRatingTask_S2,2021.1.4,Win32,60.02400962,,,,,,,,,
,,,,,,,,,,,,0,5,5,5,1,sixth,6,21,Female,R,Donders,2021-07-07_08h54.21.138,ImageRatingTask_S2,2021.1.4,Win32,60.02400962,,,,,,,,,
,,,,,,,,,,,,0,6,6,6,1,seventh,6,21,Female,R,Donders,2021-07-07_08h54.21.138,ImageRatingTask_S2,2021.1.4,Win32,60.02400962,,,,,,,,,
,,,,,,,,,,,,0,7,7,7,1,last,6,21,Female,R,Donders,2021-07-07_08h54.21.138,ImageRatingTask_S2,2021.1.4,Win32,60.02400962,,,,,,,,,
,,,,,,,,,,,,,,,,,,6,21,Female,R,Donders,2021-07-07_08h54.21.138,ImageRatingTask_S2,2021.1.4,Win32,60.02400962,0,76,76,7,1,DreamStudyImages_rs1000x750g/Houses/NDPS4_buildings2_water_CROPPED.jpg,,,
,,5,6.1735,4,1.4392,6,2.3165,1,1.161,5,0.8899,0,0,0,0,1,main,6,21,Female,R,Donders,2021-07-07_08h54.21.138,ImageRatingTask_S2,2021.1.4,Win32,60.02400962,,,,,,,,,
,,,,,,,,,,,,0,1,1,1,1,second,6,21,Female,R,Donders,2021-07-07_08h54.21.138,ImageRatingTask_S2,2021.1.4,Win32,60.02400962,,,,,,,,,
,,,,,,,,,,,,0,2,2,2,1,third,6,21,Female,R,Donders,2021-07-07_08h54.21.138,ImageRatingTask_S2,2021.1.4,Win32,60.02400962,,,,,,,,,
,,,,,,,,,,,,0,3,3,3,1,fourth,6,21,Female,R,Donders,2021-07-07_08h54.21.138,ImageRatingTask_S2,2021.1.4,Win32,60.02400962,,,,,,,,,
,,,,,,,,,,,,0,4,4,4,1,fifth,6,21,Female,R,Donders,2021-07-07_08h54.21.138,ImageRatingTask_S2,2021.1.4,Win32,60.02400962,,,,,,,,,
,,,,,,,,,,,,0,5,5,5,1,sixth,6,21,Female,R,Donders,2021-07-07_08h54.21.138,ImageRatingTask_S2,2021.1.4,Win32,60.02400962,,,,,,,,,
,,,,,,,,,,,,0,6,6,6,1,seventh,6,21,Female,R,Donders,2021-07-07_08h54.21.138,ImageRatingTask_S2,2021.1.4,Win32,60.02400962,,,,,,,,,
,,,,,,,,,,,,0,7,7,7,1,last,6,21,Female,R,Donders,2021-07-07_08h54.21.138,ImageRatingTask_S2,2021.1.4,Win32,60.02400962,,,,,,,,,
,,,,,,,,,,,,,,,,,,6,21,Female,R,Donders,2021-07-07_08h54.21.138,ImageRatingTask_S2,2021.1.4,Win32,60.02400962,0,77,77,72,1,DreamStudyImages_rs1000x750g/Food/Objects_036_v.jpg,,,
,,6,4.6919,5,1.8086,8,4.2507,1,1.3904,3,0.6936,0,0,0,0,1,main,6,21,Female,R,Donders,2021-07-07_08h54.21.138,ImageRatingTask_S2,2021.1.4,Win32,60.02400962,,,,,,,,,
,,,,,,,,,,,,0,1,1,1,1,second,6,21,Female,R,Donders,2021-07-07_08h54.21.138,ImageRatingTask_S2,2021.1.4,Win32,60.02400962,,,,,,,,,
,,,,,,,,,,,,0,2,2,2,1,third,6,21,Female,R,Donders,2021-07-07_08h54.21.138,ImageRatingTask_S2,2021.1.4,Win32,60.02400962,,,,,,,,,
,,,,,,,,,,,,0,3,3,3,1,fourth,6,21,Female,R,Donders,2021-07-07_08h54.21.138,ImageRatingTask_S2,2021.1.4,Win32,60.02400962,,,,,,,,,
,,,,,,,,,,,,0,4,4,4,1,fifth,6,21,Female,R,Donders,2021-07-07_08h54.21.138,ImageRatingTask_S2,2021.1.4,Win32,60.02400962,,,,,,,,,
,,,,,,,,,,,,0,5,5,5,1,sixth,6,21,Female,R,Donders,2021-07-07_08h54.21.138,ImageRatingTask_S2,2021.1.4,Win32,60.02400962,,,,,,,,,
,,,,,,,,,,,,0,6,6,6,1,seventh,6,21,Female,R,Donders,2021-07-07_08h54.21.138,ImageRatingTask_S2,2021.1.4,Win32,60.02400962,,,,,,,,,
,,,,,,,,,,,,0,7,7,7,1,last,6,21,Female,R,Donders,2021-07-07_08h54.21.138,ImageRatingTask_S2,2021.1.4,Win32,60.02400962,,,,,,,,,
,,,,,,,,,,,,,,,,,,6,21,Female,R,Donders,2021-07-07_08h54.21.138,ImageRatingTask_S2,2021.1.4,Win32,60.02400962,0,78,78,49,1,DreamStudyImages_rs1000x750g/Mammals/Animals_050_h.jpg,,,
,,6,1.8414,2,1.9674,4,3.5522,1,0.9452,2,0.3679,0,0,0,0,1,main,6,21,Female,R,Donders,2021-07-07_08h54.21.138,ImageRatingTask_S2,2021.1.4,Win32,60.02400962,,,,,,,,,
,,,,,,,,,,,,0,1,1,1,1,second,6,21,Female,R,Donders,2021-07-07_08h54.21.138,ImageRatingTask_S2,2021.1.4,Win32,60.02400962,,,,,,,,,
,,,,,,,,,,,,0,2,2,2,1,third,6,21,Female,R,Donders,2021-07-07_08h54.21.138,ImageRatingTask_S2,2021.1.4,Win32,60.02400962,,,,,,,,,
,,,,,,,,,,,,0,3,3,3,1,fourth,6,21,Female,R,Donders,2021-07-07_08h54.21.138,ImageRatingTask_S2,2021.1.4,Win32,60.02400962,,,,,,,,,
,,,,,,,,,,,,0,4,4,4,1,fifth,6,21,Female,R,Donders,2021-07-07_08h54.21.138,ImageRatingTask_S2,2021.1.4,Win32,60.02400962,,,,,,,,,
,,,,,,,,,,,,0,5,5,5,1,sixth,6,21,Female,R,Donders,2021-07-07_08h54.21.138,ImageRatingTask_S2,2021.1.4,Win32,60.02400962,,,,,,,,,
