slider_pre.response,slider_pre.rt,key_val.keys,key_val.rt,key_aro.keys,key_aro.rt,key_qual.keys,key_qual.rt,key_ncat.keys,key_ncat.rt,key_cats.keys,key_cats.rt,ncat_order.thisRepN,ncat_order.thisTrialN,ncat_order.thisN,ncat_order.thisIndex,ncat_order.ran,cond_cat,participant,age,gender,handedness (L/R),site (IMT/Donders),date,expName,psychopyVersion,OS,frameRate,img_trials.thisRepN,img_trials.thisTrialN,img_trials.thisN,img_trials.thisIndex,img_trials.ran,filename,slider_post.response,slider_post.rt,textbox_openfb.text
7,4.5447,3,1.809,7,3.5588,7,2.0839,1,1.6435,2,0.3303,0,0,0,0,1,main,6,21,Female,R,Donders,2021-07-07_10h36.36.450,ImageRatingTask_S3,2021.1.4,Win32,61.05378839,,,,,,,,,
,,,,,,,,,,,,0,1,1,1,1,second,6,21,Female,R,Donders,2021-07-07_10h36.36.450,ImageRatingTask_S3,2021.1.4,Win32,61.05378839,,,,,,,,,
,,,,,,,,,,,,0,2,2,2,1,third,6,21,Female,R,Donders,2021-07-07_10h36.36.450,ImageRatingTask_S3,2021.1.4,Win32,61.05378839,,,,,,,,,
,,,,,,,,,,,,0,3,3,3,1,fourth,6,21,Female,R,Donders,2021-07-07_10h36.36.450,ImageRatingTask_S3,2021.1.4,Win32,61.05378839,,,,,,,,,
,,,,,,,,,,,,0,4,4,4,1,fifth,6,21,Female,R,Donders,2021-07-07_10h36.36.450,ImageRatingTask_S3,2021.1.4,Win32,61.05378839,,,,,,,,,
,,,,,,,,,,,,0,5,5,5,1,sixth,6,21,Female,R,Donders,2021-07-07_10h36.36.450,ImageRatingTask_S3,2021.1.4,Win32,61.05378839,,,,,,,,,
,,,,,,,,,,,,0,6,6,6,1,seventh,6,21,Female,R,Donders,2021-07-07_10h36.36.450,ImageRatingTask_S3,2021.1.4,Win32,61.05378839,,,,,,,,,
,,,,,,,,,,,,0,7,7,7,1,last,6,21,Female,R,Donders,2021-07-07_10h36.36.450,ImageRatingTask_S3,2021.1.4,Win32,61.05378839,,,,,,,,,
,,,,,,,,,,,,,,,,,,6,21,Female,R,Donders,2021-07-07_10h36.36.450,ImageRatingTask_S3,2021.1.4,Win32,61.05378839,0,0,0,151,1,DreamStudyImages_rs1000x750g/Children/IAPS9041_child9.jpg,,,
,,4,2.3932,6,1.8943,6,1.4053,1,1.7566,6,1.0284,0,0,0,0,1,main,6,21,Female,R,Donders,2021-07-07_10h36.36.450,ImageRatingTask_S3,2021.1.4,Win32,61.05378839,,,,,,,,,
,,,,,,,,,,,,0,1,1,1,1,second,6,21,Female,R,Donders,2021-07-07_10h36.36.450,ImageRatingTask_S3,2021.1.4,Win32,61.05378839,,,,,,,,,
,,,,,,,,,,,,0,2,2,2,1,third,6,21,Female,R,Donders,2021-07-07_10h36.36.450,ImageRatingTask_S3,2021.1.4,Win32,61.05378839,,,,,,,,,
,,,,,,,,,,,,0,3,3,3,1,fourth,6,21,Female,R,Donders,2021-07-07_10h36.36.450,ImageRatingTask_S3,2021.1.4,Win32,61.05378839,,,,,,,,,
,,,,,,,,,,,,0,4,4,4,1,fifth,6,21,Female,R,Donders,2021-07-07_10h36.36.450,ImageRatingTask_S3,2021.1.4,Win32,61.05378839,,,,,,,,,
,,,,,,,,,,,,0,5,5,5,1,sixth,6,21,Female,R,Donders,2021-07-07_10h36.36.450,ImageRatingTask_S3,2021.1.4,Win32,61.05378839,,,,,,,,,
,,,,,,,,,,,,0,6,6,6,1,seventh,6,21,Female,R,Donders,2021-07-07_10h36.36.450,ImageRatingTask_S3,2021.1.4,Win32,61.05378839,,,,,,,,,
,,,,,,,,,,,,0,7,7,7,1,last,6,21,Female,R,Donders,2021-07-07_10h36.36.450,ImageRatingTask_S3,2021.1.4,Win32,61.05378839,,,,,,,,,
,,,,,,,,,,,,,,,,,,6,21,Female,R,Donders,2021-07-07_10h36.36.450,ImageRatingTask_S3,2021.1.4,Win32,61.05378839,0,1,1,2,1,DreamStudyImages_rs1000x750g/Houses/NDPS113_houseonfire2.jpg,,,
,,9,1.6062,6,1.6767,7,1.8583,1,1.2006,3,1.14,0,0,0,0,1,main,6,21,Female,R,Donders,2021-07-07_10h36.36.450,ImageRatingTask_S3,2021.1.4,Win32,61.05378839,,,,,,,,,
,,,,,,,,,,,,0,1,1,1,1,second,6,21,Female,R,Donders,2021-07-07_10h36.36.450,ImageRatingTask_S3,2021.1.4,Win32,61.05378839,,,,,,,,,
,,,,,,,,,,,,0,2,2,2,1,third,6,21,Female,R,Donders,2021-07-07_10h36.36.450,ImageRatingTask_S3,2021.1.4,Win32,61.05378839,,,,,,,,,
,,,,,,,,,,,,0,3,3,3,1,fourth,6,21,Female,R,Donders,2021-07-07_10h36.36.450,ImageRatingTask_S3,2021.1.4,Win32,61.05378839,,,,,,,,,
,,,,,,,,,,,,0,4,4,4,1,fifth,6,21,Female,R,Donders,2021-07-07_10h36.36.450,ImageRatingTask_S3,2021.1.4,Win32,61.05378839,,,,,,,,,
,,,,,,,,,,,,0,5,5,5,1,sixth,6,21,Female,R,Donders,2021-07-07_10h36.36.450,ImageRatingTask_S3,2021.1.4,Win32,61.05378839,,,,,,,,,
,,,,,,,,,,,,0,6,6,6,1,seventh,6,21,Female,R,Donders,2021-07-07_10h36.36.450,ImageRatingTask_S3,2021.1.4,Win32,61.05378839,,,,,,,,,
,,,,,,,,,,,,0,7,7,7,1,last,6,21,Female,R,Donders,2021-07-07_10h36.36.450,ImageRatingTask_S3,2021.1.4,Win32,61.05378839,,,,,,,,,
,,,,,,,,,,,,,,,,,,6,21,Female,R,Donders,2021-07-07_10h36.36.450,ImageRatingTask_S3,2021.1.4,Win32,61.05378839,0,2,2,6,1,DreamStudyImages_rs1000x750g/Mammals/IAPS1721_tiger1.jpg,,,
,,5,2.6114,2,1.0671,7,2.1057,1,1.2378,8,0.7169,0,0,0,0,1,main,6,21,Female,R,Donders,2021-07-07_10h36.36.450,ImageRatingTask_S3,2021.1.4,Win32,61.05378839,,,,,,,,,
,,,,,,,,,,,,0,1,1,1,1,second,6,21,Female,R,Donders,2021-07-07_10h36.36.450,ImageRatingTask_S3,2021.1.4,Win32,61.05378839,,,,,,,,,
,,,,,,,,,,,,0,2,2,2,1,third,6,21,Female,R,Donders,2021-07-07_10h36.36.450,ImageRatingTask_S3,2021.1.4,Win32,61.05378839,,,,,,,,,
,,,,,,,,,,,,0,3,3,3,1,fourth,6,21,Female,R,Donders,2021-07-07_10h36.36.450,ImageRatingTask_S3,2021.1.4,Win32,61.05378839,,,,,,,,,
,,,,,,,,,,,,0,4,4,4,1,fifth,6,21,Female,R,Donders,2021-07-07_10h36.36.450,ImageRatingTask_S3,2021.1.4,Win32,61.05378839,,,,,,,,,
,,,,,,,,,,,,0,5,5,5,1,sixth,6,21,Female,R,Donders,2021-07-07_10h36.36.450,ImageRatingTask_S3,2021.1.4,Win32,61.05378839,,,,,,,,,
,,,,,,,,,,,,0,6,6,6,1,seventh,6,21,Female,R,Donders,2021-07-07_10h36.36.450,ImageRatingTask_S3,2021.1.4,Win32,61.05378839,,,,,,,,,
,,,,,,,,,,,,0,7,7,7,1,last,6,21,Female,R,Donders,2021-07-07_10h36.36.450,ImageRatingTask_S3,2021.1.4,Win32,61.05378839,,,,,,,,,
,,,,,,,,,,,,,,,,,,6,21,Female,R,Donders,2021-07-07_10h36.36.450,ImageRatingTask_S3,2021.1.4,Win32,61.05378839,0,3,3,52,1,DreamStudyImages_rs1000x750g/Water/tunnelwithwater.jpg,,,
,,4,1.6335,4,2.2287,5,1.6904,1,1.1579,2,0.7874,0,0,0,0,1,main,6,21,Female,R,Donders,2021-07-07_10h36.36.450,ImageRatingTask_S3,2021.1.4,Win32,61.05378839,,,,,,,,,
,,,,,,,,,,,,0,1,1,1,1,second,6,21,Female,R,Donders,2021-07-07_10h36.36.450,ImageRatingTask_S3,2021.1.4,Win32,61.05378839,,,,,,,,,
,,,,,,,,,,,,0,2,2,2,1,third,6,21,Female,R,Donders,2021-07-07_10h36.36.450,ImageRatingTask_S3,2021.1.4,Win32,61.05378839,,,,,,,,,
,,,,,,,,,,,,0,3,3,3,1,fourth,6,21,Female,R,Donders,2021-07-07_10h36.36.450,ImageRatingTask_S3,2021.1.4,Win32,61.05378839,,,,,,,,,
,,,,,,,,,,,,0,4,4,4,1,fifth,6,21,Female,R,Donders,2021-07-07_10h36.36.450,ImageRatingTask_S3,2021.1.4,Win32,61.05378839,,,,,,,,,
,,,,,,,,,,,,0,5,5,5,1,sixth,6,21,Female,R,Donders,2021-07-07_10h36.36.450,ImageRatingTask_S3,2021.1.4,Win32,61.05378839,,,,,,,,,
,,,,,,,,,,,,0,6,6,6,1,seventh,6,21,Female,R,Donders,2021-07-07_10h36.36.450,ImageRatingTask_S3,2021.1.4,Win32,61.05378839,,,,,,,,,
,,,,,,,,,,,,0,7,7,7,1,last,6,21,Female,R,Donders,2021-07-07_10h36.36.450,ImageRatingTask_S3,2021.1.4,Win32,61.05378839,,,,,,,,,
,,,,,,,,,,,,,,,,,,6,21,Female,R,Donders,2021-07-07_10h36.36.450,ImageRatingTask_S3,2021.1.4,Win32,61.05378839,0,4,4,96,1,DreamStudyImages_rs1000x750g/Children/IAPS2276_girl3.jpg,,,
,,7,3.1221,2,1.3544,7,1.6677,1,1.2506,8,0.7056,0,0,0,0,1,main,6,21,Female,R,Donders,2021-07-07_10h36.36.450,ImageRatingTask_S3,2021.1.4,Win32,61.05378839,,,,,,,,,
,,,,,,,,,,,,0,1,1,1,1,second,6,21,Female,R,Donders,2021-07-07_10h36.36.450,ImageRatingTask_S3,2021.1.4,Win32,61.05378839,,,,,,,,,
,,,,,,,,,,,,0,2,2,2,1,third,6,21,Female,R,Donders,2021-07-07_10h36.36.450,ImageRatingTask_S3,2021.1.4,Win32,61.05378839,,,,,,,,,
,,,,,,,,,,,,0,3,3,3,1,fourth,6,21,Female,R,Donders,2021-07-07_10h36.36.450,ImageRatingTask_S3,2021.1.4,Win32,61.05378839,,,,,,,,,
,,,,,,,,,,,,0,4,4,4,1,fifth,6,21,Female,R,Donders,2021-07-07_10h36.36.450,ImageRatingTask_S3,2021.1.4,Win32,61.05378839,,,,,,,,,
,,,,,,,,,,,,0,5,5,5,1,sixth,6,21,Female,R,Donders,2021-07-07_10h36.36.450,ImageRatingTask_S3,2021.1.4,Win32,61.05378839,,,,,,,,,
,,,,,,,,,,,,0,6,6,6,1,seventh,6,21,Female,R,Donders,2021-07-07_10h36.36.450,ImageRatingTask_S3,2021.1.4,Win32,61.05378839,,,,,,,,,
,,,,,,,,,,,,0,7,7,7,1,last,6,21,Female,R,Donders,2021-07-07_10h36.36.450,ImageRatingTask_S3,2021.1.4,Win32,61.05378839,,,,,,,,,
,,,,,,,,,,,,,,,,,,6,21,Female,R,Donders,2021-07-07_10h36.36.450,ImageRatingTask_S3,2021.1.4,Win32,61.05378839,0,5,5,79,1,DreamStudyImages_rs1000x750g/Water/Sunset 3.jpg,,,
,,7,2.268,4,1.2998,8,1.6593,1,2.9943,3,0.9176,0,0,0,0,1,main,6,21,Female,R,Donders,2021-07-07_10h36.36.450,ImageRatingTask_S3,2021.1.4,Win32,61.05378839,,,,,,,,,
,,,,,,,,,,,,0,1,1,1,1,second,6,21,Female,R,Donders,2021-07-07_10h36.36.450,ImageRatingTask_S3,2021.1.4,Win32,61.05378839,,,,,,,,,
,,,,,,,,,,,,0,2,2,2,1,third,6,21,Female,R,Donders,2021-07-07_10h36.36.450,ImageRatingTask_S3,2021.1.4,Win32,61.05378839,,,,,,,,,
,,,,,,,,,,,,0,3,3,3,1,fourth,6,21,Female,R,Donders,2021-07-07_10h36.36.450,ImageRatingTask_S3,2021.1.4,Win32,61.05378839,,,,,,,,,
,,,,,,,,,,,,0,4,4,4,1,fifth,6,21,Female,R,Donders,2021-07-07_10h36.36.450,ImageRatingTask_S3,2021.1.4,Win32,61.05378839,,,,,,,,,
,,,,,,,,,,,,0,5,5,5,1,sixth,6,21,Female,R,Donders,2021-07-07_10h36.36.450,ImageRatingTask_S3,2021.1.4,Win32,61.05378839,,,,,,,,,
,,,,,,,,,,,,0,6,6,6,1,seventh,6,21,Female,R,Donders,2021-07-07_10h36.36.450,ImageRatingTask_S3,2021.1.4,Win32,61.05378839,,,,,,,,,
,,,,,,,,,,,,0,7,7,7,1,last,6,21,Female,R,Donders,2021-07-07_10h36.36.450,ImageRatingTask_S3,2021.1.4,Win32,61.05378839,,,,,,,,,
,,,,,,,,,,,,,,,,,,6,21,Female,R,Donders,2021-07-07_10h36.36.450,ImageRatingTask_S3,2021.1.4,Win32,61.05378839,0,6,6,89,1,DreamStudyImages_rs1000x750g/Mammals/Animals_061_h.jpg,,,
,,7,1.5855,5,1.4071,7,2.5018,1,0.9292,3,0.7432,0,0,0,0,1,main,6,21,Female,R,Donders,2021-07-07_10h36.36.450,ImageRatingTask_S3,2021.1.4,Win32,61.05378839,,,,,,,,,
,,,,,,,,,,,,0,1,1,1,1,second,6,21,Female,R,Donders,2021-07-07_10h36.36.450,ImageRatingTask_S3,2021.1.4,Win32,61.05378839,,,,,,,,,
,,,,,,,,,,,,0,2,2,2,1,third,6,21,Female,R,Donders,2021-07-07_10h36.36.450,ImageRatingTask_S3,2021.1.4,Win32,61.05378839,,,,,,,,,
,,,,,,,,,,,,0,3,3,3,1,fourth,6,21,Female,R,Donders,2021-07-07_10h36.36.450,ImageRatingTask_S3,2021.1.4,Win32,61.05378839,,,,,,,,,
,,,,,,,,,,,,0,4,4,4,1,fifth,6,21,Female,R,Donders,2021-07-07_10h36.36.450,ImageRatingTask_S3,2021.1.4,Win32,61.05378839,,,,,,,,,
,,,,,,,,,,,,0,5,5,5,1,sixth,6,21,Female,R,Donders,2021-07-07_10h36.36.450,ImageRatingTask_S3,2021.1.4,Win32,61.05378839,,,,,,,,,
,,,,,,,,,,,,0,6,6,6,1,seventh,6,21,Female,R,Donders,2021-07-07_10h36.36.450,ImageRatingTask_S3,2021.1.4,Win32,61.05378839,,,,,,,,,
,,,,,,,,,,,,0,7,7,7,1,last,6,21,Female,R,Donders,2021-07-07_10h36.36.450,ImageRatingTask_S3,2021.1.4,Win32,61.05378839,,,,,,,,,
,,,,,,,,,,,,,,,,,,6,21,Female,R,Donders,2021-07-07_10h36.36.450,ImageRatingTask_S3,2021.1.4,Win32,61.05378839,0,7,7,107,1,DreamStudyImages_rs1000x750g/Mammals/1410.jpg,,,
,,6,1.9175,4,1.1413,7,1.9715,1,1.1863,5,1.7319,0,0,0,0,1,main,6,21,Female,R,Donders,2021-07-07_10h36.36.450,ImageRatingTask_S3,2021.1.4,Win32,61.05378839,,,,,,,,,
,,,,,,,,,,,,0,1,1,1,1,second,6,21,Female,R,Donders,2021-07-07_10h36.36.450,ImageRatingTask_S3,2021.1.4,Win32,61.05378839,,,,,,,,,
,,,,,,,,,,,,0,2,2,2,1,third,6,21,Female,R,Donders,2021-07-07_10h36.36.450,ImageRatingTask_S3,2021.1.4,Win32,61.05378839,,,,,,,,,
,,,,,,,,,,,,0,3,3,3,1,fourth,6,21,Female,R,Donders,2021-07-07_10h36.36.450,ImageRatingTask_S3,2021.1.4,Win32,61.05378839,,,,,,,,,
,,,,,,,,,,,,0,4,4,4,1,fifth,6,21,Female,R,Donders,2021-07-07_10h36.36.450,ImageRatingTask_S3,2021.1.4,Win32,61.05378839,,,,,,,,,
,,,,,,,,,,,,0,5,5,5,1,sixth,6,21,Female,R,Donders,2021-07-07_10h36.36.450,ImageRatingTask_S3,2021.1.4,Win32,61.05378839,,,,,,,,,
,,,,,,,,,,,,0,6,6,6,1,seventh,6,21,Female,R,Donders,2021-07-07_10h36.36.450,ImageRatingTask_S3,2021.1.4,Win32,61.05378839,,,,,,,,,
,,,,,,,,,,,,0,7,7,7,1,last,6,21,Female,R,Donders,2021-07-07_10h36.36.450,ImageRatingTask_S3,2021.1.4,Win32,61.05378839,,,,,,,,,
,,,,,,,,,,,,,,,,,,6,21,Female,R,Donders,2021-07-07_10h36.36.450,ImageRatingTask_S3,2021.1.4,Win32,61.05378839,0,8,8,118,1,DreamStudyImages_rs1000x750g/Food/Birthday 1.jpg,,,
,,5,2.7442,2,1.2101,7,3.0522,1,0.8075,5,0.7006,0,0,0,0,1,main,6,21,Female,R,Donders,2021-07-07_10h36.36.450,ImageRatingTask_S3,2021.1.4,Win32,61.05378839,,,,,,,,,
,,,,,,,,,,,,0,1,1,1,1,second,6,21,Female,R,Donders,2021-07-07_10h36.36.450,ImageRatingTask_S3,2021.1.4,Win32,61.05378839,,,,,,,,,
,,,,,,,,,,,,0,2,2,2,1,third,6,21,Female,R,Donders,2021-07-07_10h36.36.450,ImageRatingTask_S3,2021.1.4,Win32,61.05378839,,,,,,,,,
,,,,,,,,,,,,0,3,3,3,1,fourth,6,21,Female,R,Donders,2021-07-07_10h36.36.450,ImageRatingTask_S3,2021.1.4,Win32,61.05378839,,,,,,,,,
,,,,,,,,,,,,0,4,4,4,1,fifth,6,21,Female,R,Donders,2021-07-07_10h36.36.450,ImageRatingTask_S3,2021.1.4,Win32,61.05378839,,,,,,,,,
,,,,,,,,,,,,0,5,5,5,1,sixth,6,21,Female,R,Donders,2021-07-07_10h36.36.450,ImageRatingTask_S3,2021.1.4,Win32,61.05378839,,,,,,,,,
,,,,,,,,,,,,0,6,6,6,1,seventh,6,21,Female,R,Donders,2021-07-07_10h36.36.450,ImageRatingTask_S3,2021.1.4,Win32,61.05378839,,,,,,,,,
,,,,,,,,,,,,0,7,7,7,1,last,6,21,Female,R,Donders,2021-07-07_10h36.36.450,ImageRatingTask_S3,2021.1.4,Win32,61.05378839,,,,,,,,,
,,,,,,,,,,,,,,,,,,6,21,Female,R,Donders,2021-07-07_10h36.36.450,ImageRatingTask_S3,2021.1.4,Win32,61.05378839,0,9,9,63,1,DreamStudyImages_rs1000x750g/Food/Objects_104_v.jpg,,,
,,5,1.4355,2,1.5969,6,1.994,1,1.1734,7,0.6417,0,0,0,0,1,main,6,21,Female,R,Donders,2021-07-07_10h36.36.450,ImageRatingTask_S3,2021.1.4,Win32,61.05378839,,,,,,,,,
,,,,,,,,,,,,0,1,1,1,1,second,6,21,Female,R,Donders,2021-07-07_10h36.36.450,ImageRatingTask_S3,2021.1.4,Win32,61.05378839,,,,,,,,,
,,,,,,,,,,,,0,2,2,2,1,third,6,21,Female,R,Donders,2021-07-07_10h36.36.450,ImageRatingTask_S3,2021.1.4,Win32,61.05378839,,,,,,,,,
,,,,,,,,,,,,0,3,3,3,1,fourth,6,21,Female,R,Donders,2021-07-07_10h36.36.450,ImageRatingTask_S3,2021.1.4,Win32,61.05378839,,,,,,,,,
,,,,,,,,,,,,0,4,4,4,1,fifth,6,21,Female,R,Donders,2021-07-07_10h36.36.450,ImageRatingTask_S3,2021.1.4,Win32,61.05378839,,,,,,,,,
,,,,,,,,,,,,0,5,5,5,1,sixth,6,21,Female,R,Donders,2021-07-07_10h36.36.450,ImageRatingTask_S3,2021.1.4,Win32,61.05378839,,,,,,,,,
,,,,,,,,,,,,0,6,6,6,1,seventh,6,21,Female,R,Donders,2021-07-07_10h36.36.450,ImageRatingTask_S3,2021.1.4,Win32,61.05378839,,,,,,,,,
,,,,,,,,,,,,0,7,7,7,1,last,6,21,Female,R,Donders,2021-07-07_10h36.36.450,ImageRatingTask_S3,2021.1.4,Win32,61.05378839,,,,,,,,,
,,,,,,,,,,,,,,,,,,6,21,Female,R,Donders,2021-07-07_10h36.36.450,ImageRatingTask_S3,2021.1.4,Win32,61.05378839,0,10,10,9,1,DreamStudyImages_rs1000x750g/Vehicles/locomotive.jpg,,,
,,7,4.5847,2,0.9047,6,2.2183,1,1.0197,8,0.404,0,0,0,0,1,main,6,21,Female,R,Donders,2021-07-07_10h36.36.450,ImageRatingTask_S3,2021.1.4,Win32,61.05378839,,,,,,,,,
,,,,,,,,,,,,0,1,1,1,1,second,6,21,Female,R,Donders,2021-07-07_10h36.36.450,ImageRatingTask_S3,2021.1.4,Win32,61.05378839,,,,,,,,,
,,,,,,,,,,,,0,2,2,2,1,third,6,21,Female,R,Donders,2021-07-07_10h36.36.450,ImageRatingTask_S3,2021.1.4,Win32,61.05378839,,,,,,,,,
,,,,,,,,,,,,0,3,3,3,1,fourth,6,21,Female,R,Donders,2021-07-07_10h36.36.450,ImageRatingTask_S3,2021.1.4,Win32,61.05378839,,,,,,,,,
,,,,,,,,,,,,0,4,4,4,1,fifth,6,21,Female,R,Donders,2021-07-07_10h36.36.450,ImageRatingTask_S3,2021.1.4,Win32,61.05378839,,,,,,,,,
,,,,,,,,,,,,0,5,5,5,1,sixth,6,21,Female,R,Donders,2021-07-07_10h36.36.450,ImageRatingTask_S3,2021.1.4,Win32,61.05378839,,,,,,,,,
,,,,,,,,,,,,0,6,6,6,1,seventh,6,21,Female,R,Donders,2021-07-07_10h36.36.450,ImageRatingTask_S3,2021.1.4,Win32,61.05378839,,,,,,,,,
,,,,,,,,,,,,0,7,7,7,1,last,6,21,Female,R,Donders,2021-07-07_10h36.36.450,ImageRatingTask_S3,2021.1.4,Win32,61.05378839,,,,,,,,,
,,,,,,,,,,,,,,,,,,6,21,Female,R,Donders,2021-07-07_10h36.36.450,ImageRatingTask_S3,2021.1.4,Win32,61.05378839,0,11,11,142,1,DreamStudyImages_rs1000x750g/Water/Lake 8.jpg,,,
,,7,1.627,4,1.0748,7,2.8651,1,0.9497,2,0.6499,0,0,0,0,1,main,6,21,Female,R,Donders,2021-07-07_10h36.36.450,ImageRatingTask_S3,2021.1.4,Win32,61.05378839,,,,,,,,,
,,,,,,,,,,,,0,1,1,1,1,second,6,21,Female,R,Donders,2021-07-07_10h36.36.450,ImageRatingTask_S3,2021.1.4,Win32,61.05378839,,,,,,,,,
,,,,,,,,,,,,0,2,2,2,1,third,6,21,Female,R,Donders,2021-07-07_10h36.36.450,ImageRatingTask_S3,2021.1.4,Win32,61.05378839,,,,,,,,,
,,,,,,,,,,,,0,3,3,3,1,fourth,6,21,Female,R,Donders,2021-07-07_10h36.36.450,ImageRatingTask_S3,2021.1.4,Win32,61.05378839,,,,,,,,,
,,,,,,,,,,,,0,4,4,4,1,fifth,6,21,Female,R,Donders,2021-07-07_10h36.36.450,ImageRatingTask_S3,2021.1.4,Win32,61.05378839,,,,,,,,,
,,,,,,,,,,,,0,5,5,5,1,sixth,6,21,Female,R,Donders,2021-07-07_10h36.36.450,ImageRatingTask_S3,2021.1.4,Win32,61.05378839,,,,,,,,,
,,,,,,,,,,,,0,6,6,6,1,seventh,6,21,Female,R,Donders,2021-07-07_10h36.36.450,ImageRatingTask_S3,2021.1.4,Win32,61.05378839,,,,,,,,,
,,,,,,,,,,,,0,7,7,7,1,last,6,21,Female,R,Donders,2021-07-07_10h36.36.450,ImageRatingTask_S3,2021.1.4,Win32,61.05378839,,,,,,,,,
,,,,,,,,,,,,,,,,,,6,21,Female,R,Donders,2021-07-07_10h36.36.450,ImageRatingTask_S3,2021.1.4,Win32,61.05378839,0,12,12,124,1,DreamStudyImages_rs1000x750g/Children/People_049_h.jpg,,,
,,8,3.2933,5,1.6002,7,2.2119,1,0.8591,5,0.7116,0,0,0,0,1,main,6,21,Female,R,Donders,2021-07-07_10h36.36.450,ImageRatingTask_S3,2021.1.4,Win32,61.05378839,,,,,,,,,
,,,,,,,,,,,,0,1,1,1,1,second,6,21,Female,R,Donders,2021-07-07_10h36.36.450,ImageRatingTask_S3,2021.1.4,Win32,61.05378839,,,,,,,,,
,,,,,,,,,,,,0,2,2,2,1,third,6,21,Female,R,Donders,2021-07-07_10h36.36.450,ImageRatingTask_S3,2021.1.4,Win32,61.05378839,,,,,,,,,
,,,,,,,,,,,,0,3,3,3,1,fourth,6,21,Female,R,Donders,2021-07-07_10h36.36.450,ImageRatingTask_S3,2021.1.4,Win32,61.05378839,,,,,,,,,
,,,,,,,,,,,,0,4,4,4,1,fifth,6,21,Female,R,Donders,2021-07-07_10h36.36.450,ImageRatingTask_S3,2021.1.4,Win32,61.05378839,,,,,,,,,
,,,,,,,,,,,,0,5,5,5,1,sixth,6,21,Female,R,Donders,2021-07-07_10h36.36.450,ImageRatingTask_S3,2021.1.4,Win32,61.05378839,,,,,,,,,
,,,,,,,,,,,,0,6,6,6,1,seventh,6,21,Female,R,Donders,2021-07-07_10h36.36.450,ImageRatingTask_S3,2021.1.4,Win32,61.05378839,,,,,,,,,
,,,,,,,,,,,,0,7,7,7,1,last,6,21,Female,R,Donders,2021-07-07_10h36.36.450,ImageRatingTask_S3,2021.1.4,Win32,61.05378839,,,,,,,,,
,,,,,,,,,,,,,,,,,,6,21,Female,R,Donders,2021-07-07_10h36.36.450,ImageRatingTask_S3,2021.1.4,Win32,61.05378839,0,13,13,62,1,DreamStudyImages_rs1000x750g/Food/IAPS7350_pizza.jpg,,,
,,6,1.3566,3,1.8663,5,2.8551,1,0.8914,2,0.9102,0,0,0,0,1,main,6,21,Female,R,Donders,2021-07-07_10h36.36.450,ImageRatingTask_S3,2021.1.4,Win32,61.05378839,,,,,,,,,
,,,,,,,,,,,,0,1,1,1,1,second,6,21,Female,R,Donders,2021-07-07_10h36.36.450,ImageRatingTask_S3,2021.1.4,Win32,61.05378839,,,,,,,,,
,,,,,,,,,,,,0,2,2,2,1,third,6,21,Female,R,Donders,2021-07-07_10h36.36.450,ImageRatingTask_S3,2021.1.4,Win32,61.05378839,,,,,,,,,
,,,,,,,,,,,,0,3,3,3,1,fourth,6,21,Female,R,Donders,2021-07-07_10h36.36.450,ImageRatingTask_S3,2021.1.4,Win32,61.05378839,,,,,,,,,
,,,,,,,,,,,,0,4,4,4,1,fifth,6,21,Female,R,Donders,2021-07-07_10h36.36.450,ImageRatingTask_S3,2021.1.4,Win32,61.05378839,,,,,,,,,
,,,,,,,,,,,,0,5,5,5,1,sixth,6,21,Female,R,Donders,2021-07-07_10h36.36.450,ImageRatingTask_S3,2021.1.4,Win32,61.05378839,,,,,,,,,
,,,,,,,,,,,,0,6,6,6,1,seventh,6,21,Female,R,Donders,2021-07-07_10h36.36.450,ImageRatingTask_S3,2021.1.4,Win32,61.05378839,,,,,,,,,
,,,,,,,,,,,,0,7,7,7,1,last,6,21,Female,R,Donders,2021-07-07_10h36.36.450,ImageRatingTask_S3,2021.1.4,Win32,61.05378839,,,,,,,,,
,,,,,,,,,,,,,,,,,,6,21,Female,R,Donders,2021-07-07_10h36.36.450,ImageRatingTask_S3,2021.1.4,Win32,61.05378839,0,14,14,26,1,DreamStudyImages_rs1000x750g/Children/IAPS2308_makeupgirl_humans.jpg,,,
,,5,2.8826,2,1.3497,7,4.4184,1,1.1031,2,0.2956,0,0,0,0,1,main,6,21,Female,R,Donders,2021-07-07_10h36.36.450,ImageRatingTask_S3,2021.1.4,Win32,61.05378839,,,,,,,,,
,,,,,,,,,,,,0,1,1,1,1,second,6,21,Female,R,Donders,2021-07-07_10h36.36.450,ImageRatingTask_S3,2021.1.4,Win32,61.05378839,,,,,,,,,
,,,,,,,,,,,,0,2,2,2,1,third,6,21,Female,R,Donders,2021-07-07_10h36.36.450,ImageRatingTask_S3,2021.1.4,Win32,61.05378839,,,,,,,,,
,,,,,,,,,,,,0,3,3,3,1,fourth,6,21,Female,R,Donders,2021-07-07_10h36.36.450,ImageRatingTask_S3,2021.1.4,Win32,61.05378839,,,,,,,,,
,,,,,,,,,,,,0,4,4,4,1,fifth,6,21,Female,R,Donders,2021-07-07_10h36.36.450,ImageRatingTask_S3,2021.1.4,Win32,61.05378839,,,,,,,,,
,,,,,,,,,,,,0,5,5,5,1,sixth,6,21,Female,R,Donders,2021-07-07_10h36.36.450,ImageRatingTask_S3,2021.1.4,Win32,61.05378839,,,,,,,,,
,,,,,,,,,,,,0,6,6,6,1,seventh,6,21,Female,R,Donders,2021-07-07_10h36.36.450,ImageRatingTask_S3,2021.1.4,Win32,61.05378839,,,,,,,,,
,,,,,,,,,,,,0,7,7,7,1,last,6,21,Female,R,Donders,2021-07-07_10h36.36.450,ImageRatingTask_S3,2021.1.4,Win32,61.05378839,,,,,,,,,
,,,,,,,,,,,,,,,,,,6,21,Female,R,Donders,2021-07-07_10h36.36.450,ImageRatingTask_S3,2021.1.4,Win32,61.05378839,0,15,15,86,1,DreamStudyImages_rs1000x750g/Children/Faces_045_h.jpg,,,
,,7,7.8891,6,1.5725,7,3.3192,1,1.8687,3,1.2057,0,0,0,0,1,main,6,21,Female,R,Donders,2021-07-07_10h36.36.450,ImageRatingTask_S3,2021.1.4,Win32,61.05378839,,,,,,,,,
,,,,,,,,,,,,0,1,1,1,1,second,6,21,Female,R,Donders,2021-07-07_10h36.36.450,ImageRatingTask_S3,2021.1.4,Win32,61.05378839,,,,,,,,,
,,,,,,,,,,,,0,2,2,2,1,third,6,21,Female,R,Donders,2021-07-07_10h36.36.450,ImageRatingTask_S3,2021.1.4,Win32,61.05378839,,,,,,,,,
,,,,,,,,,,,,0,3,3,3,1,fourth,6,21,Female,R,Donders,2021-07-07_10h36.36.450,ImageRatingTask_S3,2021.1.4,Win32,61.05378839,,,,,,,,,
,,,,,,,,,,,,0,4,4,4,1,fifth,6,21,Female,R,Donders,2021-07-07_10h36.36.450,ImageRatingTask_S3,2021.1.4,Win32,61.05378839,,,,,,,,,
,,,,,,,,,,,,0,5,5,5,1,sixth,6,21,Female,R,Donders,2021-07-07_10h36.36.450,ImageRatingTask_S3,2021.1.4,Win32,61.05378839,,,,,,,,,
,,,,,,,,,,,,0,6,6,6,1,seventh,6,21,Female,R,Donders,2021-07-07_10h36.36.450,ImageRatingTask_S3,2021.1.4,Win32,61.05378839,,,,,,,,,
,,,,,,,,,,,,0,7,7,7,1,last,6,21,Female,R,Donders,2021-07-07_10h36.36.450,ImageRatingTask_S3,2021.1.4,Win32,61.05378839,,,,,,,,,
,,,,,,,,,,,,,,,,,,6,21,Female,R,Donders,2021-07-07_10h36.36.450,ImageRatingTask_S3,2021.1.4,Win32,61.05378839,0,16,16,43,1,DreamStudyImages_rs1000x750g/Mammals/Couple 5.jpg,,,
,,5,1.3075,3,1.1106,8,1.5564,1,0.882,7,0.7873,0,0,0,0,1,main,6,21,Female,R,Donders,2021-07-07_10h36.36.450,ImageRatingTask_S3,2021.1.4,Win32,61.05378839,,,,,,,,,
,,,,,,,,,,,,0,1,1,1,1,second,6,21,Female,R,Donders,2021-07-07_10h36.36.450,ImageRatingTask_S3,2021.1.4,Win32,61.05378839,,,,,,,,,
,,,,,,,,,,,,0,2,2,2,1,third,6,21,Female,R,Donders,2021-07-07_10h36.36.450,ImageRatingTask_S3,2021.1.4,Win32,61.05378839,,,,,,,,,
,,,,,,,,,,,,0,3,3,3,1,fourth,6,21,Female,R,Donders,2021-07-07_10h36.36.450,ImageRatingTask_S3,2021.1.4,Win32,61.05378839,,,,,,,,,
,,,,,,,,,,,,0,4,4,4,1,fifth,6,21,Female,R,Donders,2021-07-07_10h36.36.450,ImageRatingTask_S3,2021.1.4,Win32,61.05378839,,,,,,,,,
,,,,,,,,,,,,0,5,5,5,1,sixth,6,21,Female,R,Donders,2021-07-07_10h36.36.450,ImageRatingTask_S3,2021.1.4,Win32,61.05378839,,,,,,,,,
,,,,,,,,,,,,0,6,6,6,1,seventh,6,21,Female,R,Donders,2021-07-07_10h36.36.450,ImageRatingTask_S3,2021.1.4,Win32,61.05378839,,,,,,,,,
,,,,,,,,,,,,0,7,7,7,1,last,6,21,Female,R,Donders,2021-07-07_10h36.36.450,ImageRatingTask_S3,2021.1.4,Win32,61.05378839,,,,,,,,,
,,,,,,,,,,,,,,,,,,6,21,Female,R,Donders,2021-07-07_10h36.36.450,ImageRatingTask_S3,2021.1.4,Win32,61.05378839,0,17,17,158,1,DreamStudyImages_rs1000x750g/Vehicles/bluevan.jpg,,,
,,5,4.3128,2,1.8802,8,1.7017,1,1.1353,8,1.674,0,0,0,0,1,main,6,21,Female,R,Donders,2021-07-07_10h36.36.450,ImageRatingTask_S3,2021.1.4,Win32,61.05378839,,,,,,,,,
,,,,,,,,,,,,0,1,1,1,1,second,6,21,Female,R,Donders,2021-07-07_10h36.36.450,ImageRatingTask_S3,2021.1.4,Win32,61.05378839,,,,,,,,,
,,,,,,,,,,,,0,2,2,2,1,third,6,21,Female,R,Donders,2021-07-07_10h36.36.450,ImageRatingTask_S3,2021.1.4,Win32,61.05378839,,,,,,,,,
,,,,,,,,,,,,0,3,3,3,1,fourth,6,21,Female,R,Donders,2021-07-07_10h36.36.450,ImageRatingTask_S3,2021.1.4,Win32,61.05378839,,,,,,,,,
,,,,,,,,,,,,0,4,4,4,1,fifth,6,21,Female,R,Donders,2021-07-07_10h36.36.450,ImageRatingTask_S3,2021.1.4,Win32,61.05378839,,,,,,,,,
,,,,,,,,,,,,0,5,5,5,1,sixth,6,21,Female,R,Donders,2021-07-07_10h36.36.450,ImageRatingTask_S3,2021.1.4,Win32,61.05378839,,,,,,,,,
,,,,,,,,,,,,0,6,6,6,1,seventh,6,21,Female,R,Donders,2021-07-07_10h36.36.450,ImageRatingTask_S3,2021.1.4,Win32,61.05378839,,,,,,,,,
,,,,,,,,,,,,0,7,7,7,1,last,6,21,Female,R,Donders,2021-07-07_10h36.36.450,ImageRatingTask_S3,2021.1.4,Win32,61.05378839,,,,,,,,,
,,,,,,,,,,,,,,,,,,6,21,Female,R,Donders,2021-07-07_10h36.36.450,ImageRatingTask_S3,2021.1.4,Win32,61.05378839,0,18,18,119,1,DreamStudyImages_rs1000x750g/Water/Bottle 1.jpg,,,
,,3,1.5385,6,2.6295,7,2.26,1,0.9348,6,0.8832,0,0,0,0,1,main,6,21,Female,R,Donders,2021-07-07_10h36.36.450,ImageRatingTask_S3,2021.1.4,Win32,61.05378839,,,,,,,,,
,,,,,,,,,,,,0,1,1,1,1,second,6,21,Female,R,Donders,2021-07-07_10h36.36.450,ImageRatingTask_S3,2021.1.4,Win32,61.05378839,,,,,,,,,
,,,,,,,,,,,,0,2,2,2,1,third,6,21,Female,R,Donders,2021-07-07_10h36.36.450,ImageRatingTask_S3,2021.1.4,Win32,61.05378839,,,,,,,,,
,,,,,,,,,,,,0,3,3,3,1,fourth,6,21,Female,R,Donders,2021-07-07_10h36.36.450,ImageRatingTask_S3,2021.1.4,Win32,61.05378839,,,,,,,,,
,,,,,,,,,,,,0,4,4,4,1,fifth,6,21,Female,R,Donders,2021-07-07_10h36.36.450,ImageRatingTask_S3,2021.1.4,Win32,61.05378839,,,,,,,,,
,,,,,,,,,,,,0,5,5,5,1,sixth,6,21,Female,R,Donders,2021-07-07_10h36.36.450,ImageRatingTask_S3,2021.1.4,Win32,61.05378839,,,,,,,,,
,,,,,,,,,,,,0,6,6,6,1,seventh,6,21,Female,R,Donders,2021-07-07_10h36.36.450,ImageRatingTask_S3,2021.1.4,Win32,61.05378839,,,,,,,,,
,,,,,,,,,,,,0,7,7,7,1,last,6,21,Female,R,Donders,2021-07-07_10h36.36.450,ImageRatingTask_S3,2021.1.4,Win32,61.05378839,,,,,,,,,
,,,,,,,,,,,,,,,,,,6,21,Female,R,Donders,2021-07-07_10h36.36.450,ImageRatingTask_S3,2021.1.4,Win32,61.05378839,0,19,19,47,1,DreamStudyImages_rs1000x750g/Houses/NDPS29_buildings7.jpg,,,
,,6,2.6141,7,1.7874,6,1.7181,1,0.7168,3,1.0041,0,0,0,0,1,main,6,21,Female,R,Donders,2021-07-07_10h36.36.450,ImageRatingTask_S3,2021.1.4,Win32,61.05378839,,,,,,,,,
,,,,,,,,,,,,0,1,1,1,1,second,6,21,Female,R,Donders,2021-07-07_10h36.36.450,ImageRatingTask_S3,2021.1.4,Win32,61.05378839,,,,,,,,,
,,,,,,,,,,,,0,2,2,2,1,third,6,21,Female,R,Donders,2021-07-07_10h36.36.450,ImageRatingTask_S3,2021.1.4,Win32,61.05378839,,,,,,,,,
,,,,,,,,,,,,0,3,3,3,1,fourth,6,21,Female,R,Donders,2021-07-07_10h36.36.450,ImageRatingTask_S3,2021.1.4,Win32,61.05378839,,,,,,,,,
,,,,,,,,,,,,0,4,4,4,1,fifth,6,21,Female,R,Donders,2021-07-07_10h36.36.450,ImageRatingTask_S3,2021.1.4,Win32,61.05378839,,,,,,,,,
,,,,,,,,,,,,0,5,5,5,1,sixth,6,21,Female,R,Donders,2021-07-07_10h36.36.450,ImageRatingTask_S3,2021.1.4,Win32,61.05378839,,,,,,,,,
,,,,,,,,,,,,0,6,6,6,1,seventh,6,21,Female,R,Donders,2021-07-07_10h36.36.450,ImageRatingTask_S3,2021.1.4,Win32,61.05378839,,,,,,,,,
,,,,,,,,,,,,0,7,7,7,1,last,6,21,Female,R,Donders,2021-07-07_10h36.36.450,ImageRatingTask_S3,2021.1.4,Win32,61.05378839,,,,,,,,,
,,,,,,,,,,,,,,,,,,6,21,Female,R,Donders,2021-07-07_10h36.36.450,ImageRatingTask_S3,2021.1.4,Win32,61.05378839,0,20,20,146,1,DreamStudyImages_rs1000x750g/Mammals/Opossum 1.jpg,,,
,,3,1.6176,6,1.3933,7,2.0996,1,0.9221,2,0.4522,0,0,0,0,1,main,6,21,Female,R,Donders,2021-07-07_10h36.36.450,ImageRatingTask_S3,2021.1.4,Win32,61.05378839,,,,,,,,,
,,,,,,,,,,,,0,1,1,1,1,second,6,21,Female,R,Donders,2021-07-07_10h36.36.450,ImageRatingTask_S3,2021.1.4,Win32,61.05378839,,,,,,,,,
,,,,,,,,,,,,0,2,2,2,1,third,6,21,Female,R,Donders,2021-07-07_10h36.36.450,ImageRatingTask_S3,2021.1.4,Win32,61.05378839,,,,,,,,,
,,,,,,,,,,,,0,3,3,3,1,fourth,6,21,Female,R,Donders,2021-07-07_10h36.36.450,ImageRatingTask_S3,2021.1.4,Win32,61.05378839,,,,,,,,,
,,,,,,,,,,,,0,4,4,4,1,fifth,6,21,Female,R,Donders,2021-07-07_10h36.36.450,ImageRatingTask_S3,2021.1.4,Win32,61.05378839,,,,,,,,,
,,,,,,,,,,,,0,5,5,5,1,sixth,6,21,Female,R,Donders,2021-07-07_10h36.36.450,ImageRatingTask_S3,2021.1.4,Win32,61.05378839,,,,,,,,,
,,,,,,,,,,,,0,6,6,6,1,seventh,6,21,Female,R,Donders,2021-07-07_10h36.36.450,ImageRatingTask_S3,2021.1.4,Win32,61.05378839,,,,,,,,,
,,,,,,,,,,,,0,7,7,7,1,last,6,21,Female,R,Donders,2021-07-07_10h36.36.450,ImageRatingTask_S3,2021.1.4,Win32,61.05378839,,,,,,,,,
,,,,,,,,,,,,,,,,,,6,21,Female,R,Donders,2021-07-07_10h36.36.450,ImageRatingTask_S3,2021.1.4,Win32,61.05378839,0,21,21,44,1,DreamStudyImages_rs1000x750g/Children/Faces_019_h.jpg,,,
,,7,1.7448,3,3.9845,7,2.7878,1,1.1653,5,0.4891,0,0,0,0,1,main,6,21,Female,R,Donders,2021-07-07_10h36.36.450,ImageRatingTask_S3,2021.1.4,Win32,61.05378839,,,,,,,,,
,,,,,,,,,,,,0,1,1,1,1,second,6,21,Female,R,Donders,2021-07-07_10h36.36.450,ImageRatingTask_S3,2021.1.4,Win32,61.05378839,,,,,,,,,
,,,,,,,,,,,,0,2,2,2,1,third,6,21,Female,R,Donders,2021-07-07_10h36.36.450,ImageRatingTask_S3,2021.1.4,Win32,61.05378839,,,,,,,,,
,,,,,,,,,,,,0,3,3,3,1,fourth,6,21,Female,R,Donders,2021-07-07_10h36.36.450,ImageRatingTask_S3,2021.1.4,Win32,61.05378839,,,,,,,,,
,,,,,,,,,,,,0,4,4,4,1,fifth,6,21,Female,R,Donders,2021-07-07_10h36.36.450,ImageRatingTask_S3,2021.1.4,Win32,61.05378839,,,,,,,,,
,,,,,,,,,,,,0,5,5,5,1,sixth,6,21,Female,R,Donders,2021-07-07_10h36.36.450,ImageRatingTask_S3,2021.1.4,Win32,61.05378839,,,,,,,,,
,,,,,,,,,,,,0,6,6,6,1,seventh,6,21,Female,R,Donders,2021-07-07_10h36.36.450,ImageRatingTask_S3,2021.1.4,Win32,61.05378839,,,,,,,,,
,,,,,,,,,,,,0,7,7,7,1,last,6,21,Female,R,Donders,2021-07-07_10h36.36.450,ImageRatingTask_S3,2021.1.4,Win32,61.05378839,,,,,,,,,
,,,,,,,,,,,,,,,,,,6,21,Female,R,Donders,2021-07-07_10h36.36.450,ImageRatingTask_S3,2021.1.4,Win32,61.05378839,0,22,22,134,1,DreamStudyImages_rs1000x750g/Food/IAPS7460_fries.jpg,,,
,,3,2.1832,6,1.5177,6,1.9024,1,0.686,7,0.7402,0,0,0,0,1,main,6,21,Female,R,Donders,2021-07-07_10h36.36.450,ImageRatingTask_S3,2021.1.4,Win32,61.05378839,,,,,,,,,
,,,,,,,,,,,,0,1,1,1,1,second,6,21,Female,R,Donders,2021-07-07_10h36.36.450,ImageRatingTask_S3,2021.1.4,Win32,61.05378839,,,,,,,,,
,,,,,,,,,,,,0,2,2,2,1,third,6,21,Female,R,Donders,2021-07-07_10h36.36.450,ImageRatingTask_S3,2021.1.4,Win32,61.05378839,,,,,,,,,
,,,,,,,,,,,,0,3,3,3,1,fourth,6,21,Female,R,Donders,2021-07-07_10h36.36.450,ImageRatingTask_S3,2021.1.4,Win32,61.05378839,,,,,,,,,
,,,,,,,,,,,,0,4,4,4,1,fifth,6,21,Female,R,Donders,2021-07-07_10h36.36.450,ImageRatingTask_S3,2021.1.4,Win32,61.05378839,,,,,,,,,
,,,,,,,,,,,,0,5,5,5,1,sixth,6,21,Female,R,Donders,2021-07-07_10h36.36.450,ImageRatingTask_S3,2021.1.4,Win32,61.05378839,,,,,,,,,
,,,,,,,,,,,,0,6,6,6,1,seventh,6,21,Female,R,Donders,2021-07-07_10h36.36.450,ImageRatingTask_S3,2021.1.4,Win32,61.05378839,,,,,,,,,
,,,,,,,,,,,,0,7,7,7,1,last,6,21,Female,R,Donders,2021-07-07_10h36.36.450,ImageRatingTask_S3,2021.1.4,Win32,61.05378839,,,,,,,,,
,,,,,,,,,,,,,,,,,,6,21,Female,R,Donders,2021-07-07_10h36.36.450,ImageRatingTask_S3,2021.1.4,Win32,61.05378839,0,23,23,103,1,DreamStudyImages_rs1000x750g/Vehicles/Car crash 1.jpg,,,
,,6,4.2825,5,1.3002,6,2.2047,1,2.2981,2,0.6538,0,0,0,0,1,main,6,21,Female,R,Donders,2021-07-07_10h36.36.450,ImageRatingTask_S3,2021.1.4,Win32,61.05378839,,,,,,,,,
,,,,,,,,,,,,0,1,1,1,1,second,6,21,Female,R,Donders,2021-07-07_10h36.36.450,ImageRatingTask_S3,2021.1.4,Win32,61.05378839,,,,,,,,,
,,,,,,,,,,,,0,2,2,2,1,third,6,21,Female,R,Donders,2021-07-07_10h36.36.450,ImageRatingTask_S3,2021.1.4,Win32,61.05378839,,,,,,,,,
,,,,,,,,,,,,0,3,3,3,1,fourth,6,21,Female,R,Donders,2021-07-07_10h36.36.450,ImageRatingTask_S3,2021.1.4,Win32,61.05378839,,,,,,,,,
,,,,,,,,,,,,0,4,4,4,1,fifth,6,21,Female,R,Donders,2021-07-07_10h36.36.450,ImageRatingTask_S3,2021.1.4,Win32,61.05378839,,,,,,,,,
,,,,,,,,,,,,0,5,5,5,1,sixth,6,21,Female,R,Donders,2021-07-07_10h36.36.450,ImageRatingTask_S3,2021.1.4,Win32,61.05378839,,,,,,,,,
,,,,,,,,,,,,0,6,6,6,1,seventh,6,21,Female,R,Donders,2021-07-07_10h36.36.450,ImageRatingTask_S3,2021.1.4,Win32,61.05378839,,,,,,,,,
,,,,,,,,,,,,0,7,7,7,1,last,6,21,Female,R,Donders,2021-07-07_10h36.36.450,ImageRatingTask_S3,2021.1.4,Win32,61.05378839,,,,,,,,,
,,,,,,,,,,,,,,,,,,6,21,Female,R,Donders,2021-07-07_10h36.36.450,ImageRatingTask_S3,2021.1.4,Win32,61.05378839,0,24,24,149,1,DreamStudyImages_rs1000x750g/Children/Faces_100_h.jpg,,,
,,6,1.7996,2,1.1395,7,3.7004,1,1.6182,8,0.9208,0,0,0,0,1,main,6,21,Female,R,Donders,2021-07-07_10h36.36.450,ImageRatingTask_S3,2021.1.4,Win32,61.05378839,,,,,,,,,
,,,,,,,,,,,,0,1,1,1,1,second,6,21,Female,R,Donders,2021-07-07_10h36.36.450,ImageRatingTask_S3,2021.1.4,Win32,61.05378839,,,,,,,,,
,,,,,,,,,,,,0,2,2,2,1,third,6,21,Female,R,Donders,2021-07-07_10h36.36.450,ImageRatingTask_S3,2021.1.4,Win32,61.05378839,,,,,,,,,
,,,,,,,,,,,,0,3,3,3,1,fourth,6,21,Female,R,Donders,2021-07-07_10h36.36.450,ImageRatingTask_S3,2021.1.4,Win32,61.05378839,,,,,,,,,
,,,,,,,,,,,,0,4,4,4,1,fifth,6,21,Female,R,Donders,2021-07-07_10h36.36.450,ImageRatingTask_S3,2021.1.4,Win32,61.05378839,,,,,,,,,
,,,,,,,,,,,,0,5,5,5,1,sixth,6,21,Female,R,Donders,2021-07-07_10h36.36.450,ImageRatingTask_S3,2021.1.4,Win32,61.05378839,,,,,,,,,
,,,,,,,,,,,,0,6,6,6,1,seventh,6,21,Female,R,Donders,2021-07-07_10h36.36.450,ImageRatingTask_S3,2021.1.4,Win32,61.05378839,,,,,,,,,
,,,,,,,,,,,,0,7,7,7,1,last,6,21,Female,R,Donders,2021-07-07_10h36.36.450,ImageRatingTask_S3,2021.1.4,Win32,61.05378839,,,,,,,,,
,,,,,,,,,,,,,,,,,,6,21,Female,R,Donders,2021-07-07_10h36.36.450,ImageRatingTask_S3,2021.1.4,Win32,61.05378839,0,25,25,94,1,DreamStudyImages_rs1000x750g/Water/Landscapes_115_v.jpg,,,
,,6,7.087,3,2.5691,4,2.4097,1,2.4664,7,0.8462,0,0,0,0,1,main,6,21,Female,R,Donders,2021-07-07_10h36.36.450,ImageRatingTask_S3,2021.1.4,Win32,61.05378839,,,,,,,,,
,,,,,,,,,,,,0,1,1,1,1,second,6,21,Female,R,Donders,2021-07-07_10h36.36.450,ImageRatingTask_S3,2021.1.4,Win32,61.05378839,,,,,,,,,
,,,,,,,,,,,,0,2,2,2,1,third,6,21,Female,R,Donders,2021-07-07_10h36.36.450,ImageRatingTask_S3,2021.1.4,Win32,61.05378839,,,,,,,,,
,,,,,,,,,,,,0,3,3,3,1,fourth,6,21,Female,R,Donders,2021-07-07_10h36.36.450,ImageRatingTask_S3,2021.1.4,Win32,61.05378839,,,,,,,,,
,,,,,,,,,,,,0,4,4,4,1,fifth,6,21,Female,R,Donders,2021-07-07_10h36.36.450,ImageRatingTask_S3,2021.1.4,Win32,61.05378839,,,,,,,,,
,,,,,,,,,,,,0,5,5,5,1,sixth,6,21,Female,R,Donders,2021-07-07_10h36.36.450,ImageRatingTask_S3,2021.1.4,Win32,61.05378839,,,,,,,,,
,,,,,,,,,,,,0,6,6,6,1,seventh,6,21,Female,R,Donders,2021-07-07_10h36.36.450,ImageRatingTask_S3,2021.1.4,Win32,61.05378839,,,,,,,,,
,,,,,,,,,,,,0,7,7,7,1,last,6,21,Female,R,Donders,2021-07-07_10h36.36.450,ImageRatingTask_S3,2021.1.4,Win32,61.05378839,,,,,,,,,
,,,,,,,,,,,,,,,,,,6,21,Female,R,Donders,2021-07-07_10h36.36.450,ImageRatingTask_S3,2021.1.4,Win32,61.05378839,0,26,26,85,1,DreamStudyImages_rs1000x750g/Vehicles/Thunderstorm 3.jpg,,,
,,6,1.8996,2,0.9039,6,2.3068,1,1.8275,8,0.9409,0,0,0,0,1,main,6,21,Female,R,Donders,2021-07-07_10h36.36.450,ImageRatingTask_S3,2021.1.4,Win32,61.05378839,,,,,,,,,
,,,,,,,,,,,,0,1,1,1,1,second,6,21,Female,R,Donders,2021-07-07_10h36.36.450,ImageRatingTask_S3,2021.1.4,Win32,61.05378839,,,,,,,,,
,,,,,,,,,,,,0,2,2,2,1,third,6,21,Female,R,Donders,2021-07-07_10h36.36.450,ImageRatingTask_S3,2021.1.4,Win32,61.05378839,,,,,,,,,
,,,,,,,,,,,,0,3,3,3,1,fourth,6,21,Female,R,Donders,2021-07-07_10h36.36.450,ImageRatingTask_S3,2021.1.4,Win32,61.05378839,,,,,,,,,
,,,,,,,,,,,,0,4,4,4,1,fifth,6,21,Female,R,Donders,2021-07-07_10h36.36.450,ImageRatingTask_S3,2021.1.4,Win32,61.05378839,,,,,,,,,
,,,,,,,,,,,,0,5,5,5,1,sixth,6,21,Female,R,Donders,2021-07-07_10h36.36.450,ImageRatingTask_S3,2021.1.4,Win32,61.05378839,,,,,,,,,
,,,,,,,,,,,,0,6,6,6,1,seventh,6,21,Female,R,Donders,2021-07-07_10h36.36.450,ImageRatingTask_S3,2021.1.4,Win32,61.05378839,,,,,,,,,
,,,,,,,,,,,,0,7,7,7,1,last,6,21,Female,R,Donders,2021-07-07_10h36.36.450,ImageRatingTask_S3,2021.1.4,Win32,61.05378839,,,,,,,,,
,,,,,,,,,,,,,,,,,,6,21,Female,R,Donders,2021-07-07_10h36.36.450,ImageRatingTask_S3,2021.1.4,Win32,61.05378839,0,27,27,18,1,DreamStudyImages_rs1000x750g/Water/Sunset 6.jpg,,,
,,6,1.911,3,2.8441,7,2.4024,1,1.5787,5,0.8579,0,0,0,0,1,main,6,21,Female,R,Donders,2021-07-07_10h36.36.450,ImageRatingTask_S3,2021.1.4,Win32,61.05378839,,,,,,,,,
,,,,,,,,,,,,0,1,1,1,1,second,6,21,Female,R,Donders,2021-07-07_10h36.36.450,ImageRatingTask_S3,2021.1.4,Win32,61.05378839,,,,,,,,,
,,,,,,,,,,,,0,2,2,2,1,third,6,21,Female,R,Donders,2021-07-07_10h36.36.450,ImageRatingTask_S3,2021.1.4,Win32,61.05378839,,,,,,,,,
,,,,,,,,,,,,0,3,3,3,1,fourth,6,21,Female,R,Donders,2021-07-07_10h36.36.450,ImageRatingTask_S3,2021.1.4,Win32,61.05378839,,,,,,,,,
,,,,,,,,,,,,0,4,4,4,1,fifth,6,21,Female,R,Donders,2021-07-07_10h36.36.450,ImageRatingTask_S3,2021.1.4,Win32,61.05378839,,,,,,,,,
,,,,,,,,,,,,0,5,5,5,1,sixth,6,21,Female,R,Donders,2021-07-07_10h36.36.450,ImageRatingTask_S3,2021.1.4,Win32,61.05378839,,,,,,,,,
,,,,,,,,,,,,0,6,6,6,1,seventh,6,21,Female,R,Donders,2021-07-07_10h36.36.450,ImageRatingTask_S3,2021.1.4,Win32,61.05378839,,,,,,,,,
,,,,,,,,,,,,0,7,7,7,1,last,6,21,Female,R,Donders,2021-07-07_10h36.36.450,ImageRatingTask_S3,2021.1.4,Win32,61.05378839,,,,,,,,,
,,,,,,,,,,,,,,,,,,6,21,Female,R,Donders,2021-07-07_10h36.36.450,ImageRatingTask_S3,2021.1.4,Win32,61.05378839,0,28,28,53,1,DreamStudyImages_rs1000x750g/Food/Objects_034_v.jpg,,,
,,7,5.4156,2,1.4759,8,1.9739,1,1.0888,8,0.8739,0,0,0,0,1,main,6,21,Female,R,Donders,2021-07-07_10h36.36.450,ImageRatingTask_S3,2021.1.4,Win32,61.05378839,,,,,,,,,
,,,,,,,,,,,,0,1,1,1,1,second,6,21,Female,R,Donders,2021-07-07_10h36.36.450,ImageRatingTask_S3,2021.1.4,Win32,61.05378839,,,,,,,,,
,,,,,,,,,,,,0,2,2,2,1,third,6,21,Female,R,Donders,2021-07-07_10h36.36.450,ImageRatingTask_S3,2021.1.4,Win32,61.05378839,,,,,,,,,
,,,,,,,,,,,,0,3,3,3,1,fourth,6,21,Female,R,Donders,2021-07-07_10h36.36.450,ImageRatingTask_S3,2021.1.4,Win32,61.05378839,,,,,,,,,
,,,,,,,,,,,,0,4,4,4,1,fifth,6,21,Female,R,Donders,2021-07-07_10h36.36.450,ImageRatingTask_S3,2021.1.4,Win32,61.05378839,,,,,,,,,
,,,,,,,,,,,,0,5,5,5,1,sixth,6,21,Female,R,Donders,2021-07-07_10h36.36.450,ImageRatingTask_S3,2021.1.4,Win32,61.05378839,,,,,,,,,
,,,,,,,,,,,,0,6,6,6,1,seventh,6,21,Female,R,Donders,2021-07-07_10h36.36.450,ImageRatingTask_S3,2021.1.4,Win32,61.05378839,,,,,,,,,
,,,,,,,,,,,,0,7,7,7,1,last,6,21,Female,R,Donders,2021-07-07_10h36.36.450,ImageRatingTask_S3,2021.1.4,Win32,61.05378839,,,,,,,,,
,,,,,,,,,,,,,,,,,,6,21,Female,R,Donders,2021-07-07_10h36.36.450,ImageRatingTask_S3,2021.1.4,Win32,61.05378839,0,29,29,121,1,DreamStudyImages_rs1000x750g/Water/sunsetbeach.jpg,,,
,,4,3.6698,6,4.9756,7,3.1575,1,1.4663,5,2.1409,0,0,0,0,1,main,6,21,Female,R,Donders,2021-07-07_10h36.36.450,ImageRatingTask_S3,2021.1.4,Win32,61.05378839,,,,,,,,,
,,,,,,,,,,,,0,1,1,1,1,second,6,21,Female,R,Donders,2021-07-07_10h36.36.450,ImageRatingTask_S3,2021.1.4,Win32,61.05378839,,,,,,,,,
,,,,,,,,,,,,0,2,2,2,1,third,6,21,Female,R,Donders,2021-07-07_10h36.36.450,ImageRatingTask_S3,2021.1.4,Win32,61.05378839,,,,,,,,,
,,,,,,,,,,,,0,3,3,3,1,fourth,6,21,Female,R,Donders,2021-07-07_10h36.36.450,ImageRatingTask_S3,2021.1.4,Win32,61.05378839,,,,,,,,,
,,,,,,,,,,,,0,4,4,4,1,fifth,6,21,Female,R,Donders,2021-07-07_10h36.36.450,ImageRatingTask_S3,2021.1.4,Win32,61.05378839,,,,,,,,,
,,,,,,,,,,,,0,5,5,5,1,sixth,6,21,Female,R,Donders,2021-07-07_10h36.36.450,ImageRatingTask_S3,2021.1.4,Win32,61.05378839,,,,,,,,,
,,,,,,,,,,,,0,6,6,6,1,seventh,6,21,Female,R,Donders,2021-07-07_10h36.36.450,ImageRatingTask_S3,2021.1.4,Win32,61.05378839,,,,,,,,,
,,,,,,,,,,,,0,7,7,7,1,last,6,21,Female,R,Donders,2021-07-07_10h36.36.450,ImageRatingTask_S3,2021.1.4,Win32,61.05378839,,,,,,,,,
,,,,,,,,,,,,,,,,,,6,21,Female,R,Donders,2021-07-07_10h36.36.450,ImageRatingTask_S3,2021.1.4,Win32,61.05378839,0,30,30,135,1,DreamStudyImages_rs1000x750g/Food/Objects_019_h.jpg,,,
,,4,2.3012,7,3.9666,8,3.0116,1,1.2869,3,1.4861,0,0,0,0,1,main,6,21,Female,R,Donders,2021-07-07_10h36.36.450,ImageRatingTask_S3,2021.1.4,Win32,61.05378839,,,,,,,,,
,,,,,,,,,,,,0,1,1,1,1,second,6,21,Female,R,Donders,2021-07-07_10h36.36.450,ImageRatingTask_S3,2021.1.4,Win32,61.05378839,,,,,,,,,
,,,,,,,,,,,,0,2,2,2,1,third,6,21,Female,R,Donders,2021-07-07_10h36.36.450,ImageRatingTask_S3,2021.1.4,Win32,61.05378839,,,,,,,,,
,,,,,,,,,,,,0,3,3,3,1,fourth,6,21,Female,R,Donders,2021-07-07_10h36.36.450,ImageRatingTask_S3,2021.1.4,Win32,61.05378839,,,,,,,,,
,,,,,,,,,,,,0,4,4,4,1,fifth,6,21,Female,R,Donders,2021-07-07_10h36.36.450,ImageRatingTask_S3,2021.1.4,Win32,61.05378839,,,,,,,,,
,,,,,,,,,,,,0,5,5,5,1,sixth,6,21,Female,R,Donders,2021-07-07_10h36.36.450,ImageRatingTask_S3,2021.1.4,Win32,61.05378839,,,,,,,,,
,,,,,,,,,,,,0,6,6,6,1,seventh,6,21,Female,R,Donders,2021-07-07_10h36.36.450,ImageRatingTask_S3,2021.1.4,Win32,61.05378839,,,,,,,,,
,,,,,,,,,,,,0,7,7,7,1,last,6,21,Female,R,Donders,2021-07-07_10h36.36.450,ImageRatingTask_S3,2021.1.4,Win32,61.05378839,,,,,,,,,
,,,,,,,,,,,,,,,,,,6,21,Female,R,Donders,2021-07-07_10h36.36.450,ImageRatingTask_S3,2021.1.4,Win32,61.05378839,0,31,31,31,1,DreamStudyImages_rs1000x750g/Mammals/Animals_049_h.jpg,,,
,,5,2.4275,3,1.6731,8,3.1979,1,1.4954,7,0.8242,0,0,0,0,1,main,6,21,Female,R,Donders,2021-07-07_10h36.36.450,ImageRatingTask_S3,2021.1.4,Win32,61.05378839,,,,,,,,,
,,,,,,,,,,,,0,1,1,1,1,second,6,21,Female,R,Donders,2021-07-07_10h36.36.450,ImageRatingTask_S3,2021.1.4,Win32,61.05378839,,,,,,,,,
,,,,,,,,,,,,0,2,2,2,1,third,6,21,Female,R,Donders,2021-07-07_10h36.36.450,ImageRatingTask_S3,2021.1.4,Win32,61.05378839,,,,,,,,,
,,,,,,,,,,,,0,3,3,3,1,fourth,6,21,Female,R,Donders,2021-07-07_10h36.36.450,ImageRatingTask_S3,2021.1.4,Win32,61.05378839,,,,,,,,,
,,,,,,,,,,,,0,4,4,4,1,fifth,6,21,Female,R,Donders,2021-07-07_10h36.36.450,ImageRatingTask_S3,2021.1.4,Win32,61.05378839,,,,,,,,,
,,,,,,,,,,,,0,5,5,5,1,sixth,6,21,Female,R,Donders,2021-07-07_10h36.36.450,ImageRatingTask_S3,2021.1.4,Win32,61.05378839,,,,,,,,,
,,,,,,,,,,,,0,6,6,6,1,seventh,6,21,Female,R,Donders,2021-07-07_10h36.36.450,ImageRatingTask_S3,2021.1.4,Win32,61.05378839,,,,,,,,,
,,,,,,,,,,,,0,7,7,7,1,last,6,21,Female,R,Donders,2021-07-07_10h36.36.450,ImageRatingTask_S3,2021.1.4,Win32,61.05378839,,,,,,,,,
,,,,,,,,,,,,,,,,,,6,21,Female,R,Donders,2021-07-07_10h36.36.450,ImageRatingTask_S3,2021.1.4,Win32,61.05378839,0,32,32,3,1,DreamStudyImages_rs1000x750g/Vehicles/paintedvan.jpg,,,
,,6,1.646,3,1.8342,5,2.3895,1,1.0602,2,0.1891,0,0,0,0,1,main,6,21,Female,R,Donders,2021-07-07_10h36.36.450,ImageRatingTask_S3,2021.1.4,Win32,61.05378839,,,,,,,,,
,,,,,,,,,,,,0,1,1,1,1,second,6,21,Female,R,Donders,2021-07-07_10h36.36.450,ImageRatingTask_S3,2021.1.4,Win32,61.05378839,,,,,,,,,
,,,,,,,,,,,,0,2,2,2,1,third,6,21,Female,R,Donders,2021-07-07_10h36.36.450,ImageRatingTask_S3,2021.1.4,Win32,61.05378839,,,,,,,,,
,,,,,,,,,,,,0,3,3,3,1,fourth,6,21,Female,R,Donders,2021-07-07_10h36.36.450,ImageRatingTask_S3,2021.1.4,Win32,61.05378839,,,,,,,,,
,,,,,,,,,,,,0,4,4,4,1,fifth,6,21,Female,R,Donders,2021-07-07_10h36.36.450,ImageRatingTask_S3,2021.1.4,Win32,61.05378839,,,,,,,,,
,,,,,,,,,,,,0,5,5,5,1,sixth,6,21,Female,R,Donders,2021-07-07_10h36.36.450,ImageRatingTask_S3,2021.1.4,Win32,61.05378839,,,,,,,,,
,,,,,,,,,,,,0,6,6,6,1,seventh,6,21,Female,R,Donders,2021-07-07_10h36.36.450,ImageRatingTask_S3,2021.1.4,Win32,61.05378839,,,,,,,,,
,,,,,,,,,,,,0,7,7,7,1,last,6,21,Female,R,Donders,2021-07-07_10h36.36.450,ImageRatingTask_S3,2021.1.4,Win32,61.05378839,,,,,,,,,
,,,,,,,,,,,,,,,,,,6,21,Female,R,Donders,2021-07-07_10h36.36.450,ImageRatingTask_S3,2021.1.4,Win32,61.05378839,0,33,33,147,1,DreamStudyImages_rs1000x750g/Children/Baby 5.jpg,,,
,,8,1.5678,6,3.4268,7,2.3708,1,1.2853,3,0.7675,0,0,0,0,1,main,6,21,Female,R,Donders,2021-07-07_10h36.36.450,ImageRatingTask_S3,2021.1.4,Win32,61.05378839,,,,,,,,,
,,,,,,,,,,,,0,1,1,1,1,second,6,21,Female,R,Donders,2021-07-07_10h36.36.450,ImageRatingTask_S3,2021.1.4,Win32,61.05378839,,,,,,,,,
,,,,,,,,,,,,0,2,2,2,1,third,6,21,Female,R,Donders,2021-07-07_10h36.36.450,ImageRatingTask_S3,2021.1.4,Win32,61.05378839,,,,,,,,,
,,,,,,,,,,,,0,3,3,3,1,fourth,6,21,Female,R,Donders,2021-07-07_10h36.36.450,ImageRatingTask_S3,2021.1.4,Win32,61.05378839,,,,,,,,,
,,,,,,,,,,,,0,4,4,4,1,fifth,6,21,Female,R,Donders,2021-07-07_10h36.36.450,ImageRatingTask_S3,2021.1.4,Win32,61.05378839,,,,,,,,,
,,,,,,,,,,,,0,5,5,5,1,sixth,6,21,Female,R,Donders,2021-07-07_10h36.36.450,ImageRatingTask_S3,2021.1.4,Win32,61.05378839,,,,,,,,,
,,,,,,,,,,,,0,6,6,6,1,seventh,6,21,Female,R,Donders,2021-07-07_10h36.36.450,ImageRatingTask_S3,2021.1.4,Win32,61.05378839,,,,,,,,,
,,,,,,,,,,,,0,7,7,7,1,last,6,21,Female,R,Donders,2021-07-07_10h36.36.450,ImageRatingTask_S3,2021.1.4,Win32,61.05378839,,,,,,,,,
,,,,,,,,,,,,,,,,,,6,21,Female,R,Donders,2021-07-07_10h36.36.450,ImageRatingTask_S3,2021.1.4,Win32,61.05378839,0,34,34,112,1,DreamStudyImages_rs1000x750g/Mammals/Pig 1.jpg,,,
,,2,1.1977,5,1.2391,5,1.7566,1,0.9263,7,0.8313,0,0,0,0,1,main,6,21,Female,R,Donders,2021-07-07_10h36.36.450,ImageRatingTask_S3,2021.1.4,Win32,61.05378839,,,,,,,,,
,,,,,,,,,,,,0,1,1,1,1,second,6,21,Female,R,Donders,2021-07-07_10h36.36.450,ImageRatingTask_S3,2021.1.4,Win32,61.05378839,,,,,,,,,
,,,,,,,,,,,,0,2,2,2,1,third,6,21,Female,R,Donders,2021-07-07_10h36.36.450,ImageRatingTask_S3,2021.1.4,Win32,61.05378839,,,,,,,,,
,,,,,,,,,,,,0,3,3,3,1,fourth,6,21,Female,R,Donders,2021-07-07_10h36.36.450,ImageRatingTask_S3,2021.1.4,Win32,61.05378839,,,,,,,,,
,,,,,,,,,,,,0,4,4,4,1,fifth,6,21,Female,R,Donders,2021-07-07_10h36.36.450,ImageRatingTask_S3,2021.1.4,Win32,61.05378839,,,,,,,,,
,,,,,,,,,,,,0,5,5,5,1,sixth,6,21,Female,R,Donders,2021-07-07_10h36.36.450,ImageRatingTask_S3,2021.1.4,Win32,61.05378839,,,,,,,,,
,,,,,,,,,,,,0,6,6,6,1,seventh,6,21,Female,R,Donders,2021-07-07_10h36.36.450,ImageRatingTask_S3,2021.1.4,Win32,61.05378839,,,,,,,,,
,,,,,,,,,,,,0,7,7,7,1,last,6,21,Female,R,Donders,2021-07-07_10h36.36.450,ImageRatingTask_S3,2021.1.4,Win32,61.05378839,,,,,,,,,
,,,,,,,,,,,,,,,,,,6,21,Female,R,Donders,2021-07-07_10h36.36.450,ImageRatingTask_S3,2021.1.4,Win32,61.05378839,0,35,35,102,1,DreamStudyImages_rs1000x750g/Vehicles/Destruction 10.jpg,,,
,,4,4.2783,3,2.3194,8,2.4008,1,1.2548,6,0.982,0,0,0,0,1,main,6,21,Female,R,Donders,2021-07-07_10h36.36.450,ImageRatingTask_S3,2021.1.4,Win32,61.05378839,,,,,,,,,
,,,,,,,,,,,,0,1,1,1,1,second,6,21,Female,R,Donders,2021-07-07_10h36.36.450,ImageRatingTask_S3,2021.1.4,Win32,61.05378839,,,,,,,,,
,,,,,,,,,,,,0,2,2,2,1,third,6,21,Female,R,Donders,2021-07-07_10h36.36.450,ImageRatingTask_S3,2021.1.4,Win32,61.05378839,,,,,,,,,
,,,,,,,,,,,,0,3,3,3,1,fourth,6,21,Female,R,Donders,2021-07-07_10h36.36.450,ImageRatingTask_S3,2021.1.4,Win32,61.05378839,,,,,,,,,
,,,,,,,,,,,,0,4,4,4,1,fifth,6,21,Female,R,Donders,2021-07-07_10h36.36.450,ImageRatingTask_S3,2021.1.4,Win32,61.05378839,,,,,,,,,
,,,,,,,,,,,,0,5,5,5,1,sixth,6,21,Female,R,Donders,2021-07-07_10h36.36.450,ImageRatingTask_S3,2021.1.4,Win32,61.05378839,,,,,,,,,
,,,,,,,,,,,,0,6,6,6,1,seventh,6,21,Female,R,Donders,2021-07-07_10h36.36.450,ImageRatingTask_S3,2021.1.4,Win32,61.05378839,,,,,,,,,
,,,,,,,,,,,,0,7,7,7,1,last,6,21,Female,R,Donders,2021-07-07_10h36.36.450,ImageRatingTask_S3,2021.1.4,Win32,61.05378839,,,,,,,,,
,,,,,,,,,,,,,,,,,,6,21,Female,R,Donders,2021-07-07_10h36.36.450,ImageRatingTask_S3,2021.1.4,Win32,61.05378839,0,36,36,109,1,DreamStudyImages_rs1000x750g/Houses/Landscapes_068_h.jpg,,,
,,8,1.9137,5,1.3368,5,1.6534,1,2.1508,3,1.1224,0,0,0,0,1,main,6,21,Female,R,Donders,2021-07-07_10h36.36.450,ImageRatingTask_S3,2021.1.4,Win32,61.05378839,,,,,,,,,
,,,,,,,,,,,,0,1,1,1,1,second,6,21,Female,R,Donders,2021-07-07_10h36.36.450,ImageRatingTask_S3,2021.1.4,Win32,61.05378839,,,,,,,,,
,,,,,,,,,,,,0,2,2,2,1,third,6,21,Female,R,Donders,2021-07-07_10h36.36.450,ImageRatingTask_S3,2021.1.4,Win32,61.05378839,,,,,,,,,
,,,,,,,,,,,,0,3,3,3,1,fourth,6,21,Female,R,Donders,2021-07-07_10h36.36.450,ImageRatingTask_S3,2021.1.4,Win32,61.05378839,,,,,,,,,
,,,,,,,,,,,,0,4,4,4,1,fifth,6,21,Female,R,Donders,2021-07-07_10h36.36.450,ImageRatingTask_S3,2021.1.4,Win32,61.05378839,,,,,,,,,
,,,,,,,,,,,,0,5,5,5,1,sixth,6,21,Female,R,Donders,2021-07-07_10h36.36.450,ImageRatingTask_S3,2021.1.4,Win32,61.05378839,,,,,,,,,
,,,,,,,,,,,,0,6,6,6,1,seventh,6,21,Female,R,Donders,2021-07-07_10h36.36.450,ImageRatingTask_S3,2021.1.4,Win32,61.05378839,,,,,,,,,
,,,,,,,,,,,,0,7,7,7,1,last,6,21,Female,R,Donders,2021-07-07_10h36.36.450,ImageRatingTask_S3,2021.1.4,Win32,61.05378839,,,,,,,,,
,,,,,,,,,,,,,,,,,,6,21,Female,R,Donders,2021-07-07_10h36.36.450,ImageRatingTask_S3,2021.1.4,Win32,61.05378839,0,37,37,46,1,DreamStudyImages_rs1000x750g/Mammals/IAPS1670_cow.jpg,,,
,,6,3.7287,3,1.0841,8,6.8275,1,1.1602,5,1.2633,0,0,0,0,1,main,6,21,Female,R,Donders,2021-07-07_10h36.36.450,ImageRatingTask_S3,2021.1.4,Win32,61.05378839,,,,,,,,,
,,,,,,,,,,,,0,1,1,1,1,second,6,21,Female,R,Donders,2021-07-07_10h36.36.450,ImageRatingTask_S3,2021.1.4,Win32,61.05378839,,,,,,,,,
,,,,,,,,,,,,0,2,2,2,1,third,6,21,Female,R,Donders,2021-07-07_10h36.36.450,ImageRatingTask_S3,2021.1.4,Win32,61.05378839,,,,,,,,,
,,,,,,,,,,,,0,3,3,3,1,fourth,6,21,Female,R,Donders,2021-07-07_10h36.36.450,ImageRatingTask_S3,2021.1.4,Win32,61.05378839,,,,,,,,,
,,,,,,,,,,,,0,4,4,4,1,fifth,6,21,Female,R,Donders,2021-07-07_10h36.36.450,ImageRatingTask_S3,2021.1.4,Win32,61.05378839,,,,,,,,,
,,,,,,,,,,,,0,5,5,5,1,sixth,6,21,Female,R,Donders,2021-07-07_10h36.36.450,ImageRatingTask_S3,2021.1.4,Win32,61.05378839,,,,,,,,,
,,,,,,,,,,,,0,6,6,6,1,seventh,6,21,Female,R,Donders,2021-07-07_10h36.36.450,ImageRatingTask_S3,2021.1.4,Win32,61.05378839,,,,,,,,,
,,,,,,,,,,,,0,7,7,7,1,last,6,21,Female,R,Donders,2021-07-07_10h36.36.450,ImageRatingTask_S3,2021.1.4,Win32,61.05378839,,,,,,,,,
,,,,,,,,,,,,,,,,,,6,21,Female,R,Donders,2021-07-07_10h36.36.450,ImageRatingTask_S3,2021.1.4,Win32,61.05378839,0,38,38,28,1,DreamStudyImages_rs1000x750g/Food/Objects_051_h.jpg,,,
,,7,1.6754,6,1.251,6,1.7737,1,1.0895,5,0.7936,0,0,0,0,1,main,6,21,Female,R,Donders,2021-07-07_10h36.36.450,ImageRatingTask_S3,2021.1.4,Win32,61.05378839,,,,,,,,,
,,,,,,,,,,,,0,1,1,1,1,second,6,21,Female,R,Donders,2021-07-07_10h36.36.450,ImageRatingTask_S3,2021.1.4,Win32,61.05378839,,,,,,,,,
,,,,,,,,,,,,0,2,2,2,1,third,6,21,Female,R,Donders,2021-07-07_10h36.36.450,ImageRatingTask_S3,2021.1.4,Win32,61.05378839,,,,,,,,,
,,,,,,,,,,,,0,3,3,3,1,fourth,6,21,Female,R,Donders,2021-07-07_10h36.36.450,ImageRatingTask_S3,2021.1.4,Win32,61.05378839,,,,,,,,,
,,,,,,,,,,,,0,4,4,4,1,fifth,6,21,Female,R,Donders,2021-07-07_10h36.36.450,ImageRatingTask_S3,2021.1.4,Win32,61.05378839,,,,,,,,,
,,,,,,,,,,,,0,5,5,5,1,sixth,6,21,Female,R,Donders,2021-07-07_10h36.36.450,ImageRatingTask_S3,2021.1.4,Win32,61.05378839,,,,,,,,,
,,,,,,,,,,,,0,6,6,6,1,seventh,6,21,Female,R,Donders,2021-07-07_10h36.36.450,ImageRatingTask_S3,2021.1.4,Win32,61.05378839,,,,,,,,,
,,,,,,,,,,,,0,7,7,7,1,last,6,21,Female,R,Donders,2021-07-07_10h36.36.450,ImageRatingTask_S3,2021.1.4,Win32,61.05378839,,,,,,,,,
,,,,,,,,,,,,,,,,,,6,21,Female,R,Donders,2021-07-07_10h36.36.450,ImageRatingTask_S3,2021.1.4,Win32,61.05378839,0,39,39,21,1,DreamStudyImages_rs1000x750g/Food/IAPS7472_fruitbasket3.jpg,,,
,,5,6.4702,2,1.2406,1,1.727,1,3.1422,6,3.4164,0,0,0,0,1,main,6,21,Female,R,Donders,2021-07-07_10h36.36.450,ImageRatingTask_S3,2021.1.4,Win32,61.05378839,,,,,,,,,
,,,,,,,,,,,,0,1,1,1,1,second,6,21,Female,R,Donders,2021-07-07_10h36.36.450,ImageRatingTask_S3,2021.1.4,Win32,61.05378839,,,,,,,,,
,,,,,,,,,,,,0,2,2,2,1,third,6,21,Female,R,Donders,2021-07-07_10h36.36.450,ImageRatingTask_S3,2021.1.4,Win32,61.05378839,,,,,,,,,
,,,,,,,,,,,,0,3,3,3,1,fourth,6,21,Female,R,Donders,2021-07-07_10h36.36.450,ImageRatingTask_S3,2021.1.4,Win32,61.05378839,,,,,,,,,
,,,,,,,,,,,,0,4,4,4,1,fifth,6,21,Female,R,Donders,2021-07-07_10h36.36.450,ImageRatingTask_S3,2021.1.4,Win32,61.05378839,,,,,,,,,
,,,,,,,,,,,,0,5,5,5,1,sixth,6,21,Female,R,Donders,2021-07-07_10h36.36.450,ImageRatingTask_S3,2021.1.4,Win32,61.05378839,,,,,,,,,
,,,,,,,,,,,,0,6,6,6,1,seventh,6,21,Female,R,Donders,2021-07-07_10h36.36.450,ImageRatingTask_S3,2021.1.4,Win32,61.05378839,,,,,,,,,
,,,,,,,,,,,,0,7,7,7,1,last,6,21,Female,R,Donders,2021-07-07_10h36.36.450,ImageRatingTask_S3,2021.1.4,Win32,61.05378839,,,,,,,,,
,,,,,,,,,,,,,,,,,,6,21,Female,R,Donders,2021-07-07_10h36.36.450,ImageRatingTask_S3,2021.1.4,Win32,61.05378839,0,40,40,140,1,DreamStudyImages_rs1000x750g/Houses/Skyscraper 2_CROPPED.jpg,,,
,,4,4.7334,5,1.1837,6,2.4817,1,1.5344,6,4.5304,0,0,0,0,1,main,6,21,Female,R,Donders,2021-07-07_10h36.36.450,ImageRatingTask_S3,2021.1.4,Win32,61.05378839,,,,,,,,,
,,,,,,,,,,,,0,1,1,1,1,second,6,21,Female,R,Donders,2021-07-07_10h36.36.450,ImageRatingTask_S3,2021.1.4,Win32,61.05378839,,,,,,,,,
,,,,,,,,,,,,0,2,2,2,1,third,6,21,Female,R,Donders,2021-07-07_10h36.36.450,ImageRatingTask_S3,2021.1.4,Win32,61.05378839,,,,,,,,,
,,,,,,,,,,,,0,3,3,3,1,fourth,6,21,Female,R,Donders,2021-07-07_10h36.36.450,ImageRatingTask_S3,2021.1.4,Win32,61.05378839,,,,,,,,,
,,,,,,,,,,,,0,4,4,4,1,fifth,6,21,Female,R,Donders,2021-07-07_10h36.36.450,ImageRatingTask_S3,2021.1.4,Win32,61.05378839,,,,,,,,,
,,,,,,,,,,,,0,5,5,5,1,sixth,6,21,Female,R,Donders,2021-07-07_10h36.36.450,ImageRatingTask_S3,2021.1.4,Win32,61.05378839,,,,,,,,,
,,,,,,,,,,,,0,6,6,6,1,seventh,6,21,Female,R,Donders,2021-07-07_10h36.36.450,ImageRatingTask_S3,2021.1.4,Win32,61.05378839,,,,,,,,,
,,,,,,,,,,,,0,7,7,7,1,last,6,21,Female,R,Donders,2021-07-07_10h36.36.450,ImageRatingTask_S3,2021.1.4,Win32,61.05378839,,,,,,,,,
,,,,,,,,,,,,,,,,,,6,21,Female,R,Donders,2021-07-07_10h36.36.450,ImageRatingTask_S3,2021.1.4,Win32,61.05378839,0,41,41,105,1,DreamStudyImages_rs1000x750g/Houses/Landscapes_027_v.jpg,,,
,,5,5.6639,2,1.2801,7,1.9212,1,0.8347,2,0.4899,0,0,0,0,1,main,6,21,Female,R,Donders,2021-07-07_10h36.36.450,ImageRatingTask_S3,2021.1.4,Win32,61.05378839,,,,,,,,,
,,,,,,,,,,,,0,1,1,1,1,second,6,21,Female,R,Donders,2021-07-07_10h36.36.450,ImageRatingTask_S3,2021.1.4,Win32,61.05378839,,,,,,,,,
,,,,,,,,,,,,0,2,2,2,1,third,6,21,Female,R,Donders,2021-07-07_10h36.36.450,ImageRatingTask_S3,2021.1.4,Win32,61.05378839,,,,,,,,,
,,,,,,,,,,,,0,3,3,3,1,fourth,6,21,Female,R,Donders,2021-07-07_10h36.36.450,ImageRatingTask_S3,2021.1.4,Win32,61.05378839,,,,,,,,,
,,,,,,,,,,,,0,4,4,4,1,fifth,6,21,Female,R,Donders,2021-07-07_10h36.36.450,ImageRatingTask_S3,2021.1.4,Win32,61.05378839,,,,,,,,,
,,,,,,,,,,,,0,5,5,5,1,sixth,6,21,Female,R,Donders,2021-07-07_10h36.36.450,ImageRatingTask_S3,2021.1.4,Win32,61.05378839,,,,,,,,,
,,,,,,,,,,,,0,6,6,6,1,seventh,6,21,Female,R,Donders,2021-07-07_10h36.36.450,ImageRatingTask_S3,2021.1.4,Win32,61.05378839,,,,,,,,,
,,,,,,,,,,,,0,7,7,7,1,last,6,21,Female,R,Donders,2021-07-07_10h36.36.450,ImageRatingTask_S3,2021.1.4,Win32,61.05378839,,,,,,,,,
,,,,,,,,,,,,,,,,,,6,21,Female,R,Donders,2021-07-07_10h36.36.450,ImageRatingTask_S3,2021.1.4,Win32,61.05378839,0,42,42,84,1,DreamStudyImages_rs1000x750g/Children/Faces_129_h.jpg,,,
,,5,2.4976,2,2.266,6,3.0012,1,2.1149,6,1.4824,0,0,0,0,1,main,6,21,Female,R,Donders,2021-07-07_10h36.36.450,ImageRatingTask_S3,2021.1.4,Win32,61.05378839,,,,,,,,,
,,,,,,,,,,,,0,1,1,1,1,second,6,21,Female,R,Donders,2021-07-07_10h36.36.450,ImageRatingTask_S3,2021.1.4,Win32,61.05378839,,,,,,,,,
,,,,,,,,,,,,0,2,2,2,1,third,6,21,Female,R,Donders,2021-07-07_10h36.36.450,ImageRatingTask_S3,2021.1.4,Win32,61.05378839,,,,,,,,,
,,,,,,,,,,,,0,3,3,3,1,fourth,6,21,Female,R,Donders,2021-07-07_10h36.36.450,ImageRatingTask_S3,2021.1.4,Win32,61.05378839,,,,,,,,,
,,,,,,,,,,,,0,4,4,4,1,fifth,6,21,Female,R,Donders,2021-07-07_10h36.36.450,ImageRatingTask_S3,2021.1.4,Win32,61.05378839,,,,,,,,,
,,,,,,,,,,,,0,5,5,5,1,sixth,6,21,Female,R,Donders,2021-07-07_10h36.36.450,ImageRatingTask_S3,2021.1.4,Win32,61.05378839,,,,,,,,,
,,,,,,,,,,,,0,6,6,6,1,seventh,6,21,Female,R,Donders,2021-07-07_10h36.36.450,ImageRatingTask_S3,2021.1.4,Win32,61.05378839,,,,,,,,,
,,,,,,,,,,,,0,7,7,7,1,last,6,21,Female,R,Donders,2021-07-07_10h36.36.450,ImageRatingTask_S3,2021.1.4,Win32,61.05378839,,,,,,,,,
,,,,,,,,,,,,,,,,,,6,21,Female,R,Donders,2021-07-07_10h36.36.450,ImageRatingTask_S3,2021.1.4,Win32,61.05378839,0,43,43,17,1,DreamStudyImages_rs1000x750g/Houses/Objects_234_h.jpg,,,
,,7,2.0344,2,2.9811,8,2.7606,0,2.468,,,0,0,0,0,1,main,6,21,Female,R,Donders,2021-07-07_10h36.36.450,ImageRatingTask_S3,2021.1.4,Win32,61.05378839,,,,,,,,,
,,,,,,,,,,,,0,1,1,1,1,second,6,21,Female,R,Donders,2021-07-07_10h36.36.450,ImageRatingTask_S3,2021.1.4,Win32,61.05378839,,,,,,,,,
,,,,,,,,,,,,0,2,2,2,1,third,6,21,Female,R,Donders,2021-07-07_10h36.36.450,ImageRatingTask_S3,2021.1.4,Win32,61.05378839,,,,,,,,,
,,,,,,,,,,,,0,3,3,3,1,fourth,6,21,Female,R,Donders,2021-07-07_10h36.36.450,ImageRatingTask_S3,2021.1.4,Win32,61.05378839,,,,,,,,,
,,,,,,,,,,,,0,4,4,4,1,fifth,6,21,Female,R,Donders,2021-07-07_10h36.36.450,ImageRatingTask_S3,2021.1.4,Win32,61.05378839,,,,,,,,,
,,,,,,,,,,,,0,5,5,5,1,sixth,6,21,Female,R,Donders,2021-07-07_10h36.36.450,ImageRatingTask_S3,2021.1.4,Win32,61.05378839,,,,,,,,,
,,,,,,,,,,,,0,6,6,6,1,seventh,6,21,Female,R,Donders,2021-07-07_10h36.36.450,ImageRatingTask_S3,2021.1.4,Win32,61.05378839,,,,,,,,,
,,,,,,,,,,,,0,7,7,7,1,last,6,21,Female,R,Donders,2021-07-07_10h36.36.450,ImageRatingTask_S3,2021.1.4,Win32,61.05378839,,,,,,,,,
,,,,,,,,,,,,,,,,,,6,21,Female,R,Donders,2021-07-07_10h36.36.450,ImageRatingTask_S3,2021.1.4,Win32,61.05378839,0,44,44,98,1,DreamStudyImages_rs1000x750g/Houses/Landscapes_117_h.jpg,,,
,,7,2.0828,2,2.7994,7,4.7394,1,2.307,6,0.9257,0,0,0,0,1,main,6,21,Female,R,Donders,2021-07-07_10h36.36.450,ImageRatingTask_S3,2021.1.4,Win32,61.05378839,,,,,,,,,
,,,,,,,,,,,,0,1,1,1,1,second,6,21,Female,R,Donders,2021-07-07_10h36.36.450,ImageRatingTask_S3,2021.1.4,Win32,61.05378839,,,,,,,,,
,,,,,,,,,,,,0,2,2,2,1,third,6,21,Female,R,Donders,2021-07-07_10h36.36.450,ImageRatingTask_S3,2021.1.4,Win32,61.05378839,,,,,,,,,
,,,,,,,,,,,,0,3,3,3,1,fourth,6,21,Female,R,Donders,2021-07-07_10h36.36.450,ImageRatingTask_S3,2021.1.4,Win32,61.05378839,,,,,,,,,
,,,,,,,,,,,,0,4,4,4,1,fifth,6,21,Female,R,Donders,2021-07-07_10h36.36.450,ImageRatingTask_S3,2021.1.4,Win32,61.05378839,,,,,,,,,
,,,,,,,,,,,,0,5,5,5,1,sixth,6,21,Female,R,Donders,2021-07-07_10h36.36.450,ImageRatingTask_S3,2021.1.4,Win32,61.05378839,,,,,,,,,
,,,,,,,,,,,,0,6,6,6,1,seventh,6,21,Female,R,Donders,2021-07-07_10h36.36.450,ImageRatingTask_S3,2021.1.4,Win32,61.05378839,,,,,,,,,
,,,,,,,,,,,,0,7,7,7,1,last,6,21,Female,R,Donders,2021-07-07_10h36.36.450,ImageRatingTask_S3,2021.1.4,Win32,61.05378839,,,,,,,,,
,,,,,,,,,,,,,,,,,,6,21,Female,R,Donders,2021-07-07_10h36.36.450,ImageRatingTask_S3,2021.1.4,Win32,61.05378839,0,45,45,100,1,DreamStudyImages_rs1000x750g/Houses/Landscapes_056_h.jpg,,,
,,7,1.6644,8,2.0291,8,3.0859,1,1.873,3,0.9866,0,0,0,0,1,main,6,21,Female,R,Donders,2021-07-07_10h36.36.450,ImageRatingTask_S3,2021.1.4,Win32,61.05378839,,,,,,,,,
,,,,,,,,,,,,0,1,1,1,1,second,6,21,Female,R,Donders,2021-07-07_10h36.36.450,ImageRatingTask_S3,2021.1.4,Win32,61.05378839,,,,,,,,,
,,,,,,,,,,,,0,2,2,2,1,third,6,21,Female,R,Donders,2021-07-07_10h36.36.450,ImageRatingTask_S3,2021.1.4,Win32,61.05378839,,,,,,,,,
,,,,,,,,,,,,0,3,3,3,1,fourth,6,21,Female,R,Donders,2021-07-07_10h36.36.450,ImageRatingTask_S3,2021.1.4,Win32,61.05378839,,,,,,,,,
,,,,,,,,,,,,0,4,4,4,1,fifth,6,21,Female,R,Donders,2021-07-07_10h36.36.450,ImageRatingTask_S3,2021.1.4,Win32,61.05378839,,,,,,,,,
,,,,,,,,,,,,0,5,5,5,1,sixth,6,21,Female,R,Donders,2021-07-07_10h36.36.450,ImageRatingTask_S3,2021.1.4,Win32,61.05378839,,,,,,,,,
,,,,,,,,,,,,0,6,6,6,1,seventh,6,21,Female,R,Donders,2021-07-07_10h36.36.450,ImageRatingTask_S3,2021.1.4,Win32,61.05378839,,,,,,,,,
,,,,,,,,,,,,0,7,7,7,1,last,6,21,Female,R,Donders,2021-07-07_10h36.36.450,ImageRatingTask_S3,2021.1.4,Win32,61.05378839,,,,,,,,,
,,,,,,,,,,,,,,,,,,6,21,Female,R,Donders,2021-07-07_10h36.36.450,ImageRatingTask_S3,2021.1.4,Win32,61.05378839,0,46,46,51,1,DreamStudyImages_rs1000x750g/Mammals/Animals_009_v.jpg,,,
,,5,3.0134,2,1.2887,6,2.3187,1,1.3373,5,0.8987,0,0,0,0,1,main,6,21,Female,R,Donders,2021-07-07_10h36.36.450,ImageRatingTask_S3,2021.1.4,Win32,61.05378839,,,,,,,,,
,,,,,,,,,,,,0,1,1,1,1,second,6,21,Female,R,Donders,2021-07-07_10h36.36.450,ImageRatingTask_S3,2021.1.4,Win32,61.05378839,,,,,,,,,
,,,,,,,,,,,,0,2,2,2,1,third,6,21,Female,R,Donders,2021-07-07_10h36.36.450,ImageRatingTask_S3,2021.1.4,Win32,61.05378839,,,,,,,,,
,,,,,,,,,,,,0,3,3,3,1,fourth,6,21,Female,R,Donders,2021-07-07_10h36.36.450,ImageRatingTask_S3,2021.1.4,Win32,61.05378839,,,,,,,,,
,,,,,,,,,,,,0,4,4,4,1,fifth,6,21,Female,R,Donders,2021-07-07_10h36.36.450,ImageRatingTask_S3,2021.1.4,Win32,61.05378839,,,,,,,,,
,,,,,,,,,,,,0,5,5,5,1,sixth,6,21,Female,R,Donders,2021-07-07_10h36.36.450,ImageRatingTask_S3,2021.1.4,Win32,61.05378839,,,,,,,,,
,,,,,,,,,,,,0,6,6,6,1,seventh,6,21,Female,R,Donders,2021-07-07_10h36.36.450,ImageRatingTask_S3,2021.1.4,Win32,61.05378839,,,,,,,,,
,,,,,,,,,,,,0,7,7,7,1,last,6,21,Female,R,Donders,2021-07-07_10h36.36.450,ImageRatingTask_S3,2021.1.4,Win32,61.05378839,,,,,,,,,
,,,,,,,,,,,,,,,,,,6,21,Female,R,Donders,2021-07-07_10h36.36.450,ImageRatingTask_S3,2021.1.4,Win32,61.05378839,0,47,47,13,1,DreamStudyImages_rs1000x750g/Food/IAPS7487_pastela.jpg,,,
,,7,6.6847,3,1.4361,4,2.6721,1,2.0591,8,1.1819,0,0,0,0,1,main,6,21,Female,R,Donders,2021-07-07_10h36.36.450,ImageRatingTask_S3,2021.1.4,Win32,61.05378839,,,,,,,,,
,,,,,,,,,,,,0,1,1,1,1,second,6,21,Female,R,Donders,2021-07-07_10h36.36.450,ImageRatingTask_S3,2021.1.4,Win32,61.05378839,,,,,,,,,
,,,,,,,,,,,,0,2,2,2,1,third,6,21,Female,R,Donders,2021-07-07_10h36.36.450,ImageRatingTask_S3,2021.1.4,Win32,61.05378839,,,,,,,,,
,,,,,,,,,,,,0,3,3,3,1,fourth,6,21,Female,R,Donders,2021-07-07_10h36.36.450,ImageRatingTask_S3,2021.1.4,Win32,61.05378839,,,,,,,,,
,,,,,,,,,,,,0,4,4,4,1,fifth,6,21,Female,R,Donders,2021-07-07_10h36.36.450,ImageRatingTask_S3,2021.1.4,Win32,61.05378839,,,,,,,,,
,,,,,,,,,,,,0,5,5,5,1,sixth,6,21,Female,R,Donders,2021-07-07_10h36.36.450,ImageRatingTask_S3,2021.1.4,Win32,61.05378839,,,,,,,,,
,,,,,,,,,,,,0,6,6,6,1,seventh,6,21,Female,R,Donders,2021-07-07_10h36.36.450,ImageRatingTask_S3,2021.1.4,Win32,61.05378839,,,,,,,,,
,,,,,,,,,,,,0,7,7,7,1,last,6,21,Female,R,Donders,2021-07-07_10h36.36.450,ImageRatingTask_S3,2021.1.4,Win32,61.05378839,,,,,,,,,
,,,,,,,,,,,,,,,,,,6,21,Female,R,Donders,2021-07-07_10h36.36.450,ImageRatingTask_S3,2021.1.4,Win32,61.05378839,0,48,48,122,1,DreamStudyImages_rs1000x750g/Water/Lake 11.jpg,,,
,,5,2.2267,2,1.6867,5,3.7769,1,2.832,7,0.9405,0,0,0,0,1,main,6,21,Female,R,Donders,2021-07-07_10h36.36.450,ImageRatingTask_S3,2021.1.4,Win32,61.05378839,,,,,,,,,
,,,,,,,,,,,,0,1,1,1,1,second,6,21,Female,R,Donders,2021-07-07_10h36.36.450,ImageRatingTask_S3,2021.1.4,Win32,61.05378839,,,,,,,,,
,,,,,,,,,,,,0,2,2,2,1,third,6,21,Female,R,Donders,2021-07-07_10h36.36.450,ImageRatingTask_S3,2021.1.4,Win32,61.05378839,,,,,,,,,
,,,,,,,,,,,,0,3,3,3,1,fourth,6,21,Female,R,Donders,2021-07-07_10h36.36.450,ImageRatingTask_S3,2021.1.4,Win32,61.05378839,,,,,,,,,
,,,,,,,,,,,,0,4,4,4,1,fifth,6,21,Female,R,Donders,2021-07-07_10h36.36.450,ImageRatingTask_S3,2021.1.4,Win32,61.05378839,,,,,,,,,
,,,,,,,,,,,,0,5,5,5,1,sixth,6,21,Female,R,Donders,2021-07-07_10h36.36.450,ImageRatingTask_S3,2021.1.4,Win32,61.05378839,,,,,,,,,
,,,,,,,,,,,,0,6,6,6,1,seventh,6,21,Female,R,Donders,2021-07-07_10h36.36.450,ImageRatingTask_S3,2021.1.4,Win32,61.05378839,,,,,,,,,
,,,,,,,,,,,,0,7,7,7,1,last,6,21,Female,R,Donders,2021-07-07_10h36.36.450,ImageRatingTask_S3,2021.1.4,Win32,61.05378839,,,,,,,,,
,,,,,,,,,,,,,,,,,,6,21,Female,R,Donders,2021-07-07_10h36.36.450,ImageRatingTask_S3,2021.1.4,Win32,61.05378839,0,49,49,23,1,DreamStudyImages_rs1000x750g/Vehicles/IAPS7039_train3.jpg,,,
,,4,4.7903,7,1.917,8,2.4419,1,1.8069,8,1.2398,0,0,0,0,1,main,6,21,Female,R,Donders,2021-07-07_10h36.36.450,ImageRatingTask_S3,2021.1.4,Win32,61.05378839,,,,,,,,,
,,,,,,,,,,,,0,1,1,1,1,second,6,21,Female,R,Donders,2021-07-07_10h36.36.450,ImageRatingTask_S3,2021.1.4,Win32,61.05378839,,,,,,,,,
,,,,,,,,,,,,0,2,2,2,1,third,6,21,Female,R,Donders,2021-07-07_10h36.36.450,ImageRatingTask_S3,2021.1.4,Win32,61.05378839,,,,,,,,,
,,,,,,,,,,,,0,3,3,3,1,fourth,6,21,Female,R,Donders,2021-07-07_10h36.36.450,ImageRatingTask_S3,2021.1.4,Win32,61.05378839,,,,,,,,,
,,,,,,,,,,,,0,4,4,4,1,fifth,6,21,Female,R,Donders,2021-07-07_10h36.36.450,ImageRatingTask_S3,2021.1.4,Win32,61.05378839,,,,,,,,,
,,,,,,,,,,,,0,5,5,5,1,sixth,6,21,Female,R,Donders,2021-07-07_10h36.36.450,ImageRatingTask_S3,2021.1.4,Win32,61.05378839,,,,,,,,,
,,,,,,,,,,,,0,6,6,6,1,seventh,6,21,Female,R,Donders,2021-07-07_10h36.36.450,ImageRatingTask_S3,2021.1.4,Win32,61.05378839,,,,,,,,,
,,,,,,,,,,,,0,7,7,7,1,last,6,21,Female,R,Donders,2021-07-07_10h36.36.450,ImageRatingTask_S3,2021.1.4,Win32,61.05378839,,,,,,,,,
,,,,,,,,,,,,,,,,,,6,21,Female,R,Donders,2021-07-07_10h36.36.450,ImageRatingTask_S3,2021.1.4,Win32,61.05378839,0,50,50,0,1,DreamStudyImages_rs1000x750g/Water/Objects_233_h.jpg,,,
,,5,1.9867,2,1.0345,6,2.01,0,2.1753,,,0,0,0,0,1,main,6,21,Female,R,Donders,2021-07-07_10h36.36.450,ImageRatingTask_S3,2021.1.4,Win32,61.05378839,,,,,,,,,
,,,,,,,,,,,,0,1,1,1,1,second,6,21,Female,R,Donders,2021-07-07_10h36.36.450,ImageRatingTask_S3,2021.1.4,Win32,61.05378839,,,,,,,,,
,,,,,,,,,,,,0,2,2,2,1,third,6,21,Female,R,Donders,2021-07-07_10h36.36.450,ImageRatingTask_S3,2021.1.4,Win32,61.05378839,,,,,,,,,
,,,,,,,,,,,,0,3,3,3,1,fourth,6,21,Female,R,Donders,2021-07-07_10h36.36.450,ImageRatingTask_S3,2021.1.4,Win32,61.05378839,,,,,,,,,
,,,,,,,,,,,,0,4,4,4,1,fifth,6,21,Female,R,Donders,2021-07-07_10h36.36.450,ImageRatingTask_S3,2021.1.4,Win32,61.05378839,,,,,,,,,
,,,,,,,,,,,,0,5,5,5,1,sixth,6,21,Female,R,Donders,2021-07-07_10h36.36.450,ImageRatingTask_S3,2021.1.4,Win32,61.05378839,,,,,,,,,
,,,,,,,,,,,,0,6,6,6,1,seventh,6,21,Female,R,Donders,2021-07-07_10h36.36.450,ImageRatingTask_S3,2021.1.4,Win32,61.05378839,,,,,,,,,
,,,,,,,,,,,,0,7,7,7,1,last,6,21,Female,R,Donders,2021-07-07_10h36.36.450,ImageRatingTask_S3,2021.1.4,Win32,61.05378839,,,,,,,,,
,,,,,,,,,,,,,,,,,,6,21,Female,R,Donders,2021-07-07_10h36.36.450,ImageRatingTask_S3,2021.1.4,Win32,61.05378839,0,51,51,108,1,DreamStudyImages_rs1000x750g/Houses/Landscapes_034_h.jpg,,,
,,7,1.9932,6,1.431,8,1.7277,1,1.8051,3,0.9629,0,0,0,0,1,main,6,21,Female,R,Donders,2021-07-07_10h36.36.450,ImageRatingTask_S3,2021.1.4,Win32,61.05378839,,,,,,,,,
,,,,,,,,,,,,0,1,1,1,1,second,6,21,Female,R,Donders,2021-07-07_10h36.36.450,ImageRatingTask_S3,2021.1.4,Win32,61.05378839,,,,,,,,,
,,,,,,,,,,,,0,2,2,2,1,third,6,21,Female,R,Donders,2021-07-07_10h36.36.450,ImageRatingTask_S3,2021.1.4,Win32,61.05378839,,,,,,,,,
,,,,,,,,,,,,0,3,3,3,1,fourth,6,21,Female,R,Donders,2021-07-07_10h36.36.450,ImageRatingTask_S3,2021.1.4,Win32,61.05378839,,,,,,,,,
,,,,,,,,,,,,0,4,4,4,1,fifth,6,21,Female,R,Donders,2021-07-07_10h36.36.450,ImageRatingTask_S3,2021.1.4,Win32,61.05378839,,,,,,,,,
,,,,,,,,,,,,0,5,5,5,1,sixth,6,21,Female,R,Donders,2021-07-07_10h36.36.450,ImageRatingTask_S3,2021.1.4,Win32,61.05378839,,,,,,,,,
,,,,,,,,,,,,0,6,6,6,1,seventh,6,21,Female,R,Donders,2021-07-07_10h36.36.450,ImageRatingTask_S3,2021.1.4,Win32,61.05378839,,,,,,,,,
,,,,,,,,,,,,0,7,7,7,1,last,6,21,Female,R,Donders,2021-07-07_10h36.36.450,ImageRatingTask_S3,2021.1.4,Win32,61.05378839,,,,,,,,,
,,,,,,,,,,,,,,,,,,6,21,Female,R,Donders,2021-07-07_10h36.36.450,ImageRatingTask_S3,2021.1.4,Win32,61.05378839,0,52,52,45,1,DreamStudyImages_rs1000x750g/Mammals/Animals_214_h.jpg,,,
,,6,3.4008,2,1.2711,8,2.1561,1,1.4359,8,1.249,0,0,0,0,1,main,6,21,Female,R,Donders,2021-07-07_10h36.36.450,ImageRatingTask_S3,2021.1.4,Win32,61.05378839,,,,,,,,,
,,,,,,,,,,,,0,1,1,1,1,second,6,21,Female,R,Donders,2021-07-07_10h36.36.450,ImageRatingTask_S3,2021.1.4,Win32,61.05378839,,,,,,,,,
,,,,,,,,,,,,0,2,2,2,1,third,6,21,Female,R,Donders,2021-07-07_10h36.36.450,ImageRatingTask_S3,2021.1.4,Win32,61.05378839,,,,,,,,,
,,,,,,,,,,,,0,3,3,3,1,fourth,6,21,Female,R,Donders,2021-07-07_10h36.36.450,ImageRatingTask_S3,2021.1.4,Win32,61.05378839,,,,,,,,,
,,,,,,,,,,,,0,4,4,4,1,fifth,6,21,Female,R,Donders,2021-07-07_10h36.36.450,ImageRatingTask_S3,2021.1.4,Win32,61.05378839,,,,,,,,,
,,,,,,,,,,,,0,5,5,5,1,sixth,6,21,Female,R,Donders,2021-07-07_10h36.36.450,ImageRatingTask_S3,2021.1.4,Win32,61.05378839,,,,,,,,,
,,,,,,,,,,,,0,6,6,6,1,seventh,6,21,Female,R,Donders,2021-07-07_10h36.36.450,ImageRatingTask_S3,2021.1.4,Win32,61.05378839,,,,,,,,,
,,,,,,,,,,,,0,7,7,7,1,last,6,21,Female,R,Donders,2021-07-07_10h36.36.450,ImageRatingTask_S3,2021.1.4,Win32,61.05378839,,,,,,,,,
,,,,,,,,,,,,,,,,,,6,21,Female,R,Donders,2021-07-07_10h36.36.450,ImageRatingTask_S3,2021.1.4,Win32,61.05378839,0,53,53,132,1,DreamStudyImages_rs1000x750g/Vehicles/Objects_323_h.jpg,,,
,,7,1.7191,3,1.2229,7,2.021,1,1.1083,3,0.9081,0,0,0,0,1,main,6,21,Female,R,Donders,2021-07-07_10h36.36.450,ImageRatingTask_S3,2021.1.4,Win32,61.05378839,,,,,,,,,
,,,,,,,,,,,,0,1,1,1,1,second,6,21,Female,R,Donders,2021-07-07_10h36.36.450,ImageRatingTask_S3,2021.1.4,Win32,61.05378839,,,,,,,,,
,,,,,,,,,,,,0,2,2,2,1,third,6,21,Female,R,Donders,2021-07-07_10h36.36.450,ImageRatingTask_S3,2021.1.4,Win32,61.05378839,,,,,,,,,
,,,,,,,,,,,,0,3,3,3,1,fourth,6,21,Female,R,Donders,2021-07-07_10h36.36.450,ImageRatingTask_S3,2021.1.4,Win32,61.05378839,,,,,,,,,
,,,,,,,,,,,,0,4,4,4,1,fifth,6,21,Female,R,Donders,2021-07-07_10h36.36.450,ImageRatingTask_S3,2021.1.4,Win32,61.05378839,,,,,,,,,
,,,,,,,,,,,,0,5,5,5,1,sixth,6,21,Female,R,Donders,2021-07-07_10h36.36.450,ImageRatingTask_S3,2021.1.4,Win32,61.05378839,,,,,,,,,
,,,,,,,,,,,,0,6,6,6,1,seventh,6,21,Female,R,Donders,2021-07-07_10h36.36.450,ImageRatingTask_S3,2021.1.4,Win32,61.05378839,,,,,,,,,
,,,,,,,,,,,,0,7,7,7,1,last,6,21,Female,R,Donders,2021-07-07_10h36.36.450,ImageRatingTask_S3,2021.1.4,Win32,61.05378839,,,,,,,,,
,,,,,,,,,,,,,,,,,,6,21,Female,R,Donders,2021-07-07_10h36.36.450,ImageRatingTask_S3,2021.1.4,Win32,61.05378839,0,54,54,145,1,DreamStudyImages_rs1000x750g/Mammals/Animals_205_h.jpg,,,
,,5,1.5017,2,1.4788,5,1.7248,1,1.4768,7,0.9982,0,0,0,0,1,main,6,21,Female,R,Donders,2021-07-07_10h36.36.450,ImageRatingTask_S3,2021.1.4,Win32,61.05378839,,,,,,,,,
,,,,,,,,,,,,0,1,1,1,1,second,6,21,Female,R,Donders,2021-07-07_10h36.36.450,ImageRatingTask_S3,2021.1.4,Win32,61.05378839,,,,,,,,,
,,,,,,,,,,,,0,2,2,2,1,third,6,21,Female,R,Donders,2021-07-07_10h36.36.450,ImageRatingTask_S3,2021.1.4,Win32,61.05378839,,,,,,,,,
,,,,,,,,,,,,0,3,3,3,1,fourth,6,21,Female,R,Donders,2021-07-07_10h36.36.450,ImageRatingTask_S3,2021.1.4,Win32,61.05378839,,,,,,,,,
,,,,,,,,,,,,0,4,4,4,1,fifth,6,21,Female,R,Donders,2021-07-07_10h36.36.450,ImageRatingTask_S3,2021.1.4,Win32,61.05378839,,,,,,,,,
,,,,,,,,,,,,0,5,5,5,1,sixth,6,21,Female,R,Donders,2021-07-07_10h36.36.450,ImageRatingTask_S3,2021.1.4,Win32,61.05378839,,,,,,,,,
,,,,,,,,,,,,0,6,6,6,1,seventh,6,21,Female,R,Donders,2021-07-07_10h36.36.450,ImageRatingTask_S3,2021.1.4,Win32,61.05378839,,,,,,,,,
,,,,,,,,,,,,0,7,7,7,1,last,6,21,Female,R,Donders,2021-07-07_10h36.36.450,ImageRatingTask_S3,2021.1.4,Win32,61.05378839,,,,,,,,,
,,,,,,,,,,,,,,,,,,6,21,Female,R,Donders,2021-07-07_10h36.36.450,ImageRatingTask_S3,2021.1.4,Win32,61.05378839,0,55,55,92,1,DreamStudyImages_rs1000x750g/Vehicles/IAPS9912_abandonedcar.jpg,,,
,,5,1.9649,2,1.2794,6,2.6148,1,1.0429,8,1.0142,0,0,0,0,1,main,6,21,Female,R,Donders,2021-07-07_10h36.36.450,ImageRatingTask_S3,2021.1.4,Win32,61.05378839,,,,,,,,,
,,,,,,,,,,,,0,1,1,1,1,second,6,21,Female,R,Donders,2021-07-07_10h36.36.450,ImageRatingTask_S3,2021.1.4,Win32,61.05378839,,,,,,,,,
,,,,,,,,,,,,0,2,2,2,1,third,6,21,Female,R,Donders,2021-07-07_10h36.36.450,ImageRatingTask_S3,2021.1.4,Win32,61.05378839,,,,,,,,,
,,,,,,,,,,,,0,3,3,3,1,fourth,6,21,Female,R,Donders,2021-07-07_10h36.36.450,ImageRatingTask_S3,2021.1.4,Win32,61.05378839,,,,,,,,,
,,,,,,,,,,,,0,4,4,4,1,fifth,6,21,Female,R,Donders,2021-07-07_10h36.36.450,ImageRatingTask_S3,2021.1.4,Win32,61.05378839,,,,,,,,,
,,,,,,,,,,,,0,5,5,5,1,sixth,6,21,Female,R,Donders,2021-07-07_10h36.36.450,ImageRatingTask_S3,2021.1.4,Win32,61.05378839,,,,,,,,,
,,,,,,,,,,,,0,6,6,6,1,seventh,6,21,Female,R,Donders,2021-07-07_10h36.36.450,ImageRatingTask_S3,2021.1.4,Win32,61.05378839,,,,,,,,,
,,,,,,,,,,,,0,7,7,7,1,last,6,21,Female,R,Donders,2021-07-07_10h36.36.450,ImageRatingTask_S3,2021.1.4,Win32,61.05378839,,,,,,,,,
,,,,,,,,,,,,,,,,,,6,21,Female,R,Donders,2021-07-07_10h36.36.450,ImageRatingTask_S3,2021.1.4,Win32,61.05378839,0,56,56,33,1,DreamStudyImages_rs1000x750g/Water/waterneutral4.jpg,,,
,,7,9.8817,7,1.2706,6,2.245,1,1.5394,5,1.1288,0,0,0,0,1,main,6,21,Female,R,Donders,2021-07-07_10h36.36.450,ImageRatingTask_S3,2021.1.4,Win32,61.05378839,,,,,,,,,
,,,,,,,,,,,,0,1,1,1,1,second,6,21,Female,R,Donders,2021-07-07_10h36.36.450,ImageRatingTask_S3,2021.1.4,Win32,61.05378839,,,,,,,,,
,,,,,,,,,,,,0,2,2,2,1,third,6,21,Female,R,Donders,2021-07-07_10h36.36.450,ImageRatingTask_S3,2021.1.4,Win32,61.05378839,,,,,,,,,
,,,,,,,,,,,,0,3,3,3,1,fourth,6,21,Female,R,Donders,2021-07-07_10h36.36.450,ImageRatingTask_S3,2021.1.4,Win32,61.05378839,,,,,,,,,
,,,,,,,,,,,,0,4,4,4,1,fifth,6,21,Female,R,Donders,2021-07-07_10h36.36.450,ImageRatingTask_S3,2021.1.4,Win32,61.05378839,,,,,,,,,
,,,,,,,,,,,,0,5,5,5,1,sixth,6,21,Female,R,Donders,2021-07-07_10h36.36.450,ImageRatingTask_S3,2021.1.4,Win32,61.05378839,,,,,,,,,
,,,,,,,,,,,,0,6,6,6,1,seventh,6,21,Female,R,Donders,2021-07-07_10h36.36.450,ImageRatingTask_S3,2021.1.4,Win32,61.05378839,,,,,,,,,
,,,,,,,,,,,,0,7,7,7,1,last,6,21,Female,R,Donders,2021-07-07_10h36.36.450,ImageRatingTask_S3,2021.1.4,Win32,61.05378839,,,,,,,,,
,,,,,,,,,,,,,,,,,,6,21,Female,R,Donders,2021-07-07_10h36.36.450,ImageRatingTask_S3,2021.1.4,Win32,61.05378839,0,57,57,156,1,DreamStudyImages_rs1000x750g/Food/Objects_056_h.jpg,,,
,,2,2.8467,7,3.2814,8,3.8533,1,2.6443,3,1.277,0,0,0,0,1,main,6,21,Female,R,Donders,2021-07-07_10h36.36.450,ImageRatingTask_S3,2021.1.4,Win32,61.05378839,,,,,,,,,
,,,,,,,,,,,,0,1,1,1,1,second,6,21,Female,R,Donders,2021-07-07_10h36.36.450,ImageRatingTask_S3,2021.1.4,Win32,61.05378839,,,,,,,,,
,,,,,,,,,,,,0,2,2,2,1,third,6,21,Female,R,Donders,2021-07-07_10h36.36.450,ImageRatingTask_S3,2021.1.4,Win32,61.05378839,,,,,,,,,
,,,,,,,,,,,,0,3,3,3,1,fourth,6,21,Female,R,Donders,2021-07-07_10h36.36.450,ImageRatingTask_S3,2021.1.4,Win32,61.05378839,,,,,,,,,
,,,,,,,,,,,,0,4,4,4,1,fifth,6,21,Female,R,Donders,2021-07-07_10h36.36.450,ImageRatingTask_S3,2021.1.4,Win32,61.05378839,,,,,,,,,
,,,,,,,,,,,,0,5,5,5,1,sixth,6,21,Female,R,Donders,2021-07-07_10h36.36.450,ImageRatingTask_S3,2021.1.4,Win32,61.05378839,,,,,,,,,
,,,,,,,,,,,,0,6,6,6,1,seventh,6,21,Female,R,Donders,2021-07-07_10h36.36.450,ImageRatingTask_S3,2021.1.4,Win32,61.05378839,,,,,,,,,
,,,,,,,,,,,,0,7,7,7,1,last,6,21,Female,R,Donders,2021-07-07_10h36.36.450,ImageRatingTask_S3,2021.1.4,Win32,61.05378839,,,,,,,,,
,,,,,,,,,,,,,,,,,,6,21,Female,R,Donders,2021-07-07_10h36.36.450,ImageRatingTask_S3,2021.1.4,Win32,61.05378839,0,58,58,56,1,DreamStudyImages_rs1000x750g/Mammals/Animals_016_h.jpg,,,
,,2,2.8622,7,2.1836,8,2.4434,1,2.7225,6,1.4052,0,0,0,0,1,main,6,21,Female,R,Donders,2021-07-07_10h36.36.450,ImageRatingTask_S3,2021.1.4,Win32,61.05378839,,,,,,,,,
,,,,,,,,,,,,0,1,1,1,1,second,6,21,Female,R,Donders,2021-07-07_10h36.36.450,ImageRatingTask_S3,2021.1.4,Win32,61.05378839,,,,,,,,,
,,,,,,,,,,,,0,2,2,2,1,third,6,21,Female,R,Donders,2021-07-07_10h36.36.450,ImageRatingTask_S3,2021.1.4,Win32,61.05378839,,,,,,,,,
,,,,,,,,,,,,0,3,3,3,1,fourth,6,21,Female,R,Donders,2021-07-07_10h36.36.450,ImageRatingTask_S3,2021.1.4,Win32,61.05378839,,,,,,,,,
,,,,,,,,,,,,0,4,4,4,1,fifth,6,21,Female,R,Donders,2021-07-07_10h36.36.450,ImageRatingTask_S3,2021.1.4,Win32,61.05378839,,,,,,,,,
,,,,,,,,,,,,0,5,5,5,1,sixth,6,21,Female,R,Donders,2021-07-07_10h36.36.450,ImageRatingTask_S3,2021.1.4,Win32,61.05378839,,,,,,,,,
,,,,,,,,,,,,0,6,6,6,1,seventh,6,21,Female,R,Donders,2021-07-07_10h36.36.450,ImageRatingTask_S3,2021.1.4,Win32,61.05378839,,,,,,,,,
,,,,,,,,,,,,0,7,7,7,1,last,6,21,Female,R,Donders,2021-07-07_10h36.36.450,ImageRatingTask_S3,2021.1.4,Win32,61.05378839,,,,,,,,,
,,,,,,,,,,,,,,,,,,6,21,Female,R,Donders,2021-07-07_10h36.36.450,ImageRatingTask_S3,2021.1.4,Win32,61.05378839,0,59,59,95,1,DreamStudyImages_rs1000x750g/Houses/Landscapes_045_h.jpg,,,
,,5,5.3831,3,1.4012,6,2.2165,1,1.1701,5,0.936,0,0,0,0,1,main,6,21,Female,R,Donders,2021-07-07_10h36.36.450,ImageRatingTask_S3,2021.1.4,Win32,61.05378839,,,,,,,,,
,,,,,,,,,,,,0,1,1,1,1,second,6,21,Female,R,Donders,2021-07-07_10h36.36.450,ImageRatingTask_S3,2021.1.4,Win32,61.05378839,,,,,,,,,
,,,,,,,,,,,,0,2,2,2,1,third,6,21,Female,R,Donders,2021-07-07_10h36.36.450,ImageRatingTask_S3,2021.1.4,Win32,61.05378839,,,,,,,,,
,,,,,,,,,,,,0,3,3,3,1,fourth,6,21,Female,R,Donders,2021-07-07_10h36.36.450,ImageRatingTask_S3,2021.1.4,Win32,61.05378839,,,,,,,,,
,,,,,,,,,,,,0,4,4,4,1,fifth,6,21,Female,R,Donders,2021-07-07_10h36.36.450,ImageRatingTask_S3,2021.1.4,Win32,61.05378839,,,,,,,,,
,,,,,,,,,,,,0,5,5,5,1,sixth,6,21,Female,R,Donders,2021-07-07_10h36.36.450,ImageRatingTask_S3,2021.1.4,Win32,61.05378839,,,,,,,,,
,,,,,,,,,,,,0,6,6,6,1,seventh,6,21,Female,R,Donders,2021-07-07_10h36.36.450,ImageRatingTask_S3,2021.1.4,Win32,61.05378839,,,,,,,,,
,,,,,,,,,,,,0,7,7,7,1,last,6,21,Female,R,Donders,2021-07-07_10h36.36.450,ImageRatingTask_S3,2021.1.4,Win32,61.05378839,,,,,,,,,
,,,,,,,,,,,,,,,,,,6,21,Female,R,Donders,2021-07-07_10h36.36.450,ImageRatingTask_S3,2021.1.4,Win32,61.05378839,0,60,60,116,1,DreamStudyImages_rs1000x750g/Food/IAPS7476_soup.jpg,,,
,,7,63.5386,7,1.4222,6,1.8236,2,2.5511,7,2.3027,0,0,0,0,1,main,6,21,Female,R,Donders,2021-07-07_10h36.36.450,ImageRatingTask_S3,2021.1.4,Win32,61.05378839,,,,,,,,,
,,,,,,,,,,8,1.0885,0,1,1,1,1,second,6,21,Female,R,Donders,2021-07-07_10h36.36.450,ImageRatingTask_S3,2021.1.4,Win32,61.05378839,,,,,,,,,
,,,,,,,,,,,,0,2,2,2,1,third,6,21,Female,R,Donders,2021-07-07_10h36.36.450,ImageRatingTask_S3,2021.1.4,Win32,61.05378839,,,,,,,,,
,,,,,,,,,,,,0,3,3,3,1,fourth,6,21,Female,R,Donders,2021-07-07_10h36.36.450,ImageRatingTask_S3,2021.1.4,Win32,61.05378839,,,,,,,,,
,,,,,,,,,,,,0,4,4,4,1,fifth,6,21,Female,R,Donders,2021-07-07_10h36.36.450,ImageRatingTask_S3,2021.1.4,Win32,61.05378839,,,,,,,,,
,,,,,,,,,,,,0,5,5,5,1,sixth,6,21,Female,R,Donders,2021-07-07_10h36.36.450,ImageRatingTask_S3,2021.1.4,Win32,61.05378839,,,,,,,,,
,,,,,,,,,,,,0,6,6,6,1,seventh,6,21,Female,R,Donders,2021-07-07_10h36.36.450,ImageRatingTask_S3,2021.1.4,Win32,61.05378839,,,,,,,,,
,,,,,,,,,,,,0,7,7,7,1,last,6,21,Female,R,Donders,2021-07-07_10h36.36.450,ImageRatingTask_S3,2021.1.4,Win32,61.05378839,,,,,,,,,
,,,,,,,,,,,,,,,,,,6,21,Female,R,Donders,2021-07-07_10h36.36.450,ImageRatingTask_S3,2021.1.4,Win32,61.05378839,0,61,61,144,1,DreamStudyImages_rs1000x750g/Vehicles/Objects_205_h.jpg,,,
,,8,2.169,6,1.3052,5,1.9097,1,1.5068,3,0.9725,0,0,0,0,1,main,6,21,Female,R,Donders,2021-07-07_10h36.36.450,ImageRatingTask_S3,2021.1.4,Win32,61.05378839,,,,,,,,,
,,,,,,,,,,,,0,1,1,1,1,second,6,21,Female,R,Donders,2021-07-07_10h36.36.450,ImageRatingTask_S3,2021.1.4,Win32,61.05378839,,,,,,,,,
,,,,,,,,,,,,0,2,2,2,1,third,6,21,Female,R,Donders,2021-07-07_10h36.36.450,ImageRatingTask_S3,2021.1.4,Win32,61.05378839,,,,,,,,,
,,,,,,,,,,,,0,3,3,3,1,fourth,6,21,Female,R,Donders,2021-07-07_10h36.36.450,ImageRatingTask_S3,2021.1.4,Win32,61.05378839,,,,,,,,,
,,,,,,,,,,,,0,4,4,4,1,fifth,6,21,Female,R,Donders,2021-07-07_10h36.36.450,ImageRatingTask_S3,2021.1.4,Win32,61.05378839,,,,,,,,,
,,,,,,,,,,,,0,5,5,5,1,sixth,6,21,Female,R,Donders,2021-07-07_10h36.36.450,ImageRatingTask_S3,2021.1.4,Win32,61.05378839,,,,,,,,,
,,,,,,,,,,,,0,6,6,6,1,seventh,6,21,Female,R,Donders,2021-07-07_10h36.36.450,ImageRatingTask_S3,2021.1.4,Win32,61.05378839,,,,,,,,,
,,,,,,,,,,,,0,7,7,7,1,last,6,21,Female,R,Donders,2021-07-07_10h36.36.450,ImageRatingTask_S3,2021.1.4,Win32,61.05378839,,,,,,,,,
,,,,,,,,,,,,,,,,,,6,21,Female,R,Donders,2021-07-07_10h36.36.450,ImageRatingTask_S3,2021.1.4,Win32,61.05378839,0,62,62,126,1,DreamStudyImages_rs1000x750g/Mammals/IAPS1750_rabbits.jpg,,,
,,5,5.4057,2,1.2198,5,1.7388,1,1.2432,6,1.0409,0,0,0,0,1,main,6,21,Female,R,Donders,2021-07-07_10h36.36.450,ImageRatingTask_S3,2021.1.4,Win32,61.05378839,,,,,,,,,
,,,,,,,,,,,,0,1,1,1,1,second,6,21,Female,R,Donders,2021-07-07_10h36.36.450,ImageRatingTask_S3,2021.1.4,Win32,61.05378839,,,,,,,,,
,,,,,,,,,,,,0,2,2,2,1,third,6,21,Female,R,Donders,2021-07-07_10h36.36.450,ImageRatingTask_S3,2021.1.4,Win32,61.05378839,,,,,,,,,
,,,,,,,,,,,,0,3,3,3,1,fourth,6,21,Female,R,Donders,2021-07-07_10h36.36.450,ImageRatingTask_S3,2021.1.4,Win32,61.05378839,,,,,,,,,
,,,,,,,,,,,,0,4,4,4,1,fifth,6,21,Female,R,Donders,2021-07-07_10h36.36.450,ImageRatingTask_S3,2021.1.4,Win32,61.05378839,,,,,,,,,
,,,,,,,,,,,,0,5,5,5,1,sixth,6,21,Female,R,Donders,2021-07-07_10h36.36.450,ImageRatingTask_S3,2021.1.4,Win32,61.05378839,,,,,,,,,
,,,,,,,,,,,,0,6,6,6,1,seventh,6,21,Female,R,Donders,2021-07-07_10h36.36.450,ImageRatingTask_S3,2021.1.4,Win32,61.05378839,,,,,,,,,
,,,,,,,,,,,,0,7,7,7,1,last,6,21,Female,R,Donders,2021-07-07_10h36.36.450,ImageRatingTask_S3,2021.1.4,Win32,61.05378839,,,,,,,,,
,,,,,,,,,,,,,,,,,,6,21,Female,R,Donders,2021-07-07_10h36.36.450,ImageRatingTask_S3,2021.1.4,Win32,61.05378839,0,63,63,111,1,DreamStudyImages_rs1000x750g/Houses/Landscapes_037_v.jpg,,,
,,5,3.1172,2,1.0846,4,1.9086,1,1.6524,5,1.1293,0,0,0,0,1,main,6,21,Female,R,Donders,2021-07-07_10h36.36.450,ImageRatingTask_S3,2021.1.4,Win32,61.05378839,,,,,,,,,
,,,,,,,,,,,,0,1,1,1,1,second,6,21,Female,R,Donders,2021-07-07_10h36.36.450,ImageRatingTask_S3,2021.1.4,Win32,61.05378839,,,,,,,,,
,,,,,,,,,,,,0,2,2,2,1,third,6,21,Female,R,Donders,2021-07-07_10h36.36.450,ImageRatingTask_S3,2021.1.4,Win32,61.05378839,,,,,,,,,
,,,,,,,,,,,,0,3,3,3,1,fourth,6,21,Female,R,Donders,2021-07-07_10h36.36.450,ImageRatingTask_S3,2021.1.4,Win32,61.05378839,,,,,,,,,
,,,,,,,,,,,,0,4,4,4,1,fifth,6,21,Female,R,Donders,2021-07-07_10h36.36.450,ImageRatingTask_S3,2021.1.4,Win32,61.05378839,,,,,,,,,
,,,,,,,,,,,,0,5,5,5,1,sixth,6,21,Female,R,Donders,2021-07-07_10h36.36.450,ImageRatingTask_S3,2021.1.4,Win32,61.05378839,,,,,,,,,
,,,,,,,,,,,,0,6,6,6,1,seventh,6,21,Female,R,Donders,2021-07-07_10h36.36.450,ImageRatingTask_S3,2021.1.4,Win32,61.05378839,,,,,,,,,
,,,,,,,,,,,,0,7,7,7,1,last,6,21,Female,R,Donders,2021-07-07_10h36.36.450,ImageRatingTask_S3,2021.1.4,Win32,61.05378839,,,,,,,,,
,,,,,,,,,,,,,,,,,,6,21,Female,R,Donders,2021-07-07_10h36.36.450,ImageRatingTask_S3,2021.1.4,Win32,61.05378839,0,64,64,40,1,DreamStudyImages_rs1000x750g/Food/IAPS7320_fruitbasket2.jpg,,,
,,6,4.0449,3,1.2102,7,2.3058,1,1.4027,6,1.5216,0,0,0,0,1,main,6,21,Female,R,Donders,2021-07-07_10h36.36.450,ImageRatingTask_S3,2021.1.4,Win32,61.05378839,,,,,,,,,
,,,,,,,,,,,,0,1,1,1,1,second,6,21,Female,R,Donders,2021-07-07_10h36.36.450,ImageRatingTask_S3,2021.1.4,Win32,61.05378839,,,,,,,,,
,,,,,,,,,,,,0,2,2,2,1,third,6,21,Female,R,Donders,2021-07-07_10h36.36.450,ImageRatingTask_S3,2021.1.4,Win32,61.05378839,,,,,,,,,
,,,,,,,,,,,,0,3,3,3,1,fourth,6,21,Female,R,Donders,2021-07-07_10h36.36.450,ImageRatingTask_S3,2021.1.4,Win32,61.05378839,,,,,,,,,
,,,,,,,,,,,,0,4,4,4,1,fifth,6,21,Female,R,Donders,2021-07-07_10h36.36.450,ImageRatingTask_S3,2021.1.4,Win32,61.05378839,,,,,,,,,
,,,,,,,,,,,,0,5,5,5,1,sixth,6,21,Female,R,Donders,2021-07-07_10h36.36.450,ImageRatingTask_S3,2021.1.4,Win32,61.05378839,,,,,,,,,
,,,,,,,,,,,,0,6,6,6,1,seventh,6,21,Female,R,Donders,2021-07-07_10h36.36.450,ImageRatingTask_S3,2021.1.4,Win32,61.05378839,,,,,,,,,
,,,,,,,,,,,,0,7,7,7,1,last,6,21,Female,R,Donders,2021-07-07_10h36.36.450,ImageRatingTask_S3,2021.1.4,Win32,61.05378839,,,,,,,,,
,,,,,,,,,,,,,,,,,,6,21,Female,R,Donders,2021-07-07_10h36.36.450,ImageRatingTask_S3,2021.1.4,Win32,61.05378839,0,65,65,16,1,DreamStudyImages_rs1000x750g/Houses/Landscapes_079_v.jpg,,,
,,7,1.9322,2,1.0008,6,3.9217,1,1.5199,8,0.8173,0,0,0,0,1,main,6,21,Female,R,Donders,2021-07-07_10h36.36.450,ImageRatingTask_S3,2021.1.4,Win32,61.05378839,,,,,,,,,
,,,,,,,,,,,,0,1,1,1,1,second,6,21,Female,R,Donders,2021-07-07_10h36.36.450,ImageRatingTask_S3,2021.1.4,Win32,61.05378839,,,,,,,,,
,,,,,,,,,,,,0,2,2,2,1,third,6,21,Female,R,Donders,2021-07-07_10h36.36.450,ImageRatingTask_S3,2021.1.4,Win32,61.05378839,,,,,,,,,
,,,,,,,,,,,,0,3,3,3,1,fourth,6,21,Female,R,Donders,2021-07-07_10h36.36.450,ImageRatingTask_S3,2021.1.4,Win32,61.05378839,,,,,,,,,
,,,,,,,,,,,,0,4,4,4,1,fifth,6,21,Female,R,Donders,2021-07-07_10h36.36.450,ImageRatingTask_S3,2021.1.4,Win32,61.05378839,,,,,,,,,
,,,,,,,,,,,,0,5,5,5,1,sixth,6,21,Female,R,Donders,2021-07-07_10h36.36.450,ImageRatingTask_S3,2021.1.4,Win32,61.05378839,,,,,,,,,
,,,,,,,,,,,,0,6,6,6,1,seventh,6,21,Female,R,Donders,2021-07-07_10h36.36.450,ImageRatingTask_S3,2021.1.4,Win32,61.05378839,,,,,,,,,
,,,,,,,,,,,,0,7,7,7,1,last,6,21,Female,R,Donders,2021-07-07_10h36.36.450,ImageRatingTask_S3,2021.1.4,Win32,61.05378839,,,,,,,,,
,,,,,,,,,,,,,,,,,,6,21,Female,R,Donders,2021-07-07_10h36.36.450,ImageRatingTask_S3,2021.1.4,Win32,61.05378839,0,66,66,73,1,DreamStudyImages_rs1000x750g/Water/wavybeach.jpg,,,
,,7,1.6235,2,1.3636,2,2.6557,1,1.5239,3,0.8557,0,0,0,0,1,main,6,21,Female,R,Donders,2021-07-07_10h36.36.450,ImageRatingTask_S3,2021.1.4,Win32,61.05378839,,,,,,,,,
,,,,,,,,,,,,0,1,1,1,1,second,6,21,Female,R,Donders,2021-07-07_10h36.36.450,ImageRatingTask_S3,2021.1.4,Win32,61.05378839,,,,,,,,,
,,,,,,,,,,,,0,2,2,2,1,third,6,21,Female,R,Donders,2021-07-07_10h36.36.450,ImageRatingTask_S3,2021.1.4,Win32,61.05378839,,,,,,,,,
,,,,,,,,,,,,0,3,3,3,1,fourth,6,21,Female,R,Donders,2021-07-07_10h36.36.450,ImageRatingTask_S3,2021.1.4,Win32,61.05378839,,,,,,,,,
,,,,,,,,,,,,0,4,4,4,1,fifth,6,21,Female,R,Donders,2021-07-07_10h36.36.450,ImageRatingTask_S3,2021.1.4,Win32,61.05378839,,,,,,,,,
,,,,,,,,,,,,0,5,5,5,1,sixth,6,21,Female,R,Donders,2021-07-07_10h36.36.450,ImageRatingTask_S3,2021.1.4,Win32,61.05378839,,,,,,,,,
,,,,,,,,,,,,0,6,6,6,1,seventh,6,21,Female,R,Donders,2021-07-07_10h36.36.450,ImageRatingTask_S3,2021.1.4,Win32,61.05378839,,,,,,,,,
,,,,,,,,,,,,0,7,7,7,1,last,6,21,Female,R,Donders,2021-07-07_10h36.36.450,ImageRatingTask_S3,2021.1.4,Win32,61.05378839,,,,,,,,,
,,,,,,,,,,,,,,,,,,6,21,Female,R,Donders,2021-07-07_10h36.36.450,ImageRatingTask_S3,2021.1.4,Win32,61.05378839,0,67,67,133,1,DreamStudyImages_rs1000x750g/Mammals/IAPS1304_dog5.jpg,,,
,,8,1.5666,6,1.701,6,6.1845,1,0.9977,3,0.9877,0,0,0,0,1,main,6,21,Female,R,Donders,2021-07-07_10h36.36.450,ImageRatingTask_S3,2021.1.4,Win32,61.05378839,,,,,,,,,
,,,,,,,,,,,,0,1,1,1,1,second,6,21,Female,R,Donders,2021-07-07_10h36.36.450,ImageRatingTask_S3,2021.1.4,Win32,61.05378839,,,,,,,,,
,,,,,,,,,,,,0,2,2,2,1,third,6,21,Female,R,Donders,2021-07-07_10h36.36.450,ImageRatingTask_S3,2021.1.4,Win32,61.05378839,,,,,,,,,
,,,,,,,,,,,,0,3,3,3,1,fourth,6,21,Female,R,Donders,2021-07-07_10h36.36.450,ImageRatingTask_S3,2021.1.4,Win32,61.05378839,,,,,,,,,
,,,,,,,,,,,,0,4,4,4,1,fifth,6,21,Female,R,Donders,2021-07-07_10h36.36.450,ImageRatingTask_S3,2021.1.4,Win32,61.05378839,,,,,,,,,
,,,,,,,,,,,,0,5,5,5,1,sixth,6,21,Female,R,Donders,2021-07-07_10h36.36.450,ImageRatingTask_S3,2021.1.4,Win32,61.05378839,,,,,,,,,
,,,,,,,,,,,,0,6,6,6,1,seventh,6,21,Female,R,Donders,2021-07-07_10h36.36.450,ImageRatingTask_S3,2021.1.4,Win32,61.05378839,,,,,,,,,
,,,,,,,,,,,,0,7,7,7,1,last,6,21,Female,R,Donders,2021-07-07_10h36.36.450,ImageRatingTask_S3,2021.1.4,Win32,61.05378839,,,,,,,,,
,,,,,,,,,,,,,,,,,,6,21,Female,R,Donders,2021-07-07_10h36.36.450,ImageRatingTask_S3,2021.1.4,Win32,61.05378839,0,68,68,83,1,DreamStudyImages_rs1000x750g/Mammals/Animals_190_h.jpg,,,
,,8,1.7373,7,1.3187,6,2.2352,1,2.0629,3,1.0404,0,0,0,0,1,main,6,21,Female,R,Donders,2021-07-07_10h36.36.450,ImageRatingTask_S3,2021.1.4,Win32,61.05378839,,,,,,,,,
,,,,,,,,,,,,0,1,1,1,1,second,6,21,Female,R,Donders,2021-07-07_10h36.36.450,ImageRatingTask_S3,2021.1.4,Win32,61.05378839,,,,,,,,,
,,,,,,,,,,,,0,2,2,2,1,third,6,21,Female,R,Donders,2021-07-07_10h36.36.450,ImageRatingTask_S3,2021.1.4,Win32,61.05378839,,,,,,,,,
,,,,,,,,,,,,0,3,3,3,1,fourth,6,21,Female,R,Donders,2021-07-07_10h36.36.450,ImageRatingTask_S3,2021.1.4,Win32,61.05378839,,,,,,,,,
,,,,,,,,,,,,0,4,4,4,1,fifth,6,21,Female,R,Donders,2021-07-07_10h36.36.450,ImageRatingTask_S3,2021.1.4,Win32,61.05378839,,,,,,,,,
,,,,,,,,,,,,0,5,5,5,1,sixth,6,21,Female,R,Donders,2021-07-07_10h36.36.450,ImageRatingTask_S3,2021.1.4,Win32,61.05378839,,,,,,,,,
,,,,,,,,,,,,0,6,6,6,1,seventh,6,21,Female,R,Donders,2021-07-07_10h36.36.450,ImageRatingTask_S3,2021.1.4,Win32,61.05378839,,,,,,,,,
,,,,,,,,,,,,0,7,7,7,1,last,6,21,Female,R,Donders,2021-07-07_10h36.36.450,ImageRatingTask_S3,2021.1.4,Win32,61.05378839,,,,,,,,,
,,,,,,,,,,,,,,,,,,6,21,Female,R,Donders,2021-07-07_10h36.36.450,ImageRatingTask_S3,2021.1.4,Win32,61.05378839,0,69,69,61,1,DreamStudyImages_rs1000x750g/Mammals/Meerkat 1.jpg,,,
,,2,2.0305,7,2.401,5,3.1178,1,1.876,7,0.8698,0,0,0,0,1,main,6,21,Female,R,Donders,2021-07-07_10h36.36.450,ImageRatingTask_S3,2021.1.4,Win32,61.05378839,,,,,,,,,
,,,,,,,,,,,,0,1,1,1,1,second,6,21,Female,R,Donders,2021-07-07_10h36.36.450,ImageRatingTask_S3,2021.1.4,Win32,61.05378839,,,,,,,,,
,,,,,,,,,,,,0,2,2,2,1,third,6,21,Female,R,Donders,2021-07-07_10h36.36.450,ImageRatingTask_S3,2021.1.4,Win32,61.05378839,,,,,,,,,
,,,,,,,,,,,,0,3,3,3,1,fourth,6,21,Female,R,Donders,2021-07-07_10h36.36.450,ImageRatingTask_S3,2021.1.4,Win32,61.05378839,,,,,,,,,
,,,,,,,,,,,,0,4,4,4,1,fifth,6,21,Female,R,Donders,2021-07-07_10h36.36.450,ImageRatingTask_S3,2021.1.4,Win32,61.05378839,,,,,,,,,
,,,,,,,,,,,,0,5,5,5,1,sixth,6,21,Female,R,Donders,2021-07-07_10h36.36.450,ImageRatingTask_S3,2021.1.4,Win32,61.05378839,,,,,,,,,
,,,,,,,,,,,,0,6,6,6,1,seventh,6,21,Female,R,Donders,2021-07-07_10h36.36.450,ImageRatingTask_S3,2021.1.4,Win32,61.05378839,,,,,,,,,
,,,,,,,,,,,,0,7,7,7,1,last,6,21,Female,R,Donders,2021-07-07_10h36.36.450,ImageRatingTask_S3,2021.1.4,Win32,61.05378839,,,,,,,,,
,,,,,,,,,,,,,,,,,,6,21,Female,R,Donders,2021-07-07_10h36.36.450,ImageRatingTask_S3,2021.1.4,Win32,61.05378839,0,70,70,129,1,DreamStudyImages_rs1000x750g/Vehicles/Plane crash 4.jpg,,,
,,4,1.5136,5,1.6296,8,2.1195,1,1.054,2,0.2982,0,0,0,0,1,main,6,21,Female,R,Donders,2021-07-07_10h36.36.450,ImageRatingTask_S3,2021.1.4,Win32,61.05378839,,,,,,,,,
,,,,,,,,,,,,0,1,1,1,1,second,6,21,Female,R,Donders,2021-07-07_10h36.36.450,ImageRatingTask_S3,2021.1.4,Win32,61.05378839,,,,,,,,,
,,,,,,,,,,,,0,2,2,2,1,third,6,21,Female,R,Donders,2021-07-07_10h36.36.450,ImageRatingTask_S3,2021.1.4,Win32,61.05378839,,,,,,,,,
,,,,,,,,,,,,0,3,3,3,1,fourth,6,21,Female,R,Donders,2021-07-07_10h36.36.450,ImageRatingTask_S3,2021.1.4,Win32,61.05378839,,,,,,,,,
,,,,,,,,,,,,0,4,4,4,1,fifth,6,21,Female,R,Donders,2021-07-07_10h36.36.450,ImageRatingTask_S3,2021.1.4,Win32,61.05378839,,,,,,,,,
,,,,,,,,,,,,0,5,5,5,1,sixth,6,21,Female,R,Donders,2021-07-07_10h36.36.450,ImageRatingTask_S3,2021.1.4,Win32,61.05378839,,,,,,,,,
,,,,,,,,,,,,0,6,6,6,1,seventh,6,21,Female,R,Donders,2021-07-07_10h36.36.450,ImageRatingTask_S3,2021.1.4,Win32,61.05378839,,,,,,,,,
,,,,,,,,,,,,0,7,7,7,1,last,6,21,Female,R,Donders,2021-07-07_10h36.36.450,ImageRatingTask_S3,2021.1.4,Win32,61.05378839,,,,,,,,,
,,,,,,,,,,,,,,,,,,6,21,Female,R,Donders,2021-07-07_10h36.36.450,ImageRatingTask_S3,2021.1.4,Win32,61.05378839,0,71,71,120,1,DreamStudyImages_rs1000x750g/Children/IAPS2457_boy10.jpg,,,
,,1,2.42,8,5.1141,6,3.6094,1,1.106,2,0.4628,0,0,0,0,1,main,6,21,Female,R,Donders,2021-07-07_10h36.36.450,ImageRatingTask_S3,2021.1.4,Win32,61.05378839,,,,,,,,,
,,,,,,,,,,,,0,1,1,1,1,second,6,21,Female,R,Donders,2021-07-07_10h36.36.450,ImageRatingTask_S3,2021.1.4,Win32,61.05378839,,,,,,,,,
,,,,,,,,,,,,0,2,2,2,1,third,6,21,Female,R,Donders,2021-07-07_10h36.36.450,ImageRatingTask_S3,2021.1.4,Win32,61.05378839,,,,,,,,,
,,,,,,,,,,,,0,3,3,3,1,fourth,6,21,Female,R,Donders,2021-07-07_10h36.36.450,ImageRatingTask_S3,2021.1.4,Win32,61.05378839,,,,,,,,,
,,,,,,,,,,,,0,4,4,4,1,fifth,6,21,Female,R,Donders,2021-07-07_10h36.36.450,ImageRatingTask_S3,2021.1.4,Win32,61.05378839,,,,,,,,,
,,,,,,,,,,,,0,5,5,5,1,sixth,6,21,Female,R,Donders,2021-07-07_10h36.36.450,ImageRatingTask_S3,2021.1.4,Win32,61.05378839,,,,,,,,,
,,,,,,,,,,,,0,6,6,6,1,seventh,6,21,Female,R,Donders,2021-07-07_10h36.36.450,ImageRatingTask_S3,2021.1.4,Win32,61.05378839,,,,,,,,,
,,,,,,,,,,,,0,7,7,7,1,last,6,21,Female,R,Donders,2021-07-07_10h36.36.450,ImageRatingTask_S3,2021.1.4,Win32,61.05378839,,,,,,,,,
,,,,,,,,,,,,,,,,,,6,21,Female,R,Donders,2021-07-07_10h36.36.450,ImageRatingTask_S3,2021.1.4,Win32,61.05378839,0,72,72,75,1,DreamStudyImages_rs1000x750g/Children/IAPS3266_boyaccident.jpg,,,
,,4,5.4168,7,2.1316,6,2.4496,1,1.184,2,0.2255,0,0,0,0,1,main,6,21,Female,R,Donders,2021-07-07_10h36.36.450,ImageRatingTask_S3,2021.1.4,Win32,61.05378839,,,,,,,,,
,,,,,,,,,,,,0,1,1,1,1,second,6,21,Female,R,Donders,2021-07-07_10h36.36.450,ImageRatingTask_S3,2021.1.4,Win32,61.05378839,,,,,,,,,
,,,,,,,,,,,,0,2,2,2,1,third,6,21,Female,R,Donders,2021-07-07_10h36.36.450,ImageRatingTask_S3,2021.1.4,Win32,61.05378839,,,,,,,,,
,,,,,,,,,,,,0,3,3,3,1,fourth,6,21,Female,R,Donders,2021-07-07_10h36.36.450,ImageRatingTask_S3,2021.1.4,Win32,61.05378839,,,,,,,,,
,,,,,,,,,,,,0,4,4,4,1,fifth,6,21,Female,R,Donders,2021-07-07_10h36.36.450,ImageRatingTask_S3,2021.1.4,Win32,61.05378839,,,,,,,,,
,,,,,,,,,,,,0,5,5,5,1,sixth,6,21,Female,R,Donders,2021-07-07_10h36.36.450,ImageRatingTask_S3,2021.1.4,Win32,61.05378839,,,,,,,,,
,,,,,,,,,,,,0,6,6,6,1,seventh,6,21,Female,R,Donders,2021-07-07_10h36.36.450,ImageRatingTask_S3,2021.1.4,Win32,61.05378839,,,,,,,,,
,,,,,,,,,,,,0,7,7,7,1,last,6,21,Female,R,Donders,2021-07-07_10h36.36.450,ImageRatingTask_S3,2021.1.4,Win32,61.05378839,,,,,,,,,
,,,,,,,,,,,,,,,,,,6,21,Female,R,Donders,2021-07-07_10h36.36.450,ImageRatingTask_S3,2021.1.4,Win32,61.05378839,0,73,73,12,1,DreamStudyImages_rs1000x750g/Children/Faces_015_h.jpg,,,
,,8,1.8685,6,1.2756,6,2.1592,1,1.3671,5,1.6508,0,0,0,0,1,main,6,21,Female,R,Donders,2021-07-07_10h36.36.450,ImageRatingTask_S3,2021.1.4,Win32,61.05378839,,,,,,,,,
,,,,,,,,,,,,0,1,1,1,1,second,6,21,Female,R,Donders,2021-07-07_10h36.36.450,ImageRatingTask_S3,2021.1.4,Win32,61.05378839,,,,,,,,,
,,,,,,,,,,,,0,2,2,2,1,third,6,21,Female,R,Donders,2021-07-07_10h36.36.450,ImageRatingTask_S3,2021.1.4,Win32,61.05378839,,,,,,,,,
,,,,,,,,,,,,0,3,3,3,1,fourth,6,21,Female,R,Donders,2021-07-07_10h36.36.450,ImageRatingTask_S3,2021.1.4,Win32,61.05378839,,,,,,,,,
,,,,,,,,,,,,0,4,4,4,1,fifth,6,21,Female,R,Donders,2021-07-07_10h36.36.450,ImageRatingTask_S3,2021.1.4,Win32,61.05378839,,,,,,,,,
,,,,,,,,,,,,0,5,5,5,1,sixth,6,21,Female,R,Donders,2021-07-07_10h36.36.450,ImageRatingTask_S3,2021.1.4,Win32,61.05378839,,,,,,,,,
,,,,,,,,,,,,0,6,6,6,1,seventh,6,21,Female,R,Donders,2021-07-07_10h36.36.450,ImageRatingTask_S3,2021.1.4,Win32,61.05378839,,,,,,,,,
,,,,,,,,,,,,0,7,7,7,1,last,6,21,Female,R,Donders,2021-07-07_10h36.36.450,ImageRatingTask_S3,2021.1.4,Win32,61.05378839,,,,,,,,,
,,,,,,,,,,,,,,,,,,6,21,Female,R,Donders,2021-07-07_10h36.36.450,ImageRatingTask_S3,2021.1.4,Win32,61.05378839,0,74,74,49,1,DreamStudyImages_rs1000x750g/Food/IAPS7481_diner3.jpg,,,
,,6,4.6924,3,5.0892,5,2.6822,1,1.3495,2,0.6068,0,0,0,0,1,main,6,21,Female,R,Donders,2021-07-07_10h36.36.450,ImageRatingTask_S3,2021.1.4,Win32,61.05378839,,,,,,,,,
,,,,,,,,,,,,0,1,1,1,1,second,6,21,Female,R,Donders,2021-07-07_10h36.36.450,ImageRatingTask_S3,2021.1.4,Win32,61.05378839,,,,,,,,,
,,,,,,,,,,,,0,2,2,2,1,third,6,21,Female,R,Donders,2021-07-07_10h36.36.450,ImageRatingTask_S3,2021.1.4,Win32,61.05378839,,,,,,,,,
,,,,,,,,,,,,0,3,3,3,1,fourth,6,21,Female,R,Donders,2021-07-07_10h36.36.450,ImageRatingTask_S3,2021.1.4,Win32,61.05378839,,,,,,,,,
,,,,,,,,,,,,0,4,4,4,1,fifth,6,21,Female,R,Donders,2021-07-07_10h36.36.450,ImageRatingTask_S3,2021.1.4,Win32,61.05378839,,,,,,,,,
,,,,,,,,,,,,0,5,5,5,1,sixth,6,21,Female,R,Donders,2021-07-07_10h36.36.450,ImageRatingTask_S3,2021.1.4,Win32,61.05378839,,,,,,,,,
,,,,,,,,,,,,0,6,6,6,1,seventh,6,21,Female,R,Donders,2021-07-07_10h36.36.450,ImageRatingTask_S3,2021.1.4,Win32,61.05378839,,,,,,,,,
,,,,,,,,,,,,0,7,7,7,1,last,6,21,Female,R,Donders,2021-07-07_10h36.36.450,ImageRatingTask_S3,2021.1.4,Win32,61.05378839,,,,,,,,,
,,,,,,,,,,,,,,,,,,6,21,Female,R,Donders,2021-07-07_10h36.36.450,ImageRatingTask_S3,2021.1.4,Win32,61.05378839,0,75,75,30,1,DreamStudyImages_rs1000x750g/Children/Faces_128_h.jpg,,,
,,6,7.5372,2,5.284,7,3.0825,0,2.4642,,,0,0,0,0,1,main,6,21,Female,R,Donders,2021-07-07_10h36.36.450,ImageRatingTask_S3,2021.1.4,Win32,61.05378839,,,,,,,,,
,,,,,,,,,,,,0,1,1,1,1,second,6,21,Female,R,Donders,2021-07-07_10h36.36.450,ImageRatingTask_S3,2021.1.4,Win32,61.05378839,,,,,,,,,
,,,,,,,,,,,,0,2,2,2,1,third,6,21,Female,R,Donders,2021-07-07_10h36.36.450,ImageRatingTask_S3,2021.1.4,Win32,61.05378839,,,,,,,,,
,,,,,,,,,,,,0,3,3,3,1,fourth,6,21,Female,R,Donders,2021-07-07_10h36.36.450,ImageRatingTask_S3,2021.1.4,Win32,61.05378839,,,,,,,,,
,,,,,,,,,,,,0,4,4,4,1,fifth,6,21,Female,R,Donders,2021-07-07_10h36.36.450,ImageRatingTask_S3,2021.1.4,Win32,61.05378839,,,,,,,,,
,,,,,,,,,,,,0,5,5,5,1,sixth,6,21,Female,R,Donders,2021-07-07_10h36.36.450,ImageRatingTask_S3,2021.1.4,Win32,61.05378839,,,,,,,,,
,,,,,,,,,,,,0,6,6,6,1,seventh,6,21,Female,R,Donders,2021-07-07_10h36.36.450,ImageRatingTask_S3,2021.1.4,Win32,61.05378839,,,,,,,,,
,,,,,,,,,,,,0,7,7,7,1,last,6,21,Female,R,Donders,2021-07-07_10h36.36.450,ImageRatingTask_S3,2021.1.4,Win32,61.05378839,,,,,,,,,
,,,,,,,,,,,,,,,,,,6,21,Female,R,Donders,2021-07-07_10h36.36.450,ImageRatingTask_S3,2021.1.4,Win32,61.05378839,0,76,76,80,1,DreamStudyImages_rs1000x750g/Houses/Landscapes_059_v.jpg,,,
,,6,14.6132,5,1.4475,7,5.8363,1,1.8837,5,0.747,0,0,0,0,1,main,6,21,Female,R,Donders,2021-07-07_10h36.36.450,ImageRatingTask_S3,2021.1.4,Win32,61.05378839,,,,,,,,,
,,,,,,,,,,,,0,1,1,1,1,second,6,21,Female,R,Donders,2021-07-07_10h36.36.450,ImageRatingTask_S3,2021.1.4,Win32,61.05378839,,,,,,,,,
,,,,,,,,,,,,0,2,2,2,1,third,6,21,Female,R,Donders,2021-07-07_10h36.36.450,ImageRatingTask_S3,2021.1.4,Win32,61.05378839,,,,,,,,,
,,,,,,,,,,,,0,3,3,3,1,fourth,6,21,Female,R,Donders,2021-07-07_10h36.36.450,ImageRatingTask_S3,2021.1.4,Win32,61.05378839,,,,,,,,,
,,,,,,,,,,,,0,4,4,4,1,fifth,6,21,Female,R,Donders,2021-07-07_10h36.36.450,ImageRatingTask_S3,2021.1.4,Win32,61.05378839,,,,,,,,,
,,,,,,,,,,,,0,5,5,5,1,sixth,6,21,Female,R,Donders,2021-07-07_10h36.36.450,ImageRatingTask_S3,2021.1.4,Win32,61.05378839,,,,,,,,,
,,,,,,,,,,,,0,6,6,6,1,seventh,6,21,Female,R,Donders,2021-07-07_10h36.36.450,ImageRatingTask_S3,2021.1.4,Win32,61.05378839,,,,,,,,,
,,,,,,,,,,,,0,7,7,7,1,last,6,21,Female,R,Donders,2021-07-07_10h36.36.450,ImageRatingTask_S3,2021.1.4,Win32,61.05378839,,,,,,,,,
,,,,,,,,,,,,,,,,,,6,21,Female,R,Donders,2021-07-07_10h36.36.450,ImageRatingTask_S3,2021.1.4,Win32,61.05378839,0,77,77,117,1,DreamStudyImages_rs1000x750g/Food/Objects_024_v.jpg,,,
,,5,24.7112,4,1.365,5,2.8806,1,1.4521,7,1.3406,0,0,0,0,1,main,6,21,Female,R,Donders,2021-07-07_10h36.36.450,ImageRatingTask_S3,2021.1.4,Win32,61.05378839,,,,,,,,,
,,,,,,,,,,,,0,1,1,1,1,second,6,21,Female,R,Donders,2021-07-07_10h36.36.450,ImageRatingTask_S3,2021.1.4,Win32,61.05378839,,,,,,,,,
,,,,,,,,,,,,0,2,2,2,1,third,6,21,Female,R,Donders,2021-07-07_10h36.36.450,ImageRatingTask_S3,2021.1.4,Win32,61.05378839,,,,,,,,,
,,,,,,,,,,,,0,3,3,3,1,fourth,6,21,Female,R,Donders,2021-07-07_10h36.36.450,ImageRatingTask_S3,2021.1.4,Win32,61.05378839,,,,,,,,,
,,,,,,,,,,,,0,4,4,4,1,fifth,6,21,Female,R,Donders,2021-07-07_10h36.36.450,ImageRatingTask_S3,2021.1.4,Win32,61.05378839,,,,,,,,,
,,,,,,,,,,,,0,5,5,5,1,sixth,6,21,Female,R,Donders,2021-07-07_10h36.36.450,ImageRatingTask_S3,2021.1.4,Win32,61.05378839,,,,,,,,,
,,,,,,,,,,,,0,6,6,6,1,seventh,6,21,Female,R,Donders,2021-07-07_10h36.36.450,ImageRatingTask_S3,2021.1.4,Win32,61.05378839,,,,,,,,,
,,,,,,,,,,,,0,7,7,7,1,last,6,21,Female,R,Donders,2021-07-07_10h36.36.450,ImageRatingTask_S3,2021.1.4,Win32,61.05378839,,,,,,,,,
,,,,,,,,,,,,,,,,,,6,21,Female,R,Donders,2021-07-07_10h36.36.450,ImageRatingTask_S3,2021.1.4,Win32,61.05378839,0,78,78,139,1,DreamStudyImages_rs1000x750g/Vehicles/Objects_319_h.jpg,,,
,,6,2.5171,4,1.4175,6,1.8249,1,1.1693,2,0.8622,0,0,0,0,1,main,6,21,Female,R,Donders,2021-07-07_10h36.36.450,ImageRatingTask_S3,2021.1.4,Win32,61.05378839,,,,,,,,,
,,,,,,,,,,,,0,1,1,1,1,second,6,21,Female,R,Donders,2021-07-07_10h36.36.450,ImageRatingTask_S3,2021.1.4,Win32,61.05378839,,,,,,,,,
,,,,,,,,,,,,0,2,2,2,1,third,6,21,Female,R,Donders,2021-07-07_10h36.36.450,ImageRatingTask_S3,2021.1.4,Win32,61.05378839,,,,,,,,,
,,,,,,,,,,,,0,3,3,3,1,fourth,6,21,Female,R,Donders,2021-07-07_10h36.36.450,ImageRatingTask_S3,2021.1.4,Win32,61.05378839,,,,,,,,,
,,,,,,,,,,,,0,4,4,4,1,fifth,6,21,Female,R,Donders,2021-07-07_10h36.36.450,ImageRatingTask_S3,2021.1.4,Win32,61.05378839,,,,,,,,,
