test_key_val.keys,test_key_val.rt,test_key_aro.keys,test_key_aro.rt,test_key_qual.keys,test_key_qual.rt,test_key_ncat.keys,test_key_ncat.rt,test_key_cats.keys,test_key_cats.rt,test_ncat_order.thisRepN,test_ncat_order.thisTrialN,test_ncat_order.thisN,test_ncat_order.thisIndex,test_ncat_order.ran,cond_cat,participant,age,gender,handedness (L/R),site (IMT/Donders),date,expName,psychopyVersion,OS,frameRate,test_trials.thisRepN,test_trials.thisTrialN,test_trials.thisN,test_trials.thisIndex,test_trials.ran,test_filename,link,copyright,slider_pre.response,slider_pre.rt,key_val.keys,key_val.rt,key_aro.keys,key_aro.rt,key_qual.keys,key_qual.rt,key_ncat.keys,key_ncat.rt,key_cats.keys,key_cats.rt,ncat_order.thisRepN,ncat_order.thisTrialN,ncat_order.thisN,ncat_order.thisIndex,ncat_order.ran,img_trials.thisRepN,img_trials.thisTrialN,img_trials.thisN,img_trials.thisIndex,img_trials.ran,filename,slider_post.response,slider_post.rt,textbox_openfb.text
9,7.0817,3,5.0744,6,4.2153,3,41.9497,5,7.5634,0,0,0,0,1,main,6,21,Female,R,Donders,2021-07-06_16h58.17.072,ImageRatingTask_S1,2021.1.4,Win32,60.71645416,,,,,,,,,,,,,,,,,,,,,,,,,,,,,,,,,,
,,,,,,,,2,2.6348,0,1,1,1,1,second,6,21,Female,R,Donders,2021-07-06_16h58.17.072,ImageRatingTask_S1,2021.1.4,Win32,60.71645416,,,,,,,,,,,,,,,,,,,,,,,,,,,,,,,,,,
,,,,,,,,6,1.2855,0,2,2,2,1,third,6,21,Female,R,Donders,2021-07-06_16h58.17.072,ImageRatingTask_S1,2021.1.4,Win32,60.71645416,,,,,,,,,,,,,,,,,,,,,,,,,,,,,,,,,,
,,,,,,,,,,0,3,3,3,1,fourth,6,21,Female,R,Donders,2021-07-06_16h58.17.072,ImageRatingTask_S1,2021.1.4,Win32,60.71645416,,,,,,,,,,,,,,,,,,,,,,,,,,,,,,,,,,
,,,,,,,,,,0,4,4,4,1,fifth,6,21,Female,R,Donders,2021-07-06_16h58.17.072,ImageRatingTask_S1,2021.1.4,Win32,60.71645416,,,,,,,,,,,,,,,,,,,,,,,,,,,,,,,,,,
,,,,,,,,,,0,5,5,5,1,sixth,6,21,Female,R,Donders,2021-07-06_16h58.17.072,ImageRatingTask_S1,2021.1.4,Win32,60.71645416,,,,,,,,,,,,,,,,,,,,,,,,,,,,,,,,,,
,,,,,,,,,,0,6,6,6,1,seventh,6,21,Female,R,Donders,2021-07-06_16h58.17.072,ImageRatingTask_S1,2021.1.4,Win32,60.71645416,,,,,,,,,,,,,,,,,,,,,,,,,,,,,,,,,,
,,,,,,,,,,0,7,7,7,1,last,6,21,Female,R,Donders,2021-07-06_16h58.17.072,ImageRatingTask_S1,2021.1.4,Win32,60.71645416,,,,,,,,,,,,,,,,,,,,,,,,,,,,,,,,,,
,,,,,,,,,,,,,,,,6,21,Female,R,Donders,2021-07-06_16h58.17.072,ImageRatingTask_S1,2021.1.4,Win32,60.71645416,0,0,0,1,1,test2.jpg,https://www.flickr.com/photos/cavalier92/16036265548/,CC BY-NC-ND 2.0,,,,,,,,,,,,,,,,,,,,,,,,,,
6,4.7932,3,3.7024,7,2.7948,2,7.751,7,1.5966,0,0,0,0,1,main,6,21,Female,R,Donders,2021-07-06_16h58.17.072,ImageRatingTask_S1,2021.1.4,Win32,60.71645416,,,,,,,,,,,,,,,,,,,,,,,,,,,,,,,,,,
,,,,,,,,1,0.7033,0,1,1,1,1,second,6,21,Female,R,Donders,2021-07-06_16h58.17.072,ImageRatingTask_S1,2021.1.4,Win32,60.71645416,,,,,,,,,,,,,,,,,,,,,,,,,,,,,,,,,,
,,,,,,,,,,0,2,2,2,1,third,6,21,Female,R,Donders,2021-07-06_16h58.17.072,ImageRatingTask_S1,2021.1.4,Win32,60.71645416,,,,,,,,,,,,,,,,,,,,,,,,,,,,,,,,,,
,,,,,,,,,,0,3,3,3,1,fourth,6,21,Female,R,Donders,2021-07-06_16h58.17.072,ImageRatingTask_S1,2021.1.4,Win32,60.71645416,,,,,,,,,,,,,,,,,,,,,,,,,,,,,,,,,,
,,,,,,,,,,0,4,4,4,1,fifth,6,21,Female,R,Donders,2021-07-06_16h58.17.072,ImageRatingTask_S1,2021.1.4,Win32,60.71645416,,,,,,,,,,,,,,,,,,,,,,,,,,,,,,,,,,
,,,,,,,,,,0,5,5,5,1,sixth,6,21,Female,R,Donders,2021-07-06_16h58.17.072,ImageRatingTask_S1,2021.1.4,Win32,60.71645416,,,,,,,,,,,,,,,,,,,,,,,,,,,,,,,,,,
,,,,,,,,,,0,6,6,6,1,seventh,6,21,Female,R,Donders,2021-07-06_16h58.17.072,ImageRatingTask_S1,2021.1.4,Win32,60.71645416,,,,,,,,,,,,,,,,,,,,,,,,,,,,,,,,,,
,,,,,,,,,,0,7,7,7,1,last,6,21,Female,R,Donders,2021-07-06_16h58.17.072,ImageRatingTask_S1,2021.1.4,Win32,60.71645416,,,,,,,,,,,,,,,,,,,,,,,,,,,,,,,,,,
,,,,,,,,,,,,,,,,6,21,Female,R,Donders,2021-07-06_16h58.17.072,ImageRatingTask_S1,2021.1.4,Win32,60.71645416,0,1,1,3,1,test4.jpg,https://www.flickr.com/photos/8782469@N05/33550256294/in/photolist-T7HQjJ-6bL62X-gQ2ptt-eARbhf-dbgLvQ-uKUpgG-e6GNPD-e6iDuV-RwYJie-Ur28At-u6Dvwk-fwts3x-CgqS5E-dgJSNE-fwHPg9-bFQoWv-9qgCN-TQZT7E-475QF-v3ZBG9-v5TFQL-aQVeNV-49XCzE-e5Va7j-v3WosE-5jvzS-cBxjA5-fwJ2P3-TP86kq-eREpVC-rMTQZx-Um3k-ajziHj-CgqSzN-dgP2Ci-e6putY-652ZqG-eARzQm-6ikz1-vrGjvh-Chgvpm-pFFnYq-8bKoVw-eAsukg-daANXC-MwMMfW-5ArWsa-GMcDmn-bLo6CH-9KgagR,CC BY 2.0,,,,,,,,,,,,,,,,,,,,,,,,,,
9,3.6038,1,1.464,8,1.848,1,5.4227,8,1.2855,0,0,0,0,1,main,6,21,Female,R,Donders,2021-07-06_16h58.17.072,ImageRatingTask_S1,2021.1.4,Win32,60.71645416,,,,,,,,,,,,,,,,,,,,,,,,,,,,,,,,,,
,,,,,,,,,,0,1,1,1,1,second,6,21,Female,R,Donders,2021-07-06_16h58.17.072,ImageRatingTask_S1,2021.1.4,Win32,60.71645416,,,,,,,,,,,,,,,,,,,,,,,,,,,,,,,,,,
,,,,,,,,,,0,2,2,2,1,third,6,21,Female,R,Donders,2021-07-06_16h58.17.072,ImageRatingTask_S1,2021.1.4,Win32,60.71645416,,,,,,,,,,,,,,,,,,,,,,,,,,,,,,,,,,
,,,,,,,,,,0,3,3,3,1,fourth,6,21,Female,R,Donders,2021-07-06_16h58.17.072,ImageRatingTask_S1,2021.1.4,Win32,60.71645416,,,,,,,,,,,,,,,,,,,,,,,,,,,,,,,,,,
,,,,,,,,,,0,4,4,4,1,fifth,6,21,Female,R,Donders,2021-07-06_16h58.17.072,ImageRatingTask_S1,2021.1.4,Win32,60.71645416,,,,,,,,,,,,,,,,,,,,,,,,,,,,,,,,,,
,,,,,,,,,,0,5,5,5,1,sixth,6,21,Female,R,Donders,2021-07-06_16h58.17.072,ImageRatingTask_S1,2021.1.4,Win32,60.71645416,,,,,,,,,,,,,,,,,,,,,,,,,,,,,,,,,,
,,,,,,,,,,0,6,6,6,1,seventh,6,21,Female,R,Donders,2021-07-06_16h58.17.072,ImageRatingTask_S1,2021.1.4,Win32,60.71645416,,,,,,,,,,,,,,,,,,,,,,,,,,,,,,,,,,
,,,,,,,,,,0,7,7,7,1,last,6,21,Female,R,Donders,2021-07-06_16h58.17.072,ImageRatingTask_S1,2021.1.4,Win32,60.71645416,,,,,,,,,,,,,,,,,,,,,,,,,,,,,,,,,,
,,,,,,,,,,,,,,,,6,21,Female,R,Donders,2021-07-06_16h58.17.072,ImageRatingTask_S1,2021.1.4,Win32,60.71645416,0,2,2,0,1,test1.jpg,https://www.flickr.com/photos/julzyax1/8713189147/in/photolist-egXnz6-Kg97g6-paYQjg-cDWcvy-e84vQU-fyRQKZ-dzuwVL-nzCPJw-dzp3r6-SXXSvw-aEgXGF-dzp1D8-aEgZ6F-prcoQG-aEgYd8-dt9EJ8-qTHZUL-dX8ut3-6eqh7x-aEkMyA-avjf71-6eqgKg-pNpDbJ-6euqa5-bo2EMC-q8hCLb-od8yyX-daaz4w-26cjVxB-CXaGmV-C7hSHf-aqmunq-9ek8a1-YcbBUe-apPWHB-HnB8rt-pHQLfh-8YgHaC-aqHteN-d5THbj-5dgTxP-afp2aV-8hNoSm-qhSjJS-d5TqoA-98WoKM-cjnSxo-9b4u7a-d5Tnzf-f7AETL,CC BY-NC 2.0,,,,,,,,,,,,,,,,,,,,,,,,,,
8,5.2997,3,2.855,7,3.6406,2,6.5114,4,1.9659,0,0,0,0,1,main,6,21,Female,R,Donders,2021-07-06_16h58.17.072,ImageRatingTask_S1,2021.1.4,Win32,60.71645416,,,,,,,,,,,,,,,,,,,,,,,,,,,,,,,,,,
,,,,,,,,1,1.2512,0,1,1,1,1,second,6,21,Female,R,Donders,2021-07-06_16h58.17.072,ImageRatingTask_S1,2021.1.4,Win32,60.71645416,,,,,,,,,,,,,,,,,,,,,,,,,,,,,,,,,,
,,,,,,,,,,0,2,2,2,1,third,6,21,Female,R,Donders,2021-07-06_16h58.17.072,ImageRatingTask_S1,2021.1.4,Win32,60.71645416,,,,,,,,,,,,,,,,,,,,,,,,,,,,,,,,,,
,,,,,,,,,,0,3,3,3,1,fourth,6,21,Female,R,Donders,2021-07-06_16h58.17.072,ImageRatingTask_S1,2021.1.4,Win32,60.71645416,,,,,,,,,,,,,,,,,,,,,,,,,,,,,,,,,,
,,,,,,,,,,0,4,4,4,1,fifth,6,21,Female,R,Donders,2021-07-06_16h58.17.072,ImageRatingTask_S1,2021.1.4,Win32,60.71645416,,,,,,,,,,,,,,,,,,,,,,,,,,,,,,,,,,
,,,,,,,,,,0,5,5,5,1,sixth,6,21,Female,R,Donders,2021-07-06_16h58.17.072,ImageRatingTask_S1,2021.1.4,Win32,60.71645416,,,,,,,,,,,,,,,,,,,,,,,,,,,,,,,,,,
,,,,,,,,,,0,6,6,6,1,seventh,6,21,Female,R,Donders,2021-07-06_16h58.17.072,ImageRatingTask_S1,2021.1.4,Win32,60.71645416,,,,,,,,,,,,,,,,,,,,,,,,,,,,,,,,,,
,,,,,,,,,,0,7,7,7,1,last,6,21,Female,R,Donders,2021-07-06_16h58.17.072,ImageRatingTask_S1,2021.1.4,Win32,60.71645416,,,,,,,,,,,,,,,,,,,,,,,,,,,,,,,,,,
,,,,,,,,,,,,,,,,6,21,Female,R,Donders,2021-07-06_16h58.17.072,ImageRatingTask_S1,2021.1.4,Win32,60.71645416,0,3,3,2,1,test3.jpg,https://www.flickr.com/photos/7487886@N04/35810127921/in/photolist-WyqgqD-DQSoP-6SrFCE-39ywib-39Bezs-9gt8aT-9gt83Z-eEgA9B-KnLx9-9gt8dK-HXwdie-2b6FA2g-4ekt5k-9ECfRg-2Zr5GQ-2Zr5mC-2Zr6kW-2Zr5Xu-2Zmyac-98TgbK-7U5XRj-am4oXb-98ThEB-2Bw3gh-vXo6D-Wt9U8o-DGiErb-DGiEqE-2m3CpV6-6E2aGG-6DXgqc-4PC3pQ-6HwMbx-dHYvkg-a2ycs-JLvMv-7k6DhM-bA81AL-8zwPFe-5nMrZu-3Ep2da-nhhd2L-DvDkr-81RkjZ-E1HXA-GzGH8Z-83vZYf-9krgXK-5nMxuU-DGiEqu,CC BY-NC 2.0,,,,,,,,,,,,,,,,,,,,,,,,,,
8,4.0322,1,1.3822,9,1.7766,0,6.8658,,,0,0,0,0,1,main,6,21,Female,R,Donders,2021-07-06_16h58.17.072,ImageRatingTask_S1,2021.1.4,Win32,60.71645416,,,,,,,,,,,,,,,,,,,,,,,,,,,,,,,,,,
,,,,,,,,,,0,1,1,1,1,second,6,21,Female,R,Donders,2021-07-06_16h58.17.072,ImageRatingTask_S1,2021.1.4,Win32,60.71645416,,,,,,,,,,,,,,,,,,,,,,,,,,,,,,,,,,
,,,,,,,,,,0,2,2,2,1,third,6,21,Female,R,Donders,2021-07-06_16h58.17.072,ImageRatingTask_S1,2021.1.4,Win32,60.71645416,,,,,,,,,,,,,,,,,,,,,,,,,,,,,,,,,,
,,,,,,,,,,0,3,3,3,1,fourth,6,21,Female,R,Donders,2021-07-06_16h58.17.072,ImageRatingTask_S1,2021.1.4,Win32,60.71645416,,,,,,,,,,,,,,,,,,,,,,,,,,,,,,,,,,
,,,,,,,,,,0,4,4,4,1,fifth,6,21,Female,R,Donders,2021-07-06_16h58.17.072,ImageRatingTask_S1,2021.1.4,Win32,60.71645416,,,,,,,,,,,,,,,,,,,,,,,,,,,,,,,,,,
,,,,,,,,,,0,5,5,5,1,sixth,6,21,Female,R,Donders,2021-07-06_16h58.17.072,ImageRatingTask_S1,2021.1.4,Win32,60.71645416,,,,,,,,,,,,,,,,,,,,,,,,,,,,,,,,,,
,,,,,,,,,,0,6,6,6,1,seventh,6,21,Female,R,Donders,2021-07-06_16h58.17.072,ImageRatingTask_S1,2021.1.4,Win32,60.71645416,,,,,,,,,,,,,,,,,,,,,,,,,,,,,,,,,,
,,,,,,,,,,0,7,7,7,1,last,6,21,Female,R,Donders,2021-07-06_16h58.17.072,ImageRatingTask_S1,2021.1.4,Win32,60.71645416,,,,,,,,,,,,,,,,,,,,,,,,,,,,,,,,,,
,,,,,,,,,,,,,,,,6,21,Female,R,Donders,2021-07-06_16h58.17.072,ImageRatingTask_S1,2021.1.4,Win32,60.71645416,0,4,4,4,1,test5.jpg,https://www.flickr.com/photos/silkebaron/2778692021/in/photolist-5exwk8-CeHF3S-5gg796-95cM2x-LGUrp7-oFgB6-2k7B5QN-aufKzz-hn8Di-8A3htc-8EagiU-4Hvk3Y-2b7s1f8-KSEPr-KSseq-KSrU3-KSu4o-KSsS3-Tp6nDS-KSCUM-VpC5Br-4j8meK-bdrepT-7GRM78-e6Zw96-8cCPed-9ANgBi-oFg73-2GGRxm-5dcivP-7sa8oG-2GGRzW-7CFUnh-3giGx-5Bz4op-3gTuGh-5cSvq6-pUnXj-hwTpWT-48n3iY-e5zg7q-7u7zP8-49195x-3iQDe9-aL7cWX-5exvLk-48n2Yy-toytsg-rw5VR-78NSA2,CC BY 2.0,,,,,,,,,,,,,,,,,,,,,,,,,,
,,,,,,,,,,,,,,,main,6,21,Female,R,Donders,2021-07-06_16h58.17.072,ImageRatingTask_S1,2021.1.4,Win32,60.71645416,,,,,,,,,8,9.1293,7,3.7877,3,2.4307,4,4.1678,1,4.9665,8,0.9798,0,0,0,0,1,,,,,,,,,
,,,,,,,,,,,,,,,second,6,21,Female,R,Donders,2021-07-06_16h58.17.072,ImageRatingTask_S1,2021.1.4,Win32,60.71645416,,,,,,,,,,,,,,,,,,,,,0,1,1,1,1,,,,,,,,,
,,,,,,,,,,,,,,,third,6,21,Female,R,Donders,2021-07-06_16h58.17.072,ImageRatingTask_S1,2021.1.4,Win32,60.71645416,,,,,,,,,,,,,,,,,,,,,0,2,2,2,1,,,,,,,,,
,,,,,,,,,,,,,,,fourth,6,21,Female,R,Donders,2021-07-06_16h58.17.072,ImageRatingTask_S1,2021.1.4,Win32,60.71645416,,,,,,,,,,,,,,,,,,,,,0,3,3,3,1,,,,,,,,,
,,,,,,,,,,,,,,,fifth,6,21,Female,R,Donders,2021-07-06_16h58.17.072,ImageRatingTask_S1,2021.1.4,Win32,60.71645416,,,,,,,,,,,,,,,,,,,,,0,4,4,4,1,,,,,,,,,
,,,,,,,,,,,,,,,sixth,6,21,Female,R,Donders,2021-07-06_16h58.17.072,ImageRatingTask_S1,2021.1.4,Win32,60.71645416,,,,,,,,,,,,,,,,,,,,,0,5,5,5,1,,,,,,,,,
,,,,,,,,,,,,,,,seventh,6,21,Female,R,Donders,2021-07-06_16h58.17.072,ImageRatingTask_S1,2021.1.4,Win32,60.71645416,,,,,,,,,,,,,,,,,,,,,0,6,6,6,1,,,,,,,,,
,,,,,,,,,,,,,,,last,6,21,Female,R,Donders,2021-07-06_16h58.17.072,ImageRatingTask_S1,2021.1.4,Win32,60.71645416,,,,,,,,,,,,,,,,,,,,,0,7,7,7,1,,,,,,,,,
,,,,,,,,,,,,,,,,6,21,Female,R,Donders,2021-07-06_16h58.17.072,ImageRatingTask_S1,2021.1.4,Win32,60.71645416,,,,,,,,,,,,,,,,,,,,,,,,,,0,0,0,151,1,DreamStudyImages_rs1000x750g/Water/Landscapes_114_v.jpg,,,
,,,,,,,,,,,,,,,main,6,21,Female,R,Donders,2021-07-06_16h58.17.072,ImageRatingTask_S1,2021.1.4,Win32,60.71645416,,,,,,,,,,,5,5.9862,5,3.6496,9,2.0962,1,4.2489,5,0.9586,0,0,0,0,1,,,,,,,,,
,,,,,,,,,,,,,,,second,6,21,Female,R,Donders,2021-07-06_16h58.17.072,ImageRatingTask_S1,2021.1.4,Win32,60.71645416,,,,,,,,,,,,,,,,,,,,,0,1,1,1,1,,,,,,,,,
,,,,,,,,,,,,,,,third,6,21,Female,R,Donders,2021-07-06_16h58.17.072,ImageRatingTask_S1,2021.1.4,Win32,60.71645416,,,,,,,,,,,,,,,,,,,,,0,2,2,2,1,,,,,,,,,
,,,,,,,,,,,,,,,fourth,6,21,Female,R,Donders,2021-07-06_16h58.17.072,ImageRatingTask_S1,2021.1.4,Win32,60.71645416,,,,,,,,,,,,,,,,,,,,,0,3,3,3,1,,,,,,,,,
,,,,,,,,,,,,,,,fifth,6,21,Female,R,Donders,2021-07-06_16h58.17.072,ImageRatingTask_S1,2021.1.4,Win32,60.71645416,,,,,,,,,,,,,,,,,,,,,0,4,4,4,1,,,,,,,,,
,,,,,,,,,,,,,,,sixth,6,21,Female,R,Donders,2021-07-06_16h58.17.072,ImageRatingTask_S1,2021.1.4,Win32,60.71645416,,,,,,,,,,,,,,,,,,,,,0,5,5,5,1,,,,,,,,,
,,,,,,,,,,,,,,,seventh,6,21,Female,R,Donders,2021-07-06_16h58.17.072,ImageRatingTask_S1,2021.1.4,Win32,60.71645416,,,,,,,,,,,,,,,,,,,,,0,6,6,6,1,,,,,,,,,
,,,,,,,,,,,,,,,last,6,21,Female,R,Donders,2021-07-06_16h58.17.072,ImageRatingTask_S1,2021.1.4,Win32,60.71645416,,,,,,,,,,,,,,,,,,,,,0,7,7,7,1,,,,,,,,,
,,,,,,,,,,,,,,,,6,21,Female,R,Donders,2021-07-06_16h58.17.072,ImageRatingTask_S1,2021.1.4,Win32,60.71645416,,,,,,,,,,,,,,,,,,,,,,,,,,0,1,1,6,1,DreamStudyImages_rs1000x750g/Food/IAPS7477_sushi.jpg,,,
,,,,,,,,,,,,,,,main,6,21,Female,R,Donders,2021-07-06_16h58.17.072,ImageRatingTask_S1,2021.1.4,Win32,60.71645416,,,,,,,,,,,8,3.5876,3,2.0932,7,2.386,2,5.6098,8,1.237,0,0,0,0,1,,,,,,,,,
,,,,,,,,,,,,,,,second,6,21,Female,R,Donders,2021-07-06_16h58.17.072,ImageRatingTask_S1,2021.1.4,Win32,60.71645416,,,,,,,,,,,,,,,,,,,7,0.8825,0,1,1,1,1,,,,,,,,,
,,,,,,,,,,,,,,,third,6,21,Female,R,Donders,2021-07-06_16h58.17.072,ImageRatingTask_S1,2021.1.4,Win32,60.71645416,,,,,,,,,,,,,,,,,,,,,0,2,2,2,1,,,,,,,,,
,,,,,,,,,,,,,,,fourth,6,21,Female,R,Donders,2021-07-06_16h58.17.072,ImageRatingTask_S1,2021.1.4,Win32,60.71645416,,,,,,,,,,,,,,,,,,,,,0,3,3,3,1,,,,,,,,,
,,,,,,,,,,,,,,,fifth,6,21,Female,R,Donders,2021-07-06_16h58.17.072,ImageRatingTask_S1,2021.1.4,Win32,60.71645416,,,,,,,,,,,,,,,,,,,,,0,4,4,4,1,,,,,,,,,
,,,,,,,,,,,,,,,sixth,6,21,Female,R,Donders,2021-07-06_16h58.17.072,ImageRatingTask_S1,2021.1.4,Win32,60.71645416,,,,,,,,,,,,,,,,,,,,,0,5,5,5,1,,,,,,,,,
,,,,,,,,,,,,,,,seventh,6,21,Female,R,Donders,2021-07-06_16h58.17.072,ImageRatingTask_S1,2021.1.4,Win32,60.71645416,,,,,,,,,,,,,,,,,,,,,0,6,6,6,1,,,,,,,,,
,,,,,,,,,,,,,,,last,6,21,Female,R,Donders,2021-07-06_16h58.17.072,ImageRatingTask_S1,2021.1.4,Win32,60.71645416,,,,,,,,,,,,,,,,,,,,,0,7,7,7,1,,,,,,,,,
,,,,,,,,,,,,,,,,6,21,Female,R,Donders,2021-07-06_16h58.17.072,ImageRatingTask_S1,2021.1.4,Win32,60.71645416,,,,,,,,,,,,,,,,,,,,,,,,,,0,2,2,77,1,DreamStudyImages_rs1000x750g/Water/seacliffbridge.jpg,,,
,,,,,,,,,,,,,,,main,6,21,Female,R,Donders,2021-07-06_16h58.17.072,ImageRatingTask_S1,2021.1.4,Win32,60.71645416,,,,,,,,,,,4,4.7876,7,2.4687,5,2.3152,1,5.5381,6,1.151,0,0,0,0,1,,,,,,,,,
,,,,,,,,,,,,,,,second,6,21,Female,R,Donders,2021-07-06_16h58.17.072,ImageRatingTask_S1,2021.1.4,Win32,60.71645416,,,,,,,,,,,,,,,,,,,,,0,1,1,1,1,,,,,,,,,
,,,,,,,,,,,,,,,third,6,21,Female,R,Donders,2021-07-06_16h58.17.072,ImageRatingTask_S1,2021.1.4,Win32,60.71645416,,,,,,,,,,,,,,,,,,,,,0,2,2,2,1,,,,,,,,,
,,,,,,,,,,,,,,,fourth,6,21,Female,R,Donders,2021-07-06_16h58.17.072,ImageRatingTask_S1,2021.1.4,Win32,60.71645416,,,,,,,,,,,,,,,,,,,,,0,3,3,3,1,,,,,,,,,
,,,,,,,,,,,,,,,fifth,6,21,Female,R,Donders,2021-07-06_16h58.17.072,ImageRatingTask_S1,2021.1.4,Win32,60.71645416,,,,,,,,,,,,,,,,,,,,,0,4,4,4,1,,,,,,,,,
,,,,,,,,,,,,,,,sixth,6,21,Female,R,Donders,2021-07-06_16h58.17.072,ImageRatingTask_S1,2021.1.4,Win32,60.71645416,,,,,,,,,,,,,,,,,,,,,0,5,5,5,1,,,,,,,,,
,,,,,,,,,,,,,,,seventh,6,21,Female,R,Donders,2021-07-06_16h58.17.072,ImageRatingTask_S1,2021.1.4,Win32,60.71645416,,,,,,,,,,,,,,,,,,,,,0,6,6,6,1,,,,,,,,,
,,,,,,,,,,,,,,,last,6,21,Female,R,Donders,2021-07-06_16h58.17.072,ImageRatingTask_S1,2021.1.4,Win32,60.71645416,,,,,,,,,,,,,,,,,,,,,0,7,7,7,1,,,,,,,,,
,,,,,,,,,,,,,,,,6,21,Female,R,Donders,2021-07-06_16h58.17.072,ImageRatingTask_S1,2021.1.4,Win32,60.71645416,,,,,,,,,,,,,,,,,,,,,,,,,,0,3,3,43,1,DreamStudyImages_rs1000x750g/Houses/NDPS95_cityskyline.jpg,,,
,,,,,,,,,,,,,,,main,6,21,Female,R,Donders,2021-07-06_16h58.17.072,ImageRatingTask_S1,2021.1.4,Win32,60.71645416,,,,,,,,,,,3,4.0933,8,1.969,3,2.0312,0,9.8344,,,0,0,0,0,1,,,,,,,,,
,,,,,,,,,,,,,,,second,6,21,Female,R,Donders,2021-07-06_16h58.17.072,ImageRatingTask_S1,2021.1.4,Win32,60.71645416,,,,,,,,,,,,,,,,,,,,,0,1,1,1,1,,,,,,,,,
,,,,,,,,,,,,,,,third,6,21,Female,R,Donders,2021-07-06_16h58.17.072,ImageRatingTask_S1,2021.1.4,Win32,60.71645416,,,,,,,,,,,,,,,,,,,,,0,2,2,2,1,,,,,,,,,
,,,,,,,,,,,,,,,fourth,6,21,Female,R,Donders,2021-07-06_16h58.17.072,ImageRatingTask_S1,2021.1.4,Win32,60.71645416,,,,,,,,,,,,,,,,,,,,,0,3,3,3,1,,,,,,,,,
,,,,,,,,,,,,,,,fifth,6,21,Female,R,Donders,2021-07-06_16h58.17.072,ImageRatingTask_S1,2021.1.4,Win32,60.71645416,,,,,,,,,,,,,,,,,,,,,0,4,4,4,1,,,,,,,,,
,,,,,,,,,,,,,,,sixth,6,21,Female,R,Donders,2021-07-06_16h58.17.072,ImageRatingTask_S1,2021.1.4,Win32,60.71645416,,,,,,,,,,,,,,,,,,,,,0,5,5,5,1,,,,,,,,,
,,,,,,,,,,,,,,,seventh,6,21,Female,R,Donders,2021-07-06_16h58.17.072,ImageRatingTask_S1,2021.1.4,Win32,60.71645416,,,,,,,,,,,,,,,,,,,,,0,6,6,6,1,,,,,,,,,
,,,,,,,,,,,,,,,last,6,21,Female,R,Donders,2021-07-06_16h58.17.072,ImageRatingTask_S1,2021.1.4,Win32,60.71645416,,,,,,,,,,,,,,,,,,,,,0,7,7,7,1,,,,,,,,,
,,,,,,,,,,,,,,,,6,21,Female,R,Donders,2021-07-06_16h58.17.072,ImageRatingTask_S1,2021.1.4,Win32,60.71645416,,,,,,,,,,,,,,,,,,,,,,,,,,0,4,4,46,1,DreamStudyImages_rs1000x750g/Houses/Jail 3.jpg,,,
,,,,,,,,,,,,,,,main,6,21,Female,R,Donders,2021-07-06_16h58.17.072,ImageRatingTask_S1,2021.1.4,Win32,60.71645416,,,,,,,,,,,8,5.4503,1,1.3637,8,1.5558,1,3.8986,5,0.874,0,0,0,0,1,,,,,,,,,
,,,,,,,,,,,,,,,second,6,21,Female,R,Donders,2021-07-06_16h58.17.072,ImageRatingTask_S1,2021.1.4,Win32,60.71645416,,,,,,,,,,,,,,,,,,,,,0,1,1,1,1,,,,,,,,,
,,,,,,,,,,,,,,,third,6,21,Female,R,Donders,2021-07-06_16h58.17.072,ImageRatingTask_S1,2021.1.4,Win32,60.71645416,,,,,,,,,,,,,,,,,,,,,0,2,2,2,1,,,,,,,,,
,,,,,,,,,,,,,,,fourth,6,21,Female,R,Donders,2021-07-06_16h58.17.072,ImageRatingTask_S1,2021.1.4,Win32,60.71645416,,,,,,,,,,,,,,,,,,,,,0,3,3,3,1,,,,,,,,,
,,,,,,,,,,,,,,,fifth,6,21,Female,R,Donders,2021-07-06_16h58.17.072,ImageRatingTask_S1,2021.1.4,Win32,60.71645416,,,,,,,,,,,,,,,,,,,,,0,4,4,4,1,,,,,,,,,
,,,,,,,,,,,,,,,sixth,6,21,Female,R,Donders,2021-07-06_16h58.17.072,ImageRatingTask_S1,2021.1.4,Win32,60.71645416,,,,,,,,,,,,,,,,,,,,,0,5,5,5,1,,,,,,,,,
,,,,,,,,,,,,,,,seventh,6,21,Female,R,Donders,2021-07-06_16h58.17.072,ImageRatingTask_S1,2021.1.4,Win32,60.71645416,,,,,,,,,,,,,,,,,,,,,0,6,6,6,1,,,,,,,,,
,,,,,,,,,,,,,,,last,6,21,Female,R,Donders,2021-07-06_16h58.17.072,ImageRatingTask_S1,2021.1.4,Win32,60.71645416,,,,,,,,,,,,,,,,,,,,,0,7,7,7,1,,,,,,,,,
,,,,,,,,,,,,,,,,6,21,Female,R,Donders,2021-07-06_16h58.17.072,ImageRatingTask_S1,2021.1.4,Win32,60.71645416,,,,,,,,,,,,,,,,,,,,,,,,,,0,5,5,44,1,DreamStudyImages_rs1000x750g/Food/Objects_020_h.jpg,,,
,,,,,,,,,,,,,,,main,6,21,Female,R,Donders,2021-07-06_16h58.17.072,ImageRatingTask_S1,2021.1.4,Win32,60.71645416,,,,,,,,,,,7,4.8281,2,5.4204,5,3.1239,1,6.291,6,1.11,0,0,0,0,1,,,,,,,,,
,,,,,,,,,,,,,,,second,6,21,Female,R,Donders,2021-07-06_16h58.17.072,ImageRatingTask_S1,2021.1.4,Win32,60.71645416,,,,,,,,,,,,,,,,,,,,,0,1,1,1,1,,,,,,,,,
,,,,,,,,,,,,,,,third,6,21,Female,R,Donders,2021-07-06_16h58.17.072,ImageRatingTask_S1,2021.1.4,Win32,60.71645416,,,,,,,,,,,,,,,,,,,,,0,2,2,2,1,,,,,,,,,
,,,,,,,,,,,,,,,fourth,6,21,Female,R,Donders,2021-07-06_16h58.17.072,ImageRatingTask_S1,2021.1.4,Win32,60.71645416,,,,,,,,,,,,,,,,,,,,,0,3,3,3,1,,,,,,,,,
,,,,,,,,,,,,,,,fifth,6,21,Female,R,Donders,2021-07-06_16h58.17.072,ImageRatingTask_S1,2021.1.4,Win32,60.71645416,,,,,,,,,,,,,,,,,,,,,0,4,4,4,1,,,,,,,,,
,,,,,,,,,,,,,,,sixth,6,21,Female,R,Donders,2021-07-06_16h58.17.072,ImageRatingTask_S1,2021.1.4,Win32,60.71645416,,,,,,,,,,,,,,,,,,,,,0,5,5,5,1,,,,,,,,,
,,,,,,,,,,,,,,,seventh,6,21,Female,R,Donders,2021-07-06_16h58.17.072,ImageRatingTask_S1,2021.1.4,Win32,60.71645416,,,,,,,,,,,,,,,,,,,,,0,6,6,6,1,,,,,,,,,
,,,,,,,,,,,,,,,last,6,21,Female,R,Donders,2021-07-06_16h58.17.072,ImageRatingTask_S1,2021.1.4,Win32,60.71645416,,,,,,,,,,,,,,,,,,,,,0,7,7,7,1,,,,,,,,,
,,,,,,,,,,,,,,,,6,21,Female,R,Donders,2021-07-06_16h58.17.072,ImageRatingTask_S1,2021.1.4,Win32,60.71645416,,,,,,,,,,,,,,,,,,,,,,,,,,0,6,6,60,1,DreamStudyImages_rs1000x750g/Houses/IAPS7490_window.jpg,,,
,,,,,,,,,,,,,,,main,6,21,Female,R,Donders,2021-07-06_16h58.17.072,ImageRatingTask_S1,2021.1.4,Win32,60.71645416,,,,,,,,,,,7,8.8297,3,1.9259,3,4.0455,1,12.0037,6,1.0265,0,0,0,0,1,,,,,,,,,
,,,,,,,,,,,,,,,second,6,21,Female,R,Donders,2021-07-06_16h58.17.072,ImageRatingTask_S1,2021.1.4,Win32,60.71645416,,,,,,,,,,,,,,,,,,,,,0,1,1,1,1,,,,,,,,,
,,,,,,,,,,,,,,,third,6,21,Female,R,Donders,2021-07-06_16h58.17.072,ImageRatingTask_S1,2021.1.4,Win32,60.71645416,,,,,,,,,,,,,,,,,,,,,0,2,2,2,1,,,,,,,,,
,,,,,,,,,,,,,,,fourth,6,21,Female,R,Donders,2021-07-06_16h58.17.072,ImageRatingTask_S1,2021.1.4,Win32,60.71645416,,,,,,,,,,,,,,,,,,,,,0,3,3,3,1,,,,,,,,,
,,,,,,,,,,,,,,,fifth,6,21,Female,R,Donders,2021-07-06_16h58.17.072,ImageRatingTask_S1,2021.1.4,Win32,60.71645416,,,,,,,,,,,,,,,,,,,,,0,4,4,4,1,,,,,,,,,
,,,,,,,,,,,,,,,sixth,6,21,Female,R,Donders,2021-07-06_16h58.17.072,ImageRatingTask_S1,2021.1.4,Win32,60.71645416,,,,,,,,,,,,,,,,,,,,,0,5,5,5,1,,,,,,,,,
,,,,,,,,,,,,,,,seventh,6,21,Female,R,Donders,2021-07-06_16h58.17.072,ImageRatingTask_S1,2021.1.4,Win32,60.71645416,,,,,,,,,,,,,,,,,,,,,0,6,6,6,1,,,,,,,,,
,,,,,,,,,,,,,,,last,6,21,Female,R,Donders,2021-07-06_16h58.17.072,ImageRatingTask_S1,2021.1.4,Win32,60.71645416,,,,,,,,,,,,,,,,,,,,,0,7,7,7,1,,,,,,,,,
,,,,,,,,,,,,,,,,6,21,Female,R,Donders,2021-07-06_16h58.17.072,ImageRatingTask_S1,2021.1.4,Win32,60.71645416,,,,,,,,,,,,,,,,,,,,,,,,,,0,7,7,133,1,DreamStudyImages_rs1000x750g/Houses/IAPS7510_building2.jpg,,,
,,,,,,,,,,,,,,,main,6,21,Female,R,Donders,2021-07-06_16h58.17.072,ImageRatingTask_S1,2021.1.4,Win32,60.71645416,,,,,,,,,,,9,49.9596,2,1.7021,7,3.2488,1,12.7272,3,1.5784,0,0,0,0,1,,,,,,,,,
,,,,,,,,,,,,,,,second,6,21,Female,R,Donders,2021-07-06_16h58.17.072,ImageRatingTask_S1,2021.1.4,Win32,60.71645416,,,,,,,,,,,,,,,,,,,,,0,1,1,1,1,,,,,,,,,
,,,,,,,,,,,,,,,third,6,21,Female,R,Donders,2021-07-06_16h58.17.072,ImageRatingTask_S1,2021.1.4,Win32,60.71645416,,,,,,,,,,,,,,,,,,,,,0,2,2,2,1,,,,,,,,,
,,,,,,,,,,,,,,,fourth,6,21,Female,R,Donders,2021-07-06_16h58.17.072,ImageRatingTask_S1,2021.1.4,Win32,60.71645416,,,,,,,,,,,,,,,,,,,,,0,3,3,3,1,,,,,,,,,
,,,,,,,,,,,,,,,fifth,6,21,Female,R,Donders,2021-07-06_16h58.17.072,ImageRatingTask_S1,2021.1.4,Win32,60.71645416,,,,,,,,,,,,,,,,,,,,,0,4,4,4,1,,,,,,,,,
,,,,,,,,,,,,,,,sixth,6,21,Female,R,Donders,2021-07-06_16h58.17.072,ImageRatingTask_S1,2021.1.4,Win32,60.71645416,,,,,,,,,,,,,,,,,,,,,0,5,5,5,1,,,,,,,,,
,,,,,,,,,,,,,,,seventh,6,21,Female,R,Donders,2021-07-06_16h58.17.072,ImageRatingTask_S1,2021.1.4,Win32,60.71645416,,,,,,,,,,,,,,,,,,,,,0,6,6,6,1,,,,,,,,,
,,,,,,,,,,,,,,,last,6,21,Female,R,Donders,2021-07-06_16h58.17.072,ImageRatingTask_S1,2021.1.4,Win32,60.71645416,,,,,,,,,,,,,,,,,,,,,0,7,7,7,1,,,,,,,,,
,,,,,,,,,,,,,,,,6,21,Female,R,Donders,2021-07-06_16h58.17.072,ImageRatingTask_S1,2021.1.4,Win32,60.71645416,,,,,,,,,,,,,,,,,,,,,,,,,,0,8,8,49,1,DreamStudyImages_rs1000x750g/Mammals/Lamb 1.jpg,,,
,,,,,,,,,,,,,,,main,6,21,Female,R,Donders,2021-07-06_16h58.17.072,ImageRatingTask_S1,2021.1.4,Win32,60.71645416,,,,,,,,,,,6,4.6156,2,3.0961,5,1.9462,1,3.2492,2,1.0235,0,0,0,0,1,,,,,,,,,
,,,,,,,,,,,,,,,second,6,21,Female,R,Donders,2021-07-06_16h58.17.072,ImageRatingTask_S1,2021.1.4,Win32,60.71645416,,,,,,,,,,,,,,,,,,,,,0,1,1,1,1,,,,,,,,,
,,,,,,,,,,,,,,,third,6,21,Female,R,Donders,2021-07-06_16h58.17.072,ImageRatingTask_S1,2021.1.4,Win32,60.71645416,,,,,,,,,,,,,,,,,,,,,0,2,2,2,1,,,,,,,,,
,,,,,,,,,,,,,,,fourth,6,21,Female,R,Donders,2021-07-06_16h58.17.072,ImageRatingTask_S1,2021.1.4,Win32,60.71645416,,,,,,,,,,,,,,,,,,,,,0,3,3,3,1,,,,,,,,,
,,,,,,,,,,,,,,,fifth,6,21,Female,R,Donders,2021-07-06_16h58.17.072,ImageRatingTask_S1,2021.1.4,Win32,60.71645416,,,,,,,,,,,,,,,,,,,,,0,4,4,4,1,,,,,,,,,
,,,,,,,,,,,,,,,sixth,6,21,Female,R,Donders,2021-07-06_16h58.17.072,ImageRatingTask_S1,2021.1.4,Win32,60.71645416,,,,,,,,,,,,,,,,,,,,,0,5,5,5,1,,,,,,,,,
,,,,,,,,,,,,,,,seventh,6,21,Female,R,Donders,2021-07-06_16h58.17.072,ImageRatingTask_S1,2021.1.4,Win32,60.71645416,,,,,,,,,,,,,,,,,,,,,0,6,6,6,1,,,,,,,,,
,,,,,,,,,,,,,,,last,6,21,Female,R,Donders,2021-07-06_16h58.17.072,ImageRatingTask_S1,2021.1.4,Win32,60.71645416,,,,,,,,,,,,,,,,,,,,,0,7,7,7,1,,,,,,,,,
,,,,,,,,,,,,,,,,6,21,Female,R,Donders,2021-07-06_16h58.17.072,ImageRatingTask_S1,2021.1.4,Win32,60.71645416,,,,,,,,,,,,,,,,,,,,,,,,,,0,9,9,119,1,DreamStudyImages_rs1000x750g/Children/Faces_105_h.jpg,,,
,,,,,,,,,,,,,,,main,6,21,Female,R,Donders,2021-07-06_16h58.17.072,ImageRatingTask_S1,2021.1.4,Win32,60.71645416,,,,,,,,,,,5,9.6579,1,1.4848,8,2.1145,2,4.0764,7,1.2062,0,0,0,0,1,,,,,,,,,
,,,,,,,,,,,,,,,second,6,21,Female,R,Donders,2021-07-06_16h58.17.072,ImageRatingTask_S1,2021.1.4,Win32,60.71645416,,,,,,,,,,,,,,,,,,,2,0.7991,0,1,1,1,1,,,,,,,,,
,,,,,,,,,,,,,,,third,6,21,Female,R,Donders,2021-07-06_16h58.17.072,ImageRatingTask_S1,2021.1.4,Win32,60.71645416,,,,,,,,,,,,,,,,,,,,,0,2,2,2,1,,,,,,,,,
,,,,,,,,,,,,,,,fourth,6,21,Female,R,Donders,2021-07-06_16h58.17.072,ImageRatingTask_S1,2021.1.4,Win32,60.71645416,,,,,,,,,,,,,,,,,,,,,0,3,3,3,1,,,,,,,,,
,,,,,,,,,,,,,,,fifth,6,21,Female,R,Donders,2021-07-06_16h58.17.072,ImageRatingTask_S1,2021.1.4,Win32,60.71645416,,,,,,,,,,,,,,,,,,,,,0,4,4,4,1,,,,,,,,,
,,,,,,,,,,,,,,,sixth,6,21,Female,R,Donders,2021-07-06_16h58.17.072,ImageRatingTask_S1,2021.1.4,Win32,60.71645416,,,,,,,,,,,,,,,,,,,,,0,5,5,5,1,,,,,,,,,
,,,,,,,,,,,,,,,seventh,6,21,Female,R,Donders,2021-07-06_16h58.17.072,ImageRatingTask_S1,2021.1.4,Win32,60.71645416,,,,,,,,,,,,,,,,,,,,,0,6,6,6,1,,,,,,,,,
,,,,,,,,,,,,,,,last,6,21,Female,R,Donders,2021-07-06_16h58.17.072,ImageRatingTask_S1,2021.1.4,Win32,60.71645416,,,,,,,,,,,,,,,,,,,,,0,7,7,7,1,,,,,,,,,
,,,,,,,,,,,,,,,,6,21,Female,R,Donders,2021-07-06_16h58.17.072,ImageRatingTask_S1,2021.1.4,Win32,60.71645416,,,,,,,,,,,,,,,,,,,,,,,,,,0,10,10,145,1,DreamStudyImages_rs1000x750g/Vehicles/redtricycle.jpg,,,
,,,,,,,,,,,,,,,main,6,21,Female,R,Donders,2021-07-06_16h58.17.072,ImageRatingTask_S1,2021.1.4,Win32,60.71645416,,,,,,,,,,,1,52.4494,7,2.0034,6,19.2701,1,15.0144,2,0.8934,0,0,0,0,1,,,,,,,,,
,,,,,,,,,,,,,,,second,6,21,Female,R,Donders,2021-07-06_16h58.17.072,ImageRatingTask_S1,2021.1.4,Win32,60.71645416,,,,,,,,,,,,,,,,,,,,,0,1,1,1,1,,,,,,,,,
,,,,,,,,,,,,,,,third,6,21,Female,R,Donders,2021-07-06_16h58.17.072,ImageRatingTask_S1,2021.1.4,Win32,60.71645416,,,,,,,,,,,,,,,,,,,,,0,2,2,2,1,,,,,,,,,
,,,,,,,,,,,,,,,fourth,6,21,Female,R,Donders,2021-07-06_16h58.17.072,ImageRatingTask_S1,2021.1.4,Win32,60.71645416,,,,,,,,,,,,,,,,,,,,,0,3,3,3,1,,,,,,,,,
,,,,,,,,,,,,,,,fifth,6,21,Female,R,Donders,2021-07-06_16h58.17.072,ImageRatingTask_S1,2021.1.4,Win32,60.71645416,,,,,,,,,,,,,,,,,,,,,0,4,4,4,1,,,,,,,,,
,,,,,,,,,,,,,,,sixth,6,21,Female,R,Donders,2021-07-06_16h58.17.072,ImageRatingTask_S1,2021.1.4,Win32,60.71645416,,,,,,,,,,,,,,,,,,,,,0,5,5,5,1,,,,,,,,,
,,,,,,,,,,,,,,,seventh,6,21,Female,R,Donders,2021-07-06_16h58.17.072,ImageRatingTask_S1,2021.1.4,Win32,60.71645416,,,,,,,,,,,,,,,,,,,,,0,6,6,6,1,,,,,,,,,
,,,,,,,,,,,,,,,last,6,21,Female,R,Donders,2021-07-06_16h58.17.072,ImageRatingTask_S1,2021.1.4,Win32,60.71645416,,,,,,,,,,,,,,,,,,,,,0,7,7,7,1,,,,,,,,,
,,,,,,,,,,,,,,,,6,21,Female,R,Donders,2021-07-06_16h58.17.072,ImageRatingTask_S1,2021.1.4,Win32,60.71645416,,,,,,,,,,,,,,,,,,,,,,,,,,0,11,11,65,1,DreamStudyImages_rs1000x750g/Children/Faces_039_h.jpg,,,
,,,,,,,,,,,,,,,main,6,21,Female,R,Donders,2021-07-06_16h58.17.072,ImageRatingTask_S1,2021.1.4,Win32,60.71645416,,,,,,,,,,,6,10.8717,4,2.1138,7,2.4921,2,36.415,3,2.4845,0,0,0,0,1,,,,,,,,,
,,,,,,,,,,,,,,,second,6,21,Female,R,Donders,2021-07-06_16h58.17.072,ImageRatingTask_S1,2021.1.4,Win32,60.71645416,,,,,,,,,,,,,,,,,,,5,1.3188,0,1,1,1,1,,,,,,,,,
,,,,,,,,,,,,,,,third,6,21,Female,R,Donders,2021-07-06_16h58.17.072,ImageRatingTask_S1,2021.1.4,Win32,60.71645416,,,,,,,,,,,,,,,,,,,,,0,2,2,2,1,,,,,,,,,
,,,,,,,,,,,,,,,fourth,6,21,Female,R,Donders,2021-07-06_16h58.17.072,ImageRatingTask_S1,2021.1.4,Win32,60.71645416,,,,,,,,,,,,,,,,,,,,,0,3,3,3,1,,,,,,,,,
,,,,,,,,,,,,,,,fifth,6,21,Female,R,Donders,2021-07-06_16h58.17.072,ImageRatingTask_S1,2021.1.4,Win32,60.71645416,,,,,,,,,,,,,,,,,,,,,0,4,4,4,1,,,,,,,,,
,,,,,,,,,,,,,,,sixth,6,21,Female,R,Donders,2021-07-06_16h58.17.072,ImageRatingTask_S1,2021.1.4,Win32,60.71645416,,,,,,,,,,,,,,,,,,,,,0,5,5,5,1,,,,,,,,,
,,,,,,,,,,,,,,,seventh,6,21,Female,R,Donders,2021-07-06_16h58.17.072,ImageRatingTask_S1,2021.1.4,Win32,60.71645416,,,,,,,,,,,,,,,,,,,,,0,6,6,6,1,,,,,,,,,
,,,,,,,,,,,,,,,last,6,21,Female,R,Donders,2021-07-06_16h58.17.072,ImageRatingTask_S1,2021.1.4,Win32,60.71645416,,,,,,,,,,,,,,,,,,,,,0,7,7,7,1,,,,,,,,,
,,,,,,,,,,,,,,,,6,21,Female,R,Donders,2021-07-06_16h58.17.072,ImageRatingTask_S1,2021.1.4,Win32,60.71645416,,,,,,,,,,,,,,,,,,,,,,,,,,0,12,12,32,1,DreamStudyImages_rs1000x750g/Mammals/Lion 5.jpg,,,
,,,,,,,,,,,,,,,main,6,21,Female,R,Donders,2021-07-06_16h58.17.072,ImageRatingTask_S1,2021.1.4,Win32,60.71645416,,,,,,,,,,,8,2.298,2,4.6474,4,1.6784,1,35.7669,2,1.0146,0,0,0,0,1,,,,,,,,,
,,,,,,,,,,,,,,,second,6,21,Female,R,Donders,2021-07-06_16h58.17.072,ImageRatingTask_S1,2021.1.4,Win32,60.71645416,,,,,,,,,,,,,,,,,,,,,0,1,1,1,1,,,,,,,,,
,,,,,,,,,,,,,,,third,6,21,Female,R,Donders,2021-07-06_16h58.17.072,ImageRatingTask_S1,2021.1.4,Win32,60.71645416,,,,,,,,,,,,,,,,,,,,,0,2,2,2,1,,,,,,,,,
,,,,,,,,,,,,,,,fourth,6,21,Female,R,Donders,2021-07-06_16h58.17.072,ImageRatingTask_S1,2021.1.4,Win32,60.71645416,,,,,,,,,,,,,,,,,,,,,0,3,3,3,1,,,,,,,,,
,,,,,,,,,,,,,,,fifth,6,21,Female,R,Donders,2021-07-06_16h58.17.072,ImageRatingTask_S1,2021.1.4,Win32,60.71645416,,,,,,,,,,,,,,,,,,,,,0,4,4,4,1,,,,,,,,,
,,,,,,,,,,,,,,,sixth,6,21,Female,R,Donders,2021-07-06_16h58.17.072,ImageRatingTask_S1,2021.1.4,Win32,60.71645416,,,,,,,,,,,,,,,,,,,,,0,5,5,5,1,,,,,,,,,
,,,,,,,,,,,,,,,seventh,6,21,Female,R,Donders,2021-07-06_16h58.17.072,ImageRatingTask_S1,2021.1.4,Win32,60.71645416,,,,,,,,,,,,,,,,,,,,,0,6,6,6,1,,,,,,,,,
,,,,,,,,,,,,,,,last,6,21,Female,R,Donders,2021-07-06_16h58.17.072,ImageRatingTask_S1,2021.1.4,Win32,60.71645416,,,,,,,,,,,,,,,,,,,,,0,7,7,7,1,,,,,,,,,
,,,,,,,,,,,,,,,,6,21,Female,R,Donders,2021-07-06_16h58.17.072,ImageRatingTask_S1,2021.1.4,Win32,60.71645416,,,,,,,,,,,,,,,,,,,,,,,,,,0,13,13,139,1,DreamStudyImages_rs1000x750g/Children/IAPS2050_baby3.jpg,,,
,,,,,,,,,,,,,,,main,6,21,Female,R,Donders,2021-07-06_16h58.17.072,ImageRatingTask_S1,2021.1.4,Win32,60.71645416,,,,,,,,,,,6,4.7462,1,1.2533,7,2.1825,0,4.4499,,,0,0,0,0,1,,,,,,,,,
,,,,,,,,,,,,,,,second,6,21,Female,R,Donders,2021-07-06_16h58.17.072,ImageRatingTask_S1,2021.1.4,Win32,60.71645416,,,,,,,,,,,,,,,,,,,,,0,1,1,1,1,,,,,,,,,
,,,,,,,,,,,,,,,third,6,21,Female,R,Donders,2021-07-06_16h58.17.072,ImageRatingTask_S1,2021.1.4,Win32,60.71645416,,,,,,,,,,,,,,,,,,,,,0,2,2,2,1,,,,,,,,,
,,,,,,,,,,,,,,,fourth,6,21,Female,R,Donders,2021-07-06_16h58.17.072,ImageRatingTask_S1,2021.1.4,Win32,60.71645416,,,,,,,,,,,,,,,,,,,,,0,3,3,3,1,,,,,,,,,
,,,,,,,,,,,,,,,fifth,6,21,Female,R,Donders,2021-07-06_16h58.17.072,ImageRatingTask_S1,2021.1.4,Win32,60.71645416,,,,,,,,,,,,,,,,,,,,,0,4,4,4,1,,,,,,,,,
,,,,,,,,,,,,,,,sixth,6,21,Female,R,Donders,2021-07-06_16h58.17.072,ImageRatingTask_S1,2021.1.4,Win32,60.71645416,,,,,,,,,,,,,,,,,,,,,0,5,5,5,1,,,,,,,,,
,,,,,,,,,,,,,,,seventh,6,21,Female,R,Donders,2021-07-06_16h58.17.072,ImageRatingTask_S1,2021.1.4,Win32,60.71645416,,,,,,,,,,,,,,,,,,,,,0,6,6,6,1,,,,,,,,,
,,,,,,,,,,,,,,,last,6,21,Female,R,Donders,2021-07-06_16h58.17.072,ImageRatingTask_S1,2021.1.4,Win32,60.71645416,,,,,,,,,,,,,,,,,,,,,0,7,7,7,1,,,,,,,,,
,,,,,,,,,,,,,,,,6,21,Female,R,Donders,2021-07-06_16h58.17.072,ImageRatingTask_S1,2021.1.4,Win32,60.71645416,,,,,,,,,,,,,,,,,,,,,,,,,,0,14,14,33,1,DreamStudyImages_rs1000x750g/Food/Objects_026_v.jpg,,,
,,,,,,,,,,,,,,,main,6,21,Female,R,Donders,2021-07-06_16h58.17.072,ImageRatingTask_S1,2021.1.4,Win32,60.71645416,,,,,,,,,,,7,7.2603,1,4.8738,6,1.8982,1,3.4824,2,0.9026,0,0,0,0,1,,,,,,,,,
,,,,,,,,,,,,,,,second,6,21,Female,R,Donders,2021-07-06_16h58.17.072,ImageRatingTask_S1,2021.1.4,Win32,60.71645416,,,,,,,,,,,,,,,,,,,,,0,1,1,1,1,,,,,,,,,
,,,,,,,,,,,,,,,third,6,21,Female,R,Donders,2021-07-06_16h58.17.072,ImageRatingTask_S1,2021.1.4,Win32,60.71645416,,,,,,,,,,,,,,,,,,,,,0,2,2,2,1,,,,,,,,,
,,,,,,,,,,,,,,,fourth,6,21,Female,R,Donders,2021-07-06_16h58.17.072,ImageRatingTask_S1,2021.1.4,Win32,60.71645416,,,,,,,,,,,,,,,,,,,,,0,3,3,3,1,,,,,,,,,
,,,,,,,,,,,,,,,fifth,6,21,Female,R,Donders,2021-07-06_16h58.17.072,ImageRatingTask_S1,2021.1.4,Win32,60.71645416,,,,,,,,,,,,,,,,,,,,,0,4,4,4,1,,,,,,,,,
,,,,,,,,,,,,,,,sixth,6,21,Female,R,Donders,2021-07-06_16h58.17.072,ImageRatingTask_S1,2021.1.4,Win32,60.71645416,,,,,,,,,,,,,,,,,,,,,0,5,5,5,1,,,,,,,,,
,,,,,,,,,,,,,,,seventh,6,21,Female,R,Donders,2021-07-06_16h58.17.072,ImageRatingTask_S1,2021.1.4,Win32,60.71645416,,,,,,,,,,,,,,,,,,,,,0,6,6,6,1,,,,,,,,,
,,,,,,,,,,,,,,,last,6,21,Female,R,Donders,2021-07-06_16h58.17.072,ImageRatingTask_S1,2021.1.4,Win32,60.71645416,,,,,,,,,,,,,,,,,,,,,0,7,7,7,1,,,,,,,,,
,,,,,,,,,,,,,,,,6,21,Female,R,Donders,2021-07-06_16h58.17.072,ImageRatingTask_S1,2021.1.4,Win32,60.71645416,,,,,,,,,,,,,,,,,,,,,,,,,,0,15,15,126,1,DreamStudyImages_rs1000x750g/Children/Excited face 5.jpg,,,
,,,,,,,,,,,,,,,main,6,21,Female,R,Donders,2021-07-06_16h58.17.072,ImageRatingTask_S1,2021.1.4,Win32,60.71645416,,,,,,,,,,,8,2.43,1,1.4442,6,1.9311,1,15.5912,8,1.1705,0,0,0,0,1,,,,,,,,,
,,,,,,,,,,,,,,,second,6,21,Female,R,Donders,2021-07-06_16h58.17.072,ImageRatingTask_S1,2021.1.4,Win32,60.71645416,,,,,,,,,,,,,,,,,,,,,0,1,1,1,1,,,,,,,,,
,,,,,,,,,,,,,,,third,6,21,Female,R,Donders,2021-07-06_16h58.17.072,ImageRatingTask_S1,2021.1.4,Win32,60.71645416,,,,,,,,,,,,,,,,,,,,,0,2,2,2,1,,,,,,,,,
,,,,,,,,,,,,,,,fourth,6,21,Female,R,Donders,2021-07-06_16h58.17.072,ImageRatingTask_S1,2021.1.4,Win32,60.71645416,,,,,,,,,,,,,,,,,,,,,0,3,3,3,1,,,,,,,,,
,,,,,,,,,,,,,,,fifth,6,21,Female,R,Donders,2021-07-06_16h58.17.072,ImageRatingTask_S1,2021.1.4,Win32,60.71645416,,,,,,,,,,,,,,,,,,,,,0,4,4,4,1,,,,,,,,,
,,,,,,,,,,,,,,,sixth,6,21,Female,R,Donders,2021-07-06_16h58.17.072,ImageRatingTask_S1,2021.1.4,Win32,60.71645416,,,,,,,,,,,,,,,,,,,,,0,5,5,5,1,,,,,,,,,
,,,,,,,,,,,,,,,seventh,6,21,Female,R,Donders,2021-07-06_16h58.17.072,ImageRatingTask_S1,2021.1.4,Win32,60.71645416,,,,,,,,,,,,,,,,,,,,,0,6,6,6,1,,,,,,,,,
,,,,,,,,,,,,,,,last,6,21,Female,R,Donders,2021-07-06_16h58.17.072,ImageRatingTask_S1,2021.1.4,Win32,60.71645416,,,,,,,,,,,,,,,,,,,,,0,7,7,7,1,,,,,,,,,
,,,,,,,,,,,,,,,,6,21,Female,R,Donders,2021-07-06_16h58.17.072,ImageRatingTask_S1,2021.1.4,Win32,60.71645416,,,,,,,,,,,,,,,,,,,,,,,,,,0,16,16,149,1,DreamStudyImages_rs1000x750g/Water/Lake 1.jpg,,,
,,,,,,,,,,,,,,,main,6,21,Female,R,Donders,2021-07-06_16h58.17.072,ImageRatingTask_S1,2021.1.4,Win32,60.71645416,,,,,,,,,,,8,4.0109,1,1.7884,7,1.5683,2,6.8025,3,1.183,0,0,0,0,1,,,,,,,,,
,,,,,,,,,,,,,,,second,6,21,Female,R,Donders,2021-07-06_16h58.17.072,ImageRatingTask_S1,2021.1.4,Win32,60.71645416,,,,,,,,,,,,,,,,,,,5,1.0084,0,1,1,1,1,,,,,,,,,
,,,,,,,,,,,,,,,third,6,21,Female,R,Donders,2021-07-06_16h58.17.072,ImageRatingTask_S1,2021.1.4,Win32,60.71645416,,,,,,,,,,,,,,,,,,,,,0,2,2,2,1,,,,,,,,,
,,,,,,,,,,,,,,,fourth,6,21,Female,R,Donders,2021-07-06_16h58.17.072,ImageRatingTask_S1,2021.1.4,Win32,60.71645416,,,,,,,,,,,,,,,,,,,,,0,3,3,3,1,,,,,,,,,
,,,,,,,,,,,,,,,fifth,6,21,Female,R,Donders,2021-07-06_16h58.17.072,ImageRatingTask_S1,2021.1.4,Win32,60.71645416,,,,,,,,,,,,,,,,,,,,,0,4,4,4,1,,,,,,,,,
,,,,,,,,,,,,,,,sixth,6,21,Female,R,Donders,2021-07-06_16h58.17.072,ImageRatingTask_S1,2021.1.4,Win32,60.71645416,,,,,,,,,,,,,,,,,,,,,0,5,5,5,1,,,,,,,,,
,,,,,,,,,,,,,,,seventh,6,21,Female,R,Donders,2021-07-06_16h58.17.072,ImageRatingTask_S1,2021.1.4,Win32,60.71645416,,,,,,,,,,,,,,,,,,,,,0,6,6,6,1,,,,,,,,,
,,,,,,,,,,,,,,,last,6,21,Female,R,Donders,2021-07-06_16h58.17.072,ImageRatingTask_S1,2021.1.4,Win32,60.71645416,,,,,,,,,,,,,,,,,,,,,0,7,7,7,1,,,,,,,,,
,,,,,,,,,,,,,,,,6,21,Female,R,Donders,2021-07-06_16h58.17.072,ImageRatingTask_S1,2021.1.4,Win32,60.71645416,,,,,,,,,,,,,,,,,,,,,,,,,,0,17,17,125,1,DreamStudyImages_rs1000x750g/Mammals/Animals_206_h_CHECK.jpg,,,
,,,,,,,,,,,,,,,main,6,21,Female,R,Donders,2021-07-06_16h58.17.072,ImageRatingTask_S1,2021.1.4,Win32,60.71645416,,,,,,,,,,,9,2.1516,5,6.0684,7,2.5381,1,4.2531,3,1.3175,0,0,0,0,1,,,,,,,,,
,,,,,,,,,,,,,,,second,6,21,Female,R,Donders,2021-07-06_16h58.17.072,ImageRatingTask_S1,2021.1.4,Win32,60.71645416,,,,,,,,,,,,,,,,,,,,,0,1,1,1,1,,,,,,,,,
,,,,,,,,,,,,,,,third,6,21,Female,R,Donders,2021-07-06_16h58.17.072,ImageRatingTask_S1,2021.1.4,Win32,60.71645416,,,,,,,,,,,,,,,,,,,,,0,2,2,2,1,,,,,,,,,
,,,,,,,,,,,,,,,fourth,6,21,Female,R,Donders,2021-07-06_16h58.17.072,ImageRatingTask_S1,2021.1.4,Win32,60.71645416,,,,,,,,,,,,,,,,,,,,,0,3,3,3,1,,,,,,,,,
,,,,,,,,,,,,,,,fifth,6,21,Female,R,Donders,2021-07-06_16h58.17.072,ImageRatingTask_S1,2021.1.4,Win32,60.71645416,,,,,,,,,,,,,,,,,,,,,0,4,4,4,1,,,,,,,,,
,,,,,,,,,,,,,,,sixth,6,21,Female,R,Donders,2021-07-06_16h58.17.072,ImageRatingTask_S1,2021.1.4,Win32,60.71645416,,,,,,,,,,,,,,,,,,,,,0,5,5,5,1,,,,,,,,,
,,,,,,,,,,,,,,,seventh,6,21,Female,R,Donders,2021-07-06_16h58.17.072,ImageRatingTask_S1,2021.1.4,Win32,60.71645416,,,,,,,,,,,,,,,,,,,,,0,6,6,6,1,,,,,,,,,
,,,,,,,,,,,,,,,last,6,21,Female,R,Donders,2021-07-06_16h58.17.072,ImageRatingTask_S1,2021.1.4,Win32,60.71645416,,,,,,,,,,,,,,,,,,,,,0,7,7,7,1,,,,,,,,,
,,,,,,,,,,,,,,,,6,21,Female,R,Donders,2021-07-06_16h58.17.072,ImageRatingTask_S1,2021.1.4,Win32,60.71645416,,,,,,,,,,,,,,,,,,,,,,,,,,0,18,18,69,1,DreamStudyImages_rs1000x750g/Mammals/Horse 1.jpg,,,
,,,,,,,,,,,,,,,main,6,21,Female,R,Donders,2021-07-06_16h58.17.072,ImageRatingTask_S1,2021.1.4,Win32,60.71645416,,,,,,,,,,,5,8.7171,1,2.3123,7,2.1595,1,2.3323,7,1.0313,0,0,0,0,1,,,,,,,,,
,,,,,,,,,,,,,,,second,6,21,Female,R,Donders,2021-07-06_16h58.17.072,ImageRatingTask_S1,2021.1.4,Win32,60.71645416,,,,,,,,,,,,,,,,,,,,,0,1,1,1,1,,,,,,,,,
,,,,,,,,,,,,,,,third,6,21,Female,R,Donders,2021-07-06_16h58.17.072,ImageRatingTask_S1,2021.1.4,Win32,60.71645416,,,,,,,,,,,,,,,,,,,,,0,2,2,2,1,,,,,,,,,
,,,,,,,,,,,,,,,fourth,6,21,Female,R,Donders,2021-07-06_16h58.17.072,ImageRatingTask_S1,2021.1.4,Win32,60.71645416,,,,,,,,,,,,,,,,,,,,,0,3,3,3,1,,,,,,,,,
,,,,,,,,,,,,,,,fifth,6,21,Female,R,Donders,2021-07-06_16h58.17.072,ImageRatingTask_S1,2021.1.4,Win32,60.71645416,,,,,,,,,,,,,,,,,,,,,0,4,4,4,1,,,,,,,,,
,,,,,,,,,,,,,,,sixth,6,21,Female,R,Donders,2021-07-06_16h58.17.072,ImageRatingTask_S1,2021.1.4,Win32,60.71645416,,,,,,,,,,,,,,,,,,,,,0,5,5,5,1,,,,,,,,,
,,,,,,,,,,,,,,,seventh,6,21,Female,R,Donders,2021-07-06_16h58.17.072,ImageRatingTask_S1,2021.1.4,Win32,60.71645416,,,,,,,,,,,,,,,,,,,,,0,6,6,6,1,,,,,,,,,
,,,,,,,,,,,,,,,last,6,21,Female,R,Donders,2021-07-06_16h58.17.072,ImageRatingTask_S1,2021.1.4,Win32,60.71645416,,,,,,,,,,,,,,,,,,,,,0,7,7,7,1,,,,,,,,,
,,,,,,,,,,,,,,,,6,21,Female,R,Donders,2021-07-06_16h58.17.072,ImageRatingTask_S1,2021.1.4,Win32,60.71645416,,,,,,,,,,,,,,,,,,,,,,,,,,0,19,19,115,1,DreamStudyImages_rs1000x750g/Vehicles/Objects_314_h.jpg,,,
,,,,,,,,,,,,,,,main,6,21,Female,R,Donders,2021-07-06_16h58.17.072,ImageRatingTask_S1,2021.1.4,Win32,60.71645416,,,,,,,,,,,8,4.1757,1,1.6846,4,1.7493,1,3.8862,8,1.0013,0,0,0,0,1,,,,,,,,,
,,,,,,,,,,,,,,,second,6,21,Female,R,Donders,2021-07-06_16h58.17.072,ImageRatingTask_S1,2021.1.4,Win32,60.71645416,,,,,,,,,,,,,,,,,,,,,0,1,1,1,1,,,,,,,,,
,,,,,,,,,,,,,,,third,6,21,Female,R,Donders,2021-07-06_16h58.17.072,ImageRatingTask_S1,2021.1.4,Win32,60.71645416,,,,,,,,,,,,,,,,,,,,,0,2,2,2,1,,,,,,,,,
,,,,,,,,,,,,,,,fourth,6,21,Female,R,Donders,2021-07-06_16h58.17.072,ImageRatingTask_S1,2021.1.4,Win32,60.71645416,,,,,,,,,,,,,,,,,,,,,0,3,3,3,1,,,,,,,,,
,,,,,,,,,,,,,,,fifth,6,21,Female,R,Donders,2021-07-06_16h58.17.072,ImageRatingTask_S1,2021.1.4,Win32,60.71645416,,,,,,,,,,,,,,,,,,,,,0,4,4,4,1,,,,,,,,,
,,,,,,,,,,,,,,,sixth,6,21,Female,R,Donders,2021-07-06_16h58.17.072,ImageRatingTask_S1,2021.1.4,Win32,60.71645416,,,,,,,,,,,,,,,,,,,,,0,5,5,5,1,,,,,,,,,
,,,,,,,,,,,,,,,seventh,6,21,Female,R,Donders,2021-07-06_16h58.17.072,ImageRatingTask_S1,2021.1.4,Win32,60.71645416,,,,,,,,,,,,,,,,,,,,,0,6,6,6,1,,,,,,,,,
,,,,,,,,,,,,,,,last,6,21,Female,R,Donders,2021-07-06_16h58.17.072,ImageRatingTask_S1,2021.1.4,Win32,60.71645416,,,,,,,,,,,,,,,,,,,,,0,7,7,7,1,,,,,,,,,
,,,,,,,,,,,,,,,,6,21,Female,R,Donders,2021-07-06_16h58.17.072,ImageRatingTask_S1,2021.1.4,Win32,60.71645416,,,,,,,,,,,,,,,,,,,,,,,,,,0,20,20,51,1,DreamStudyImages_rs1000x750g/Water/Lake 10.jpg,,,
,,,,,,,,,,,,,,,main,6,21,Female,R,Donders,2021-07-06_16h58.17.072,ImageRatingTask_S1,2021.1.4,Win32,60.71645416,,,,,,,,,,,5,3.1047,1,1.8126,6,2.2143,1,9.6804,5,0.9732,0,0,0,0,1,,,,,,,,,
,,,,,,,,,,,,,,,second,6,21,Female,R,Donders,2021-07-06_16h58.17.072,ImageRatingTask_S1,2021.1.4,Win32,60.71645416,,,,,,,,,,,,,,,,,,,,,0,1,1,1,1,,,,,,,,,
,,,,,,,,,,,,,,,third,6,21,Female,R,Donders,2021-07-06_16h58.17.072,ImageRatingTask_S1,2021.1.4,Win32,60.71645416,,,,,,,,,,,,,,,,,,,,,0,2,2,2,1,,,,,,,,,
,,,,,,,,,,,,,,,fourth,6,21,Female,R,Donders,2021-07-06_16h58.17.072,ImageRatingTask_S1,2021.1.4,Win32,60.71645416,,,,,,,,,,,,,,,,,,,,,0,3,3,3,1,,,,,,,,,
,,,,,,,,,,,,,,,fifth,6,21,Female,R,Donders,2021-07-06_16h58.17.072,ImageRatingTask_S1,2021.1.4,Win32,60.71645416,,,,,,,,,,,,,,,,,,,,,0,4,4,4,1,,,,,,,,,
,,,,,,,,,,,,,,,sixth,6,21,Female,R,Donders,2021-07-06_16h58.17.072,ImageRatingTask_S1,2021.1.4,Win32,60.71645416,,,,,,,,,,,,,,,,,,,,,0,5,5,5,1,,,,,,,,,
,,,,,,,,,,,,,,,seventh,6,21,Female,R,Donders,2021-07-06_16h58.17.072,ImageRatingTask_S1,2021.1.4,Win32,60.71645416,,,,,,,,,,,,,,,,,,,,,0,6,6,6,1,,,,,,,,,
,,,,,,,,,,,,,,,last,6,21,Female,R,Donders,2021-07-06_16h58.17.072,ImageRatingTask_S1,2021.1.4,Win32,60.71645416,,,,,,,,,,,,,,,,,,,,,0,7,7,7,1,,,,,,,,,
,,,,,,,,,,,,,,,,6,21,Female,R,Donders,2021-07-06_16h58.17.072,ImageRatingTask_S1,2021.1.4,Win32,60.71645416,,,,,,,,,,,,,,,,,,,,,,,,,,0,21,21,127,1,DreamStudyImages_rs1000x750g/Food/Food 2.jpg,,,
,,,,,,,,,,,,,,,main,6,21,Female,R,Donders,2021-07-06_16h58.17.072,ImageRatingTask_S1,2021.1.4,Win32,60.71645416,,,,,,,,,,,7,6.0949,4,3.3773,8,2.3122,1,2.1853,5,0.8042,0,0,0,0,1,,,,,,,,,
,,,,,,,,,,,,,,,second,6,21,Female,R,Donders,2021-07-06_16h58.17.072,ImageRatingTask_S1,2021.1.4,Win32,60.71645416,,,,,,,,,,,,,,,,,,,,,0,1,1,1,1,,,,,,,,,
,,,,,,,,,,,,,,,third,6,21,Female,R,Donders,2021-07-06_16h58.17.072,ImageRatingTask_S1,2021.1.4,Win32,60.71645416,,,,,,,,,,,,,,,,,,,,,0,2,2,2,1,,,,,,,,,
,,,,,,,,,,,,,,,fourth,6,21,Female,R,Donders,2021-07-06_16h58.17.072,ImageRatingTask_S1,2021.1.4,Win32,60.71645416,,,,,,,,,,,,,,,,,,,,,0,3,3,3,1,,,,,,,,,
,,,,,,,,,,,,,,,fifth,6,21,Female,R,Donders,2021-07-06_16h58.17.072,ImageRatingTask_S1,2021.1.4,Win32,60.71645416,,,,,,,,,,,,,,,,,,,,,0,4,4,4,1,,,,,,,,,
,,,,,,,,,,,,,,,sixth,6,21,Female,R,Donders,2021-07-06_16h58.17.072,ImageRatingTask_S1,2021.1.4,Win32,60.71645416,,,,,,,,,,,,,,,,,,,,,0,5,5,5,1,,,,,,,,,
,,,,,,,,,,,,,,,seventh,6,21,Female,R,Donders,2021-07-06_16h58.17.072,ImageRatingTask_S1,2021.1.4,Win32,60.71645416,,,,,,,,,,,,,,,,,,,,,0,6,6,6,1,,,,,,,,,
,,,,,,,,,,,,,,,last,6,21,Female,R,Donders,2021-07-06_16h58.17.072,ImageRatingTask_S1,2021.1.4,Win32,60.71645416,,,,,,,,,,,,,,,,,,,,,0,7,7,7,1,,,,,,,,,
,,,,,,,,,,,,,,,,6,21,Female,R,Donders,2021-07-06_16h58.17.072,ImageRatingTask_S1,2021.1.4,Win32,60.71645416,,,,,,,,,,,,,,,,,,,,,,,,,,0,22,22,122,1,DreamStudyImages_rs1000x750g/Food/Objects_077_h.jpg,,,
,,,,,,,,,,,,,,,main,6,21,Female,R,Donders,2021-07-06_16h58.17.072,ImageRatingTask_S1,2021.1.4,Win32,60.71645416,,,,,,,,,,,6,3.3003,2,1.6849,6,1.7156,1,3.5655,2,0.9805,0,0,0,0,1,,,,,,,,,
,,,,,,,,,,,,,,,second,6,21,Female,R,Donders,2021-07-06_16h58.17.072,ImageRatingTask_S1,2021.1.4,Win32,60.71645416,,,,,,,,,,,,,,,,,,,,,0,1,1,1,1,,,,,,,,,
,,,,,,,,,,,,,,,third,6,21,Female,R,Donders,2021-07-06_16h58.17.072,ImageRatingTask_S1,2021.1.4,Win32,60.71645416,,,,,,,,,,,,,,,,,,,,,0,2,2,2,1,,,,,,,,,
,,,,,,,,,,,,,,,fourth,6,21,Female,R,Donders,2021-07-06_16h58.17.072,ImageRatingTask_S1,2021.1.4,Win32,60.71645416,,,,,,,,,,,,,,,,,,,,,0,3,3,3,1,,,,,,,,,
,,,,,,,,,,,,,,,fifth,6,21,Female,R,Donders,2021-07-06_16h58.17.072,ImageRatingTask_S1,2021.1.4,Win32,60.71645416,,,,,,,,,,,,,,,,,,,,,0,4,4,4,1,,,,,,,,,
,,,,,,,,,,,,,,,sixth,6,21,Female,R,Donders,2021-07-06_16h58.17.072,ImageRatingTask_S1,2021.1.4,Win32,60.71645416,,,,,,,,,,,,,,,,,,,,,0,5,5,5,1,,,,,,,,,
,,,,,,,,,,,,,,,seventh,6,21,Female,R,Donders,2021-07-06_16h58.17.072,ImageRatingTask_S1,2021.1.4,Win32,60.71645416,,,,,,,,,,,,,,,,,,,,,0,6,6,6,1,,,,,,,,,
,,,,,,,,,,,,,,,last,6,21,Female,R,Donders,2021-07-06_16h58.17.072,ImageRatingTask_S1,2021.1.4,Win32,60.71645416,,,,,,,,,,,,,,,,,,,,,0,7,7,7,1,,,,,,,,,
,,,,,,,,,,,,,,,,6,21,Female,R,Donders,2021-07-06_16h58.17.072,ImageRatingTask_S1,2021.1.4,Win32,60.71645416,,,,,,,,,,,,,,,,,,,,,,,,,,0,23,23,74,1,DreamStudyImages_rs1000x750g/Children/Tickling 1.jpg,,,
,,,,,,,,,,,,,,,main,6,21,Female,R,Donders,2021-07-06_16h58.17.072,ImageRatingTask_S1,2021.1.4,Win32,60.71645416,,,,,,,,,,,9,1.9447,5,1.6953,7,1.8071,1,1.8645,3,1.0415,0,0,0,0,1,,,,,,,,,
,,,,,,,,,,,,,,,second,6,21,Female,R,Donders,2021-07-06_16h58.17.072,ImageRatingTask_S1,2021.1.4,Win32,60.71645416,,,,,,,,,,,,,,,,,,,,,0,1,1,1,1,,,,,,,,,
,,,,,,,,,,,,,,,third,6,21,Female,R,Donders,2021-07-06_16h58.17.072,ImageRatingTask_S1,2021.1.4,Win32,60.71645416,,,,,,,,,,,,,,,,,,,,,0,2,2,2,1,,,,,,,,,
,,,,,,,,,,,,,,,fourth,6,21,Female,R,Donders,2021-07-06_16h58.17.072,ImageRatingTask_S1,2021.1.4,Win32,60.71645416,,,,,,,,,,,,,,,,,,,,,0,3,3,3,1,,,,,,,,,
,,,,,,,,,,,,,,,fifth,6,21,Female,R,Donders,2021-07-06_16h58.17.072,ImageRatingTask_S1,2021.1.4,Win32,60.71645416,,,,,,,,,,,,,,,,,,,,,0,4,4,4,1,,,,,,,,,
,,,,,,,,,,,,,,,sixth,6,21,Female,R,Donders,2021-07-06_16h58.17.072,ImageRatingTask_S1,2021.1.4,Win32,60.71645416,,,,,,,,,,,,,,,,,,,,,0,5,5,5,1,,,,,,,,,
,,,,,,,,,,,,,,,seventh,6,21,Female,R,Donders,2021-07-06_16h58.17.072,ImageRatingTask_S1,2021.1.4,Win32,60.71645416,,,,,,,,,,,,,,,,,,,,,0,6,6,6,1,,,,,,,,,
,,,,,,,,,,,,,,,last,6,21,Female,R,Donders,2021-07-06_16h58.17.072,ImageRatingTask_S1,2021.1.4,Win32,60.71645416,,,,,,,,,,,,,,,,,,,,,0,7,7,7,1,,,,,,,,,
,,,,,,,,,,,,,,,,6,21,Female,R,Donders,2021-07-06_16h58.17.072,ImageRatingTask_S1,2021.1.4,Win32,60.71645416,,,,,,,,,,,,,,,,,,,,,,,,,,0,24,24,147,1,DreamStudyImages_rs1000x750g/Mammals/IAPS1600_horse3.jpg,,,
,,,,,,,,,,,,,,,main,6,21,Female,R,Donders,2021-07-06_16h58.17.072,ImageRatingTask_S1,2021.1.4,Win32,60.71645416,,,,,,,,,,,4,2.6233,7,3.4475,6,2.8297,1,9.2429,7,1.0695,0,0,0,0,1,,,,,,,,,
,,,,,,,,,,,,,,,second,6,21,Female,R,Donders,2021-07-06_16h58.17.072,ImageRatingTask_S1,2021.1.4,Win32,60.71645416,,,,,,,,,,,,,,,,,,,,,0,1,1,1,1,,,,,,,,,
,,,,,,,,,,,,,,,third,6,21,Female,R,Donders,2021-07-06_16h58.17.072,ImageRatingTask_S1,2021.1.4,Win32,60.71645416,,,,,,,,,,,,,,,,,,,,,0,2,2,2,1,,,,,,,,,
,,,,,,,,,,,,,,,fourth,6,21,Female,R,Donders,2021-07-06_16h58.17.072,ImageRatingTask_S1,2021.1.4,Win32,60.71645416,,,,,,,,,,,,,,,,,,,,,0,3,3,3,1,,,,,,,,,
,,,,,,,,,,,,,,,fifth,6,21,Female,R,Donders,2021-07-06_16h58.17.072,ImageRatingTask_S1,2021.1.4,Win32,60.71645416,,,,,,,,,,,,,,,,,,,,,0,4,4,4,1,,,,,,,,,
,,,,,,,,,,,,,,,sixth,6,21,Female,R,Donders,2021-07-06_16h58.17.072,ImageRatingTask_S1,2021.1.4,Win32,60.71645416,,,,,,,,,,,,,,,,,,,,,0,5,5,5,1,,,,,,,,,
,,,,,,,,,,,,,,,seventh,6,21,Female,R,Donders,2021-07-06_16h58.17.072,ImageRatingTask_S1,2021.1.4,Win32,60.71645416,,,,,,,,,,,,,,,,,,,,,0,6,6,6,1,,,,,,,,,
,,,,,,,,,,,,,,,last,6,21,Female,R,Donders,2021-07-06_16h58.17.072,ImageRatingTask_S1,2021.1.4,Win32,60.71645416,,,,,,,,,,,,,,,,,,,,,0,7,7,7,1,,,,,,,,,
,,,,,,,,,,,,,,,,6,21,Female,R,Donders,2021-07-06_16h58.17.072,ImageRatingTask_S1,2021.1.4,Win32,60.71645416,,,,,,,,,,,,,,,,,,,,,,,,,,0,25,25,54,1,DreamStudyImages_rs1000x750g/Vehicles/bigtruck.jpg,,,
,,,,,,,,,,,,,,,main,6,21,Female,R,Donders,2021-07-06_16h58.17.072,ImageRatingTask_S1,2021.1.4,Win32,60.71645416,,,,,,,,,,,7,3.4012,3,1.5529,6,1.742,1,1.5661,2,0.8081,0,0,0,0,1,,,,,,,,,
,,,,,,,,,,,,,,,second,6,21,Female,R,Donders,2021-07-06_16h58.17.072,ImageRatingTask_S1,2021.1.4,Win32,60.71645416,,,,,,,,,,,,,,,,,,,,,0,1,1,1,1,,,,,,,,,
,,,,,,,,,,,,,,,third,6,21,Female,R,Donders,2021-07-06_16h58.17.072,ImageRatingTask_S1,2021.1.4,Win32,60.71645416,,,,,,,,,,,,,,,,,,,,,0,2,2,2,1,,,,,,,,,
,,,,,,,,,,,,,,,fourth,6,21,Female,R,Donders,2021-07-06_16h58.17.072,ImageRatingTask_S1,2021.1.4,Win32,60.71645416,,,,,,,,,,,,,,,,,,,,,0,3,3,3,1,,,,,,,,,
,,,,,,,,,,,,,,,fifth,6,21,Female,R,Donders,2021-07-06_16h58.17.072,ImageRatingTask_S1,2021.1.4,Win32,60.71645416,,,,,,,,,,,,,,,,,,,,,0,4,4,4,1,,,,,,,,,
,,,,,,,,,,,,,,,sixth,6,21,Female,R,Donders,2021-07-06_16h58.17.072,ImageRatingTask_S1,2021.1.4,Win32,60.71645416,,,,,,,,,,,,,,,,,,,,,0,5,5,5,1,,,,,,,,,
,,,,,,,,,,,,,,,seventh,6,21,Female,R,Donders,2021-07-06_16h58.17.072,ImageRatingTask_S1,2021.1.4,Win32,60.71645416,,,,,,,,,,,,,,,,,,,,,0,6,6,6,1,,,,,,,,,
,,,,,,,,,,,,,,,last,6,21,Female,R,Donders,2021-07-06_16h58.17.072,ImageRatingTask_S1,2021.1.4,Win32,60.71645416,,,,,,,,,,,,,,,,,,,,,0,7,7,7,1,,,,,,,,,
,,,,,,,,,,,,,,,,6,21,Female,R,Donders,2021-07-06_16h58.17.072,ImageRatingTask_S1,2021.1.4,Win32,60.71645416,,,,,,,,,,,,,,,,,,,,,,,,,,0,26,26,52,1,DreamStudyImages_rs1000x750g/Children/Excited face 3.jpg,,,
,,,,,,,,,,,,,,,main,6,21,Female,R,Donders,2021-07-06_16h58.17.072,ImageRatingTask_S1,2021.1.4,Win32,60.71645416,,,,,,,,,,,7,6.0967,2,3.9703,4,1.6514,1,2.4956,8,0.7779,0,0,0,0,1,,,,,,,,,
,,,,,,,,,,,,,,,second,6,21,Female,R,Donders,2021-07-06_16h58.17.072,ImageRatingTask_S1,2021.1.4,Win32,60.71645416,,,,,,,,,,,,,,,,,,,,,0,1,1,1,1,,,,,,,,,
,,,,,,,,,,,,,,,third,6,21,Female,R,Donders,2021-07-06_16h58.17.072,ImageRatingTask_S1,2021.1.4,Win32,60.71645416,,,,,,,,,,,,,,,,,,,,,0,2,2,2,1,,,,,,,,,
,,,,,,,,,,,,,,,fourth,6,21,Female,R,Donders,2021-07-06_16h58.17.072,ImageRatingTask_S1,2021.1.4,Win32,60.71645416,,,,,,,,,,,,,,,,,,,,,0,3,3,3,1,,,,,,,,,
,,,,,,,,,,,,,,,fifth,6,21,Female,R,Donders,2021-07-06_16h58.17.072,ImageRatingTask_S1,2021.1.4,Win32,60.71645416,,,,,,,,,,,,,,,,,,,,,0,4,4,4,1,,,,,,,,,
,,,,,,,,,,,,,,,sixth,6,21,Female,R,Donders,2021-07-06_16h58.17.072,ImageRatingTask_S1,2021.1.4,Win32,60.71645416,,,,,,,,,,,,,,,,,,,,,0,5,5,5,1,,,,,,,,,
,,,,,,,,,,,,,,,seventh,6,21,Female,R,Donders,2021-07-06_16h58.17.072,ImageRatingTask_S1,2021.1.4,Win32,60.71645416,,,,,,,,,,,,,,,,,,,,,0,6,6,6,1,,,,,,,,,
,,,,,,,,,,,,,,,last,6,21,Female,R,Donders,2021-07-06_16h58.17.072,ImageRatingTask_S1,2021.1.4,Win32,60.71645416,,,,,,,,,,,,,,,,,,,,,0,7,7,7,1,,,,,,,,,
,,,,,,,,,,,,,,,,6,21,Female,R,Donders,2021-07-06_16h58.17.072,ImageRatingTask_S1,2021.1.4,Win32,60.71645416,,,,,,,,,,,,,,,,,,,,,,,,,,0,27,27,16,1,DreamStudyImages_rs1000x750g/Water/Bridge 1.jpg,,,
,,,,,,,,,,,,,,,main,6,21,Female,R,Donders,2021-07-06_16h58.17.072,ImageRatingTask_S1,2021.1.4,Win32,60.71645416,,,,,,,,,,,2,3.9817,8,2.2655,8,2.1027,1,1.6878,5,1.0457,0,0,0,0,1,,,,,,,,,
,,,,,,,,,,,,,,,second,6,21,Female,R,Donders,2021-07-06_16h58.17.072,ImageRatingTask_S1,2021.1.4,Win32,60.71645416,,,,,,,,,,,,,,,,,,,,,0,1,1,1,1,,,,,,,,,
,,,,,,,,,,,,,,,third,6,21,Female,R,Donders,2021-07-06_16h58.17.072,ImageRatingTask_S1,2021.1.4,Win32,60.71645416,,,,,,,,,,,,,,,,,,,,,0,2,2,2,1,,,,,,,,,
,,,,,,,,,,,,,,,fourth,6,21,Female,R,Donders,2021-07-06_16h58.17.072,ImageRatingTask_S1,2021.1.4,Win32,60.71645416,,,,,,,,,,,,,,,,,,,,,0,3,3,3,1,,,,,,,,,
,,,,,,,,,,,,,,,fifth,6,21,Female,R,Donders,2021-07-06_16h58.17.072,ImageRatingTask_S1,2021.1.4,Win32,60.71645416,,,,,,,,,,,,,,,,,,,,,0,4,4,4,1,,,,,,,,,
,,,,,,,,,,,,,,,sixth,6,21,Female,R,Donders,2021-07-06_16h58.17.072,ImageRatingTask_S1,2021.1.4,Win32,60.71645416,,,,,,,,,,,,,,,,,,,,,0,5,5,5,1,,,,,,,,,
,,,,,,,,,,,,,,,seventh,6,21,Female,R,Donders,2021-07-06_16h58.17.072,ImageRatingTask_S1,2021.1.4,Win32,60.71645416,,,,,,,,,,,,,,,,,,,,,0,6,6,6,1,,,,,,,,,
,,,,,,,,,,,,,,,last,6,21,Female,R,Donders,2021-07-06_16h58.17.072,ImageRatingTask_S1,2021.1.4,Win32,60.71645416,,,,,,,,,,,,,,,,,,,,,0,7,7,7,1,,,,,,,,,
,,,,,,,,,,,,,,,,6,21,Female,R,Donders,2021-07-06_16h58.17.072,ImageRatingTask_S1,2021.1.4,Win32,60.71645416,,,,,,,,,,,,,,,,,,,,,,,,,,0,28,28,78,1,DreamStudyImages_rs1000x750g/Food/Objects_011_h.jpg,,,
,,,,,,,,,,,,,,,main,6,21,Female,R,Donders,2021-07-06_16h58.17.072,ImageRatingTask_S1,2021.1.4,Win32,60.71645416,,,,,,,,,,,4,3.6402,7,1.6442,9,1.8199,1,6.4671,6,1.1767,0,0,0,0,1,,,,,,,,,
,,,,,,,,,,,,,,,second,6,21,Female,R,Donders,2021-07-06_16h58.17.072,ImageRatingTask_S1,2021.1.4,Win32,60.71645416,,,,,,,,,,,,,,,,,,,,,0,1,1,1,1,,,,,,,,,
,,,,,,,,,,,,,,,third,6,21,Female,R,Donders,2021-07-06_16h58.17.072,ImageRatingTask_S1,2021.1.4,Win32,60.71645416,,,,,,,,,,,,,,,,,,,,,0,2,2,2,1,,,,,,,,,
,,,,,,,,,,,,,,,fourth,6,21,Female,R,Donders,2021-07-06_16h58.17.072,ImageRatingTask_S1,2021.1.4,Win32,60.71645416,,,,,,,,,,,,,,,,,,,,,0,3,3,3,1,,,,,,,,,
,,,,,,,,,,,,,,,fifth,6,21,Female,R,Donders,2021-07-06_16h58.17.072,ImageRatingTask_S1,2021.1.4,Win32,60.71645416,,,,,,,,,,,,,,,,,,,,,0,4,4,4,1,,,,,,,,,
,,,,,,,,,,,,,,,sixth,6,21,Female,R,Donders,2021-07-06_16h58.17.072,ImageRatingTask_S1,2021.1.4,Win32,60.71645416,,,,,,,,,,,,,,,,,,,,,0,5,5,5,1,,,,,,,,,
,,,,,,,,,,,,,,,seventh,6,21,Female,R,Donders,2021-07-06_16h58.17.072,ImageRatingTask_S1,2021.1.4,Win32,60.71645416,,,,,,,,,,,,,,,,,,,,,0,6,6,6,1,,,,,,,,,
,,,,,,,,,,,,,,,last,6,21,Female,R,Donders,2021-07-06_16h58.17.072,ImageRatingTask_S1,2021.1.4,Win32,60.71645416,,,,,,,,,,,,,,,,,,,,,0,7,7,7,1,,,,,,,,,
,,,,,,,,,,,,,,,,6,21,Female,R,Donders,2021-07-06_16h58.17.072,ImageRatingTask_S1,2021.1.4,Win32,60.71645416,,,,,,,,,,,,,,,,,,,,,,,,,,0,29,29,2,1,DreamStudyImages_rs1000x750g/Houses/Landscapes_042_h.jpg,,,
,,,,,,,,,,,,,,,main,6,21,Female,R,Donders,2021-07-06_16h58.17.072,ImageRatingTask_S1,2021.1.4,Win32,60.71645416,,,,,,,,,,,9,2.2502,5,1.6718,7,3.1156,1,1.4793,3,1.5186,0,0,0,0,1,,,,,,,,,
,,,,,,,,,,,,,,,second,6,21,Female,R,Donders,2021-07-06_16h58.17.072,ImageRatingTask_S1,2021.1.4,Win32,60.71645416,,,,,,,,,,,,,,,,,,,,,0,1,1,1,1,,,,,,,,,
,,,,,,,,,,,,,,,third,6,21,Female,R,Donders,2021-07-06_16h58.17.072,ImageRatingTask_S1,2021.1.4,Win32,60.71645416,,,,,,,,,,,,,,,,,,,,,0,2,2,2,1,,,,,,,,,
,,,,,,,,,,,,,,,fourth,6,21,Female,R,Donders,2021-07-06_16h58.17.072,ImageRatingTask_S1,2021.1.4,Win32,60.71645416,,,,,,,,,,,,,,,,,,,,,0,3,3,3,1,,,,,,,,,
,,,,,,,,,,,,,,,fifth,6,21,Female,R,Donders,2021-07-06_16h58.17.072,ImageRatingTask_S1,2021.1.4,Win32,60.71645416,,,,,,,,,,,,,,,,,,,,,0,4,4,4,1,,,,,,,,,
,,,,,,,,,,,,,,,sixth,6,21,Female,R,Donders,2021-07-06_16h58.17.072,ImageRatingTask_S1,2021.1.4,Win32,60.71645416,,,,,,,,,,,,,,,,,,,,,0,5,5,5,1,,,,,,,,,
,,,,,,,,,,,,,,,seventh,6,21,Female,R,Donders,2021-07-06_16h58.17.072,ImageRatingTask_S1,2021.1.4,Win32,60.71645416,,,,,,,,,,,,,,,,,,,,,0,6,6,6,1,,,,,,,,,
,,,,,,,,,,,,,,,last,6,21,Female,R,Donders,2021-07-06_16h58.17.072,ImageRatingTask_S1,2021.1.4,Win32,60.71645416,,,,,,,,,,,,,,,,,,,,,0,7,7,7,1,,,,,,,,,
,,,,,,,,,,,,,,,,6,21,Female,R,Donders,2021-07-06_16h58.17.072,ImageRatingTask_S1,2021.1.4,Win32,60.71645416,,,,,,,,,,,,,,,,,,,,,,,,,,0,30,30,94,1,DreamStudyImages_rs1000x750g/Mammals/Animals_113_h.jpg,,,
,,,,,,,,,,,,,,,main,6,21,Female,R,Donders,2021-07-06_16h58.17.072,ImageRatingTask_S1,2021.1.4,Win32,60.71645416,,,,,,,,,,,8,1.7245,2,2.7341,5,1.6816,1,5.4689,8,0.8389,0,0,0,0,1,,,,,,,,,
,,,,,,,,,,,,,,,second,6,21,Female,R,Donders,2021-07-06_16h58.17.072,ImageRatingTask_S1,2021.1.4,Win32,60.71645416,,,,,,,,,,,,,,,,,,,,,0,1,1,1,1,,,,,,,,,
,,,,,,,,,,,,,,,third,6,21,Female,R,Donders,2021-07-06_16h58.17.072,ImageRatingTask_S1,2021.1.4,Win32,60.71645416,,,,,,,,,,,,,,,,,,,,,0,2,2,2,1,,,,,,,,,
,,,,,,,,,,,,,,,fourth,6,21,Female,R,Donders,2021-07-06_16h58.17.072,ImageRatingTask_S1,2021.1.4,Win32,60.71645416,,,,,,,,,,,,,,,,,,,,,0,3,3,3,1,,,,,,,,,
,,,,,,,,,,,,,,,fifth,6,21,Female,R,Donders,2021-07-06_16h58.17.072,ImageRatingTask_S1,2021.1.4,Win32,60.71645416,,,,,,,,,,,,,,,,,,,,,0,4,4,4,1,,,,,,,,,
,,,,,,,,,,,,,,,sixth,6,21,Female,R,Donders,2021-07-06_16h58.17.072,ImageRatingTask_S1,2021.1.4,Win32,60.71645416,,,,,,,,,,,,,,,,,,,,,0,5,5,5,1,,,,,,,,,
,,,,,,,,,,,,,,,seventh,6,21,Female,R,Donders,2021-07-06_16h58.17.072,ImageRatingTask_S1,2021.1.4,Win32,60.71645416,,,,,,,,,,,,,,,,,,,,,0,6,6,6,1,,,,,,,,,
,,,,,,,,,,,,,,,last,6,21,Female,R,Donders,2021-07-06_16h58.17.072,ImageRatingTask_S1,2021.1.4,Win32,60.71645416,,,,,,,,,,,,,,,,,,,,,0,7,7,7,1,,,,,,,,,
,,,,,,,,,,,,,,,,6,21,Female,R,Donders,2021-07-06_16h58.17.072,ImageRatingTask_S1,2021.1.4,Win32,60.71645416,,,,,,,,,,,,,,,,,,,,,,,,,,0,31,31,72,1,DreamStudyImages_rs1000x750g/Water/IAPS5780_lake2.jpg,,,
,,,,,,,,,,,,,,,main,6,21,Female,R,Donders,2021-07-06_16h58.17.072,ImageRatingTask_S1,2021.1.4,Win32,60.71645416,,,,,,,,,,,2,2.5218,7,1.8371,8,4.1311,1,3.8321,5,0.9347,0,0,0,0,1,,,,,,,,,
,,,,,,,,,,,,,,,second,6,21,Female,R,Donders,2021-07-06_16h58.17.072,ImageRatingTask_S1,2021.1.4,Win32,60.71645416,,,,,,,,,,,,,,,,,,,,,0,1,1,1,1,,,,,,,,,
,,,,,,,,,,,,,,,third,6,21,Female,R,Donders,2021-07-06_16h58.17.072,ImageRatingTask_S1,2021.1.4,Win32,60.71645416,,,,,,,,,,,,,,,,,,,,,0,2,2,2,1,,,,,,,,,
,,,,,,,,,,,,,,,fourth,6,21,Female,R,Donders,2021-07-06_16h58.17.072,ImageRatingTask_S1,2021.1.4,Win32,60.71645416,,,,,,,,,,,,,,,,,,,,,0,3,3,3,1,,,,,,,,,
,,,,,,,,,,,,,,,fifth,6,21,Female,R,Donders,2021-07-06_16h58.17.072,ImageRatingTask_S1,2021.1.4,Win32,60.71645416,,,,,,,,,,,,,,,,,,,,,0,4,4,4,1,,,,,,,,,
,,,,,,,,,,,,,,,sixth,6,21,Female,R,Donders,2021-07-06_16h58.17.072,ImageRatingTask_S1,2021.1.4,Win32,60.71645416,,,,,,,,,,,,,,,,,,,,,0,5,5,5,1,,,,,,,,,
,,,,,,,,,,,,,,,seventh,6,21,Female,R,Donders,2021-07-06_16h58.17.072,ImageRatingTask_S1,2021.1.4,Win32,60.71645416,,,,,,,,,,,,,,,,,,,,,0,6,6,6,1,,,,,,,,,
,,,,,,,,,,,,,,,last,6,21,Female,R,Donders,2021-07-06_16h58.17.072,ImageRatingTask_S1,2021.1.4,Win32,60.71645416,,,,,,,,,,,,,,,,,,,,,0,7,7,7,1,,,,,,,,,
,,,,,,,,,,,,,,,,6,21,Female,R,Donders,2021-07-06_16h58.17.072,ImageRatingTask_S1,2021.1.4,Win32,60.71645416,,,,,,,,,,,,,,,,,,,,,,,,,,0,32,32,158,1,DreamStudyImages_rs1000x750g/Food/food_neg.jpg,,,
,,,,,,,,,,,,,,,main,6,21,Female,R,Donders,2021-07-06_16h58.17.072,ImageRatingTask_S1,2021.1.4,Win32,60.71645416,,,,,,,,,,,4,11.9657,8,1.4916,7,2.2495,1,1.2982,5,0.9603,0,0,0,0,1,,,,,,,,,
,,,,,,,,,,,,,,,second,6,21,Female,R,Donders,2021-07-06_16h58.17.072,ImageRatingTask_S1,2021.1.4,Win32,60.71645416,,,,,,,,,,,,,,,,,,,,,0,1,1,1,1,,,,,,,,,
,,,,,,,,,,,,,,,third,6,21,Female,R,Donders,2021-07-06_16h58.17.072,ImageRatingTask_S1,2021.1.4,Win32,60.71645416,,,,,,,,,,,,,,,,,,,,,0,2,2,2,1,,,,,,,,,
,,,,,,,,,,,,,,,fourth,6,21,Female,R,Donders,2021-07-06_16h58.17.072,ImageRatingTask_S1,2021.1.4,Win32,60.71645416,,,,,,,,,,,,,,,,,,,,,0,3,3,3,1,,,,,,,,,
,,,,,,,,,,,,,,,fifth,6,21,Female,R,Donders,2021-07-06_16h58.17.072,ImageRatingTask_S1,2021.1.4,Win32,60.71645416,,,,,,,,,,,,,,,,,,,,,0,4,4,4,1,,,,,,,,,
,,,,,,,,,,,,,,,sixth,6,21,Female,R,Donders,2021-07-06_16h58.17.072,ImageRatingTask_S1,2021.1.4,Win32,60.71645416,,,,,,,,,,,,,,,,,,,,,0,5,5,5,1,,,,,,,,,
,,,,,,,,,,,,,,,seventh,6,21,Female,R,Donders,2021-07-06_16h58.17.072,ImageRatingTask_S1,2021.1.4,Win32,60.71645416,,,,,,,,,,,,,,,,,,,,,0,6,6,6,1,,,,,,,,,
,,,,,,,,,,,,,,,last,6,21,Female,R,Donders,2021-07-06_16h58.17.072,ImageRatingTask_S1,2021.1.4,Win32,60.71645416,,,,,,,,,,,,,,,,,,,,,0,7,7,7,1,,,,,,,,,
,,,,,,,,,,,,,,,,6,21,Female,R,Donders,2021-07-06_16h58.17.072,ImageRatingTask_S1,2021.1.4,Win32,60.71645416,,,,,,,,,,,,,,,,,,,,,,,,,,0,33,33,141,1,DreamStudyImages_rs1000x750g/Food/Objects_101_h.jpg,,,
,,,,,,,,,,,,,,,main,6,21,Female,R,Donders,2021-07-06_16h58.17.072,ImageRatingTask_S1,2021.1.4,Win32,60.71645416,,,,,,,,,,,8,7.7028,4,1.452,7,5.7011,1,2.402,8,1.0118,0,0,0,0,1,,,,,,,,,
,,,,,,,,,,,,,,,second,6,21,Female,R,Donders,2021-07-06_16h58.17.072,ImageRatingTask_S1,2021.1.4,Win32,60.71645416,,,,,,,,,,,,,,,,,,,,,0,1,1,1,1,,,,,,,,,
,,,,,,,,,,,,,,,third,6,21,Female,R,Donders,2021-07-06_16h58.17.072,ImageRatingTask_S1,2021.1.4,Win32,60.71645416,,,,,,,,,,,,,,,,,,,,,0,2,2,2,1,,,,,,,,,
,,,,,,,,,,,,,,,fourth,6,21,Female,R,Donders,2021-07-06_16h58.17.072,ImageRatingTask_S1,2021.1.4,Win32,60.71645416,,,,,,,,,,,,,,,,,,,,,0,3,3,3,1,,,,,,,,,
,,,,,,,,,,,,,,,fifth,6,21,Female,R,Donders,2021-07-06_16h58.17.072,ImageRatingTask_S1,2021.1.4,Win32,60.71645416,,,,,,,,,,,,,,,,,,,,,0,4,4,4,1,,,,,,,,,
,,,,,,,,,,,,,,,sixth,6,21,Female,R,Donders,2021-07-06_16h58.17.072,ImageRatingTask_S1,2021.1.4,Win32,60.71645416,,,,,,,,,,,,,,,,,,,,,0,5,5,5,1,,,,,,,,,
,,,,,,,,,,,,,,,seventh,6,21,Female,R,Donders,2021-07-06_16h58.17.072,ImageRatingTask_S1,2021.1.4,Win32,60.71645416,,,,,,,,,,,,,,,,,,,,,0,6,6,6,1,,,,,,,,,
,,,,,,,,,,,,,,,last,6,21,Female,R,Donders,2021-07-06_16h58.17.072,ImageRatingTask_S1,2021.1.4,Win32,60.71645416,,,,,,,,,,,,,,,,,,,,,0,7,7,7,1,,,,,,,,,
,,,,,,,,,,,,,,,,6,21,Female,R,Donders,2021-07-06_16h58.17.072,ImageRatingTask_S1,2021.1.4,Win32,60.71645416,,,,,,,,,,,,,,,,,,,,,,,,,,0,34,34,99,1,DreamStudyImages_rs1000x750g/Water/Lake 14.jpg,,,
,,,,,,,,,,,,,,,main,6,21,Female,R,Donders,2021-07-06_16h58.17.072,ImageRatingTask_S1,2021.1.4,Win32,60.71645416,,,,,,,,,,,7,5.2226,4,1.6545,8,12.4098,1,1.4947,8,1.1897,0,0,0,0,1,,,,,,,,,
,,,,,,,,,,,,,,,second,6,21,Female,R,Donders,2021-07-06_16h58.17.072,ImageRatingTask_S1,2021.1.4,Win32,60.71645416,,,,,,,,,,,,,,,,,,,,,0,1,1,1,1,,,,,,,,,
,,,,,,,,,,,,,,,third,6,21,Female,R,Donders,2021-07-06_16h58.17.072,ImageRatingTask_S1,2021.1.4,Win32,60.71645416,,,,,,,,,,,,,,,,,,,,,0,2,2,2,1,,,,,,,,,
,,,,,,,,,,,,,,,fourth,6,21,Female,R,Donders,2021-07-06_16h58.17.072,ImageRatingTask_S1,2021.1.4,Win32,60.71645416,,,,,,,,,,,,,,,,,,,,,0,3,3,3,1,,,,,,,,,
,,,,,,,,,,,,,,,fifth,6,21,Female,R,Donders,2021-07-06_16h58.17.072,ImageRatingTask_S1,2021.1.4,Win32,60.71645416,,,,,,,,,,,,,,,,,,,,,0,4,4,4,1,,,,,,,,,
,,,,,,,,,,,,,,,sixth,6,21,Female,R,Donders,2021-07-06_16h58.17.072,ImageRatingTask_S1,2021.1.4,Win32,60.71645416,,,,,,,,,,,,,,,,,,,,,0,5,5,5,1,,,,,,,,,
,,,,,,,,,,,,,,,seventh,6,21,Female,R,Donders,2021-07-06_16h58.17.072,ImageRatingTask_S1,2021.1.4,Win32,60.71645416,,,,,,,,,,,,,,,,,,,,,0,6,6,6,1,,,,,,,,,
,,,,,,,,,,,,,,,last,6,21,Female,R,Donders,2021-07-06_16h58.17.072,ImageRatingTask_S1,2021.1.4,Win32,60.71645416,,,,,,,,,,,,,,,,,,,,,0,7,7,7,1,,,,,,,,,
,,,,,,,,,,,,,,,,6,21,Female,R,Donders,2021-07-06_16h58.17.072,ImageRatingTask_S1,2021.1.4,Win32,60.71645416,,,,,,,,,,,,,,,,,,,,,,,,,,0,35,35,0,1,DreamStudyImages_rs1000x750g/Water/NDPS124_swamp.jpg,,,
,,,,,,,,,,,,,,,main,6,21,Female,R,Donders,2021-07-06_16h58.17.072,ImageRatingTask_S1,2021.1.4,Win32,60.71645416,,,,,,,,,,,7,9.3263,4,6.5426,6,2.2106,1,10.6549,2,1.1158,0,0,0,0,1,,,,,,,,,
,,,,,,,,,,,,,,,second,6,21,Female,R,Donders,2021-07-06_16h58.17.072,ImageRatingTask_S1,2021.1.4,Win32,60.71645416,,,,,,,,,,,,,,,,,,,,,0,1,1,1,1,,,,,,,,,
,,,,,,,,,,,,,,,third,6,21,Female,R,Donders,2021-07-06_16h58.17.072,ImageRatingTask_S1,2021.1.4,Win32,60.71645416,,,,,,,,,,,,,,,,,,,,,0,2,2,2,1,,,,,,,,,
,,,,,,,,,,,,,,,fourth,6,21,Female,R,Donders,2021-07-06_16h58.17.072,ImageRatingTask_S1,2021.1.4,Win32,60.71645416,,,,,,,,,,,,,,,,,,,,,0,3,3,3,1,,,,,,,,,
,,,,,,,,,,,,,,,fifth,6,21,Female,R,Donders,2021-07-06_16h58.17.072,ImageRatingTask_S1,2021.1.4,Win32,60.71645416,,,,,,,,,,,,,,,,,,,,,0,4,4,4,1,,,,,,,,,
,,,,,,,,,,,,,,,sixth,6,21,Female,R,Donders,2021-07-06_16h58.17.072,ImageRatingTask_S1,2021.1.4,Win32,60.71645416,,,,,,,,,,,,,,,,,,,,,0,5,5,5,1,,,,,,,,,
,,,,,,,,,,,,,,,seventh,6,21,Female,R,Donders,2021-07-06_16h58.17.072,ImageRatingTask_S1,2021.1.4,Win32,60.71645416,,,,,,,,,,,,,,,,,,,,,0,6,6,6,1,,,,,,,,,
,,,,,,,,,,,,,,,last,6,21,Female,R,Donders,2021-07-06_16h58.17.072,ImageRatingTask_S1,2021.1.4,Win32,60.71645416,,,,,,,,,,,,,,,,,,,,,0,7,7,7,1,,,,,,,,,
,,,,,,,,,,,,,,,,6,21,Female,R,Donders,2021-07-06_16h58.17.072,ImageRatingTask_S1,2021.1.4,Win32,60.71645416,,,,,,,,,,,,,,,,,,,,,,,,,,0,36,36,93,1,DreamStudyImages_rs1000x750g/Children/Faces_073_v.jpg,,,
,,,,,,,,,,,,,,,main,6,21,Female,R,Donders,2021-07-06_16h58.17.072,ImageRatingTask_S1,2021.1.4,Win32,60.71645416,,,,,,,,,,,7,4.3198,6,13.297,7,6.1076,1,30.0927,6,1.591,0,0,0,0,1,,,,,,,,,
,,,,,,,,,,,,,,,second,6,21,Female,R,Donders,2021-07-06_16h58.17.072,ImageRatingTask_S1,2021.1.4,Win32,60.71645416,,,,,,,,,,,,,,,,,,,,,0,1,1,1,1,,,,,,,,,
,,,,,,,,,,,,,,,third,6,21,Female,R,Donders,2021-07-06_16h58.17.072,ImageRatingTask_S1,2021.1.4,Win32,60.71645416,,,,,,,,,,,,,,,,,,,,,0,2,2,2,1,,,,,,,,,
,,,,,,,,,,,,,,,fourth,6,21,Female,R,Donders,2021-07-06_16h58.17.072,ImageRatingTask_S1,2021.1.4,Win32,60.71645416,,,,,,,,,,,,,,,,,,,,,0,3,3,3,1,,,,,,,,,
,,,,,,,,,,,,,,,fifth,6,21,Female,R,Donders,2021-07-06_16h58.17.072,ImageRatingTask_S1,2021.1.4,Win32,60.71645416,,,,,,,,,,,,,,,,,,,,,0,4,4,4,1,,,,,,,,,
,,,,,,,,,,,,,,,sixth,6,21,Female,R,Donders,2021-07-06_16h58.17.072,ImageRatingTask_S1,2021.1.4,Win32,60.71645416,,,,,,,,,,,,,,,,,,,,,0,5,5,5,1,,,,,,,,,
,,,,,,,,,,,,,,,seventh,6,21,Female,R,Donders,2021-07-06_16h58.17.072,ImageRatingTask_S1,2021.1.4,Win32,60.71645416,,,,,,,,,,,,,,,,,,,,,0,6,6,6,1,,,,,,,,,
,,,,,,,,,,,,,,,last,6,21,Female,R,Donders,2021-07-06_16h58.17.072,ImageRatingTask_S1,2021.1.4,Win32,60.71645416,,,,,,,,,,,,,,,,,,,,,0,7,7,7,1,,,,,,,,,
,,,,,,,,,,,,,,,,6,21,Female,R,Donders,2021-07-06_16h58.17.072,ImageRatingTask_S1,2021.1.4,Win32,60.71645416,,,,,,,,,,,,,,,,,,,,,,,,,,0,37,37,132,1,DreamStudyImages_rs1000x750g/Houses/NDPS114_houses10.jpg,,,
,,,,,,,,,,,,,,,main,6,21,Female,R,Donders,2021-07-06_16h58.17.072,ImageRatingTask_S1,2021.1.4,Win32,60.71645416,,,,,,,,,,,5,60.2379,7,1.4346,4,1.648,1,4.2312,6,1.0792,0,0,0,0,1,,,,,,,,,
,,,,,,,,,,,,,,,second,6,21,Female,R,Donders,2021-07-06_16h58.17.072,ImageRatingTask_S1,2021.1.4,Win32,60.71645416,,,,,,,,,,,,,,,,,,,,,0,1,1,1,1,,,,,,,,,
,,,,,,,,,,,,,,,third,6,21,Female,R,Donders,2021-07-06_16h58.17.072,ImageRatingTask_S1,2021.1.4,Win32,60.71645416,,,,,,,,,,,,,,,,,,,,,0,2,2,2,1,,,,,,,,,
,,,,,,,,,,,,,,,fourth,6,21,Female,R,Donders,2021-07-06_16h58.17.072,ImageRatingTask_S1,2021.1.4,Win32,60.71645416,,,,,,,,,,,,,,,,,,,,,0,3,3,3,1,,,,,,,,,
,,,,,,,,,,,,,,,fifth,6,21,Female,R,Donders,2021-07-06_16h58.17.072,ImageRatingTask_S1,2021.1.4,Win32,60.71645416,,,,,,,,,,,,,,,,,,,,,0,4,4,4,1,,,,,,,,,
,,,,,,,,,,,,,,,sixth,6,21,Female,R,Donders,2021-07-06_16h58.17.072,ImageRatingTask_S1,2021.1.4,Win32,60.71645416,,,,,,,,,,,,,,,,,,,,,0,5,5,5,1,,,,,,,,,
,,,,,,,,,,,,,,,seventh,6,21,Female,R,Donders,2021-07-06_16h58.17.072,ImageRatingTask_S1,2021.1.4,Win32,60.71645416,,,,,,,,,,,,,,,,,,,,,0,6,6,6,1,,,,,,,,,
,,,,,,,,,,,,,,,last,6,21,Female,R,Donders,2021-07-06_16h58.17.072,ImageRatingTask_S1,2021.1.4,Win32,60.71645416,,,,,,,,,,,,,,,,,,,,,0,7,7,7,1,,,,,,,,,
,,,,,,,,,,,,,,,,6,21,Female,R,Donders,2021-07-06_16h58.17.072,ImageRatingTask_S1,2021.1.4,Win32,60.71645416,,,,,,,,,,,,,,,,,,,,,,,,,,0,38,38,62,1,DreamStudyImages_rs1000x750g/Houses/IAPS5665_house.jpg,,,
,,,,,,,,,,,,,,,main,6,21,Female,R,Donders,2021-07-06_16h58.17.072,ImageRatingTask_S1,2021.1.4,Win32,60.71645416,,,,,,,,,,,3,5.1416,8,1.8258,7,3.6899,1,6.5461,3,3.8101,0,0,0,0,1,,,,,,,,,
,,,,,,,,,,,,,,,second,6,21,Female,R,Donders,2021-07-06_16h58.17.072,ImageRatingTask_S1,2021.1.4,Win32,60.71645416,,,,,,,,,,,,,,,,,,,,,0,1,1,1,1,,,,,,,,,
,,,,,,,,,,,,,,,third,6,21,Female,R,Donders,2021-07-06_16h58.17.072,ImageRatingTask_S1,2021.1.4,Win32,60.71645416,,,,,,,,,,,,,,,,,,,,,0,2,2,2,1,,,,,,,,,
,,,,,,,,,,,,,,,fourth,6,21,Female,R,Donders,2021-07-06_16h58.17.072,ImageRatingTask_S1,2021.1.4,Win32,60.71645416,,,,,,,,,,,,,,,,,,,,,0,3,3,3,1,,,,,,,,,
,,,,,,,,,,,,,,,fifth,6,21,Female,R,Donders,2021-07-06_16h58.17.072,ImageRatingTask_S1,2021.1.4,Win32,60.71645416,,,,,,,,,,,,,,,,,,,,,0,4,4,4,1,,,,,,,,,
,,,,,,,,,,,,,,,sixth,6,21,Female,R,Donders,2021-07-06_16h58.17.072,ImageRatingTask_S1,2021.1.4,Win32,60.71645416,,,,,,,,,,,,,,,,,,,,,0,5,5,5,1,,,,,,,,,
,,,,,,,,,,,,,,,seventh,6,21,Female,R,Donders,2021-07-06_16h58.17.072,ImageRatingTask_S1,2021.1.4,Win32,60.71645416,,,,,,,,,,,,,,,,,,,,,0,6,6,6,1,,,,,,,,,
,,,,,,,,,,,,,,,last,6,21,Female,R,Donders,2021-07-06_16h58.17.072,ImageRatingTask_S1,2021.1.4,Win32,60.71645416,,,,,,,,,,,,,,,,,,,,,0,7,7,7,1,,,,,,,,,
,,,,,,,,,,,,,,,,6,21,Female,R,Donders,2021-07-06_16h58.17.072,ImageRatingTask_S1,2021.1.4,Win32,60.71645416,,,,,,,,,,,,,,,,,,,,,,,,,,0,39,39,25,1,DreamStudyImages_rs1000x750g/Mammals/Animals_068_h.jpg,,,
,,,,,,,,,,,,,,,main,6,21,Female,R,Donders,2021-07-06_16h58.17.072,ImageRatingTask_S1,2021.1.4,Win32,60.71645416,,,,,,,,,,,4,9.2578,3,6.1451,7,4.0128,1,13.5276,7,1.3357,0,0,0,0,1,,,,,,,,,
,,,,,,,,,,,,,,,second,6,21,Female,R,Donders,2021-07-06_16h58.17.072,ImageRatingTask_S1,2021.1.4,Win32,60.71645416,,,,,,,,,,,,,,,,,,,,,0,1,1,1,1,,,,,,,,,
,,,,,,,,,,,,,,,third,6,21,Female,R,Donders,2021-07-06_16h58.17.072,ImageRatingTask_S1,2021.1.4,Win32,60.71645416,,,,,,,,,,,,,,,,,,,,,0,2,2,2,1,,,,,,,,,
,,,,,,,,,,,,,,,fourth,6,21,Female,R,Donders,2021-07-06_16h58.17.072,ImageRatingTask_S1,2021.1.4,Win32,60.71645416,,,,,,,,,,,,,,,,,,,,,0,3,3,3,1,,,,,,,,,
,,,,,,,,,,,,,,,fifth,6,21,Female,R,Donders,2021-07-06_16h58.17.072,ImageRatingTask_S1,2021.1.4,Win32,60.71645416,,,,,,,,,,,,,,,,,,,,,0,4,4,4,1,,,,,,,,,
,,,,,,,,,,,,,,,sixth,6,21,Female,R,Donders,2021-07-06_16h58.17.072,ImageRatingTask_S1,2021.1.4,Win32,60.71645416,,,,,,,,,,,,,,,,,,,,,0,5,5,5,1,,,,,,,,,
,,,,,,,,,,,,,,,seventh,6,21,Female,R,Donders,2021-07-06_16h58.17.072,ImageRatingTask_S1,2021.1.4,Win32,60.71645416,,,,,,,,,,,,,,,,,,,,,0,6,6,6,1,,,,,,,,,
,,,,,,,,,,,,,,,last,6,21,Female,R,Donders,2021-07-06_16h58.17.072,ImageRatingTask_S1,2021.1.4,Win32,60.71645416,,,,,,,,,,,,,,,,,,,,,0,7,7,7,1,,,,,,,,,
,,,,,,,,,,,,,,,,6,21,Female,R,Donders,2021-07-06_16h58.17.072,ImageRatingTask_S1,2021.1.4,Win32,60.71645416,,,,,,,,,,,,,,,,,,,,,,,,,,0,40,40,95,1,DreamStudyImages_rs1000x750g/Vehicles/NDPS40_carindust.jpg,,,
,,,,,,,,,,,,,,,main,6,21,Female,R,Donders,2021-07-06_16h58.17.072,ImageRatingTask_S1,2021.1.4,Win32,60.71645416,,,,,,,,,,,7,5.0936,3,2.3378,8,2.9367,1,10.1539,2,0.9398,0,0,0,0,1,,,,,,,,,
,,,,,,,,,,,,,,,second,6,21,Female,R,Donders,2021-07-06_16h58.17.072,ImageRatingTask_S1,2021.1.4,Win32,60.71645416,,,,,,,,,,,,,,,,,,,,,0,1,1,1,1,,,,,,,,,
,,,,,,,,,,,,,,,third,6,21,Female,R,Donders,2021-07-06_16h58.17.072,ImageRatingTask_S1,2021.1.4,Win32,60.71645416,,,,,,,,,,,,,,,,,,,,,0,2,2,2,1,,,,,,,,,
,,,,,,,,,,,,,,,fourth,6,21,Female,R,Donders,2021-07-06_16h58.17.072,ImageRatingTask_S1,2021.1.4,Win32,60.71645416,,,,,,,,,,,,,,,,,,,,,0,3,3,3,1,,,,,,,,,
,,,,,,,,,,,,,,,fifth,6,21,Female,R,Donders,2021-07-06_16h58.17.072,ImageRatingTask_S1,2021.1.4,Win32,60.71645416,,,,,,,,,,,,,,,,,,,,,0,4,4,4,1,,,,,,,,,
,,,,,,,,,,,,,,,sixth,6,21,Female,R,Donders,2021-07-06_16h58.17.072,ImageRatingTask_S1,2021.1.4,Win32,60.71645416,,,,,,,,,,,,,,,,,,,,,0,5,5,5,1,,,,,,,,,
,,,,,,,,,,,,,,,seventh,6,21,Female,R,Donders,2021-07-06_16h58.17.072,ImageRatingTask_S1,2021.1.4,Win32,60.71645416,,,,,,,,,,,,,,,,,,,,,0,6,6,6,1,,,,,,,,,
,,,,,,,,,,,,,,,last,6,21,Female,R,Donders,2021-07-06_16h58.17.072,ImageRatingTask_S1,2021.1.4,Win32,60.71645416,,,,,,,,,,,,,,,,,,,,,0,7,7,7,1,,,,,,,,,
,,,,,,,,,,,,,,,,6,21,Female,R,Donders,2021-07-06_16h58.17.072,ImageRatingTask_S1,2021.1.4,Win32,60.71645416,,,,,,,,,,,,,,,,,,,,,,,,,,0,41,41,4,1,DreamStudyImages_rs1000x750g/Children/Faces_124_h.jpg,,,
,,,,,,,,,,,,,,,main,6,21,Female,R,Donders,2021-07-06_16h58.17.072,ImageRatingTask_S1,2021.1.4,Win32,60.71645416,,,,,,,,,,,8,2.4155,3,1.49,6,2.2596,1,6.7407,3,2.7455,0,0,0,0,1,,,,,,,,,
,,,,,,,,,,,,,,,second,6,21,Female,R,Donders,2021-07-06_16h58.17.072,ImageRatingTask_S1,2021.1.4,Win32,60.71645416,,,,,,,,,,,,,,,,,,,,,0,1,1,1,1,,,,,,,,,
,,,,,,,,,,,,,,,third,6,21,Female,R,Donders,2021-07-06_16h58.17.072,ImageRatingTask_S1,2021.1.4,Win32,60.71645416,,,,,,,,,,,,,,,,,,,,,0,2,2,2,1,,,,,,,,,
,,,,,,,,,,,,,,,fourth,6,21,Female,R,Donders,2021-07-06_16h58.17.072,ImageRatingTask_S1,2021.1.4,Win32,60.71645416,,,,,,,,,,,,,,,,,,,,,0,3,3,3,1,,,,,,,,,
,,,,,,,,,,,,,,,fifth,6,21,Female,R,Donders,2021-07-06_16h58.17.072,ImageRatingTask_S1,2021.1.4,Win32,60.71645416,,,,,,,,,,,,,,,,,,,,,0,4,4,4,1,,,,,,,,,
,,,,,,,,,,,,,,,sixth,6,21,Female,R,Donders,2021-07-06_16h58.17.072,ImageRatingTask_S1,2021.1.4,Win32,60.71645416,,,,,,,,,,,,,,,,,,,,,0,5,5,5,1,,,,,,,,,
,,,,,,,,,,,,,,,seventh,6,21,Female,R,Donders,2021-07-06_16h58.17.072,ImageRatingTask_S1,2021.1.4,Win32,60.71645416,,,,,,,,,,,,,,,,,,,,,0,6,6,6,1,,,,,,,,,
,,,,,,,,,,,,,,,last,6,21,Female,R,Donders,2021-07-06_16h58.17.072,ImageRatingTask_S1,2021.1.4,Win32,60.71645416,,,,,,,,,,,,,,,,,,,,,0,7,7,7,1,,,,,,,,,
,,,,,,,,,,,,,,,,6,21,Female,R,Donders,2021-07-06_16h58.17.072,ImageRatingTask_S1,2021.1.4,Win32,60.71645416,,,,,,,,,,,,,,,,,,,,,,,,,,0,42,42,109,1,DreamStudyImages_rs1000x750g/Mammals/Animals_211_h.jpg,,,
,,,,,,,,,,,,,,,main,6,21,Female,R,Donders,2021-07-06_16h58.17.072,ImageRatingTask_S1,2021.1.4,Win32,60.71645416,,,,,,,,,,,4,2.6397,4,2.1915,7,1.7536,1,3.6032,5,1.4282,0,0,0,0,1,,,,,,,,,
,,,,,,,,,,,,,,,second,6,21,Female,R,Donders,2021-07-06_16h58.17.072,ImageRatingTask_S1,2021.1.4,Win32,60.71645416,,,,,,,,,,,,,,,,,,,,,0,1,1,1,1,,,,,,,,,
,,,,,,,,,,,,,,,third,6,21,Female,R,Donders,2021-07-06_16h58.17.072,ImageRatingTask_S1,2021.1.4,Win32,60.71645416,,,,,,,,,,,,,,,,,,,,,0,2,2,2,1,,,,,,,,,
,,,,,,,,,,,,,,,fourth,6,21,Female,R,Donders,2021-07-06_16h58.17.072,ImageRatingTask_S1,2021.1.4,Win32,60.71645416,,,,,,,,,,,,,,,,,,,,,0,3,3,3,1,,,,,,,,,
,,,,,,,,,,,,,,,fifth,6,21,Female,R,Donders,2021-07-06_16h58.17.072,ImageRatingTask_S1,2021.1.4,Win32,60.71645416,,,,,,,,,,,,,,,,,,,,,0,4,4,4,1,,,,,,,,,
,,,,,,,,,,,,,,,sixth,6,21,Female,R,Donders,2021-07-06_16h58.17.072,ImageRatingTask_S1,2021.1.4,Win32,60.71645416,,,,,,,,,,,,,,,,,,,,,0,5,5,5,1,,,,,,,,,
,,,,,,,,,,,,,,,seventh,6,21,Female,R,Donders,2021-07-06_16h58.17.072,ImageRatingTask_S1,2021.1.4,Win32,60.71645416,,,,,,,,,,,,,,,,,,,,,0,6,6,6,1,,,,,,,,,
,,,,,,,,,,,,,,,last,6,21,Female,R,Donders,2021-07-06_16h58.17.072,ImageRatingTask_S1,2021.1.4,Win32,60.71645416,,,,,,,,,,,,,,,,,,,,,0,7,7,7,1,,,,,,,,,
,,,,,,,,,,,,,,,,6,21,Female,R,Donders,2021-07-06_16h58.17.072,ImageRatingTask_S1,2021.1.4,Win32,60.71645416,,,,,,,,,,,,,,,,,,,,,,,,,,0,43,43,92,1,DreamStudyImages_rs1000x750g/Food/Objects_087_h.jpg,,,
,,,,,,,,,,,,,,,main,6,21,Female,R,Donders,2021-07-06_16h58.17.072,ImageRatingTask_S1,2021.1.4,Win32,60.71645416,,,,,,,,,,,5,5.0918,1,1.7695,6,2.1014,1,2.069,7,1.0089,0,0,0,0,1,,,,,,,,,
,,,,,,,,,,,,,,,second,6,21,Female,R,Donders,2021-07-06_16h58.17.072,ImageRatingTask_S1,2021.1.4,Win32,60.71645416,,,,,,,,,,,,,,,,,,,,,0,1,1,1,1,,,,,,,,,
,,,,,,,,,,,,,,,third,6,21,Female,R,Donders,2021-07-06_16h58.17.072,ImageRatingTask_S1,2021.1.4,Win32,60.71645416,,,,,,,,,,,,,,,,,,,,,0,2,2,2,1,,,,,,,,,
,,,,,,,,,,,,,,,fourth,6,21,Female,R,Donders,2021-07-06_16h58.17.072,ImageRatingTask_S1,2021.1.4,Win32,60.71645416,,,,,,,,,,,,,,,,,,,,,0,3,3,3,1,,,,,,,,,
,,,,,,,,,,,,,,,fifth,6,21,Female,R,Donders,2021-07-06_16h58.17.072,ImageRatingTask_S1,2021.1.4,Win32,60.71645416,,,,,,,,,,,,,,,,,,,,,0,4,4,4,1,,,,,,,,,
,,,,,,,,,,,,,,,sixth,6,21,Female,R,Donders,2021-07-06_16h58.17.072,ImageRatingTask_S1,2021.1.4,Win32,60.71645416,,,,,,,,,,,,,,,,,,,,,0,5,5,5,1,,,,,,,,,
,,,,,,,,,,,,,,,seventh,6,21,Female,R,Donders,2021-07-06_16h58.17.072,ImageRatingTask_S1,2021.1.4,Win32,60.71645416,,,,,,,,,,,,,,,,,,,,,0,6,6,6,1,,,,,,,,,
,,,,,,,,,,,,,,,last,6,21,Female,R,Donders,2021-07-06_16h58.17.072,ImageRatingTask_S1,2021.1.4,Win32,60.71645416,,,,,,,,,,,,,,,,,,,,,0,7,7,7,1,,,,,,,,,
,,,,,,,,,,,,,,,,6,21,Female,R,Donders,2021-07-06_16h58.17.072,ImageRatingTask_S1,2021.1.4,Win32,60.71645416,,,,,,,,,,,,,,,,,,,,,,,,,,0,44,44,35,1,DreamStudyImages_rs1000x750g/Vehicles/Objects_303_h.jpg,,,
,,,,,,,,,,,,,,,main,6,21,Female,R,Donders,2021-07-06_16h58.17.072,ImageRatingTask_S1,2021.1.4,Win32,60.71645416,,,,,,,,,,,2,7.2756,8,2.5541,4,2.2187,1,2.5852,7,1.2181,0,0,0,0,1,,,,,,,,,
,,,,,,,,,,,,,,,second,6,21,Female,R,Donders,2021-07-06_16h58.17.072,ImageRatingTask_S1,2021.1.4,Win32,60.71645416,,,,,,,,,,,,,,,,,,,,,0,1,1,1,1,,,,,,,,,
,,,,,,,,,,,,,,,third,6,21,Female,R,Donders,2021-07-06_16h58.17.072,ImageRatingTask_S1,2021.1.4,Win32,60.71645416,,,,,,,,,,,,,,,,,,,,,0,2,2,2,1,,,,,,,,,
,,,,,,,,,,,,,,,fourth,6,21,Female,R,Donders,2021-07-06_16h58.17.072,ImageRatingTask_S1,2021.1.4,Win32,60.71645416,,,,,,,,,,,,,,,,,,,,,0,3,3,3,1,,,,,,,,,
,,,,,,,,,,,,,,,fifth,6,21,Female,R,Donders,2021-07-06_16h58.17.072,ImageRatingTask_S1,2021.1.4,Win32,60.71645416,,,,,,,,,,,,,,,,,,,,,0,4,4,4,1,,,,,,,,,
,,,,,,,,,,,,,,,sixth,6,21,Female,R,Donders,2021-07-06_16h58.17.072,ImageRatingTask_S1,2021.1.4,Win32,60.71645416,,,,,,,,,,,,,,,,,,,,,0,5,5,5,1,,,,,,,,,
,,,,,,,,,,,,,,,seventh,6,21,Female,R,Donders,2021-07-06_16h58.17.072,ImageRatingTask_S1,2021.1.4,Win32,60.71645416,,,,,,,,,,,,,,,,,,,,,0,6,6,6,1,,,,,,,,,
,,,,,,,,,,,,,,,last,6,21,Female,R,Donders,2021-07-06_16h58.17.072,ImageRatingTask_S1,2021.1.4,Win32,60.71645416,,,,,,,,,,,,,,,,,,,,,0,7,7,7,1,,,,,,,,,
,,,,,,,,,,,,,,,,6,21,Female,R,Donders,2021-07-06_16h58.17.072,ImageRatingTask_S1,2021.1.4,Win32,60.71645416,,,,,,,,,,,,,,,,,,,,,,,,,,0,45,45,106,1,DreamStudyImages_rs1000x750g/Vehicles/IAPS9622_planecrash2.jpg,,,
,,,,,,,,,,,,,,,main,6,21,Female,R,Donders,2021-07-06_16h58.17.072,ImageRatingTask_S1,2021.1.4,Win32,60.71645416,,,,,,,,,,,8,2.3774,2,1.352,7,2.2602,1,2.3155,8,0.9382,0,0,0,0,1,,,,,,,,,
,,,,,,,,,,,,,,,second,6,21,Female,R,Donders,2021-07-06_16h58.17.072,ImageRatingTask_S1,2021.1.4,Win32,60.71645416,,,,,,,,,,,,,,,,,,,,,0,1,1,1,1,,,,,,,,,
,,,,,,,,,,,,,,,third,6,21,Female,R,Donders,2021-07-06_16h58.17.072,ImageRatingTask_S1,2021.1.4,Win32,60.71645416,,,,,,,,,,,,,,,,,,,,,0,2,2,2,1,,,,,,,,,
,,,,,,,,,,,,,,,fourth,6,21,Female,R,Donders,2021-07-06_16h58.17.072,ImageRatingTask_S1,2021.1.4,Win32,60.71645416,,,,,,,,,,,,,,,,,,,,,0,3,3,3,1,,,,,,,,,
,,,,,,,,,,,,,,,fifth,6,21,Female,R,Donders,2021-07-06_16h58.17.072,ImageRatingTask_S1,2021.1.4,Win32,60.71645416,,,,,,,,,,,,,,,,,,,,,0,4,4,4,1,,,,,,,,,
,,,,,,,,,,,,,,,sixth,6,21,Female,R,Donders,2021-07-06_16h58.17.072,ImageRatingTask_S1,2021.1.4,Win32,60.71645416,,,,,,,,,,,,,,,,,,,,,0,5,5,5,1,,,,,,,,,
,,,,,,,,,,,,,,,seventh,6,21,Female,R,Donders,2021-07-06_16h58.17.072,ImageRatingTask_S1,2021.1.4,Win32,60.71645416,,,,,,,,,,,,,,,,,,,,,0,6,6,6,1,,,,,,,,,
,,,,,,,,,,,,,,,last,6,21,Female,R,Donders,2021-07-06_16h58.17.072,ImageRatingTask_S1,2021.1.4,Win32,60.71645416,,,,,,,,,,,,,,,,,,,,,0,7,7,7,1,,,,,,,,,
,,,,,,,,,,,,,,,,6,21,Female,R,Donders,2021-07-06_16h58.17.072,ImageRatingTask_S1,2021.1.4,Win32,60.71645416,,,,,,,,,,,,,,,,,,,,,,,,,,0,46,46,137,1,DreamStudyImages_rs1000x750g/Water/Landscapes_165_h.jpg,,,
,,,,,,,,,,,,,,,main,6,21,Female,R,Donders,2021-07-06_16h58.17.072,ImageRatingTask_S1,2021.1.4,Win32,60.71645416,,,,,,,,,,,3,2.8309,7,1.6397,6,2.2821,0,4.1214,,,0,0,0,0,1,,,,,,,,,
,,,,,,,,,,,,,,,second,6,21,Female,R,Donders,2021-07-06_16h58.17.072,ImageRatingTask_S1,2021.1.4,Win32,60.71645416,,,,,,,,,,,,,,,,,,,,,0,1,1,1,1,,,,,,,,,
,,,,,,,,,,,,,,,third,6,21,Female,R,Donders,2021-07-06_16h58.17.072,ImageRatingTask_S1,2021.1.4,Win32,60.71645416,,,,,,,,,,,,,,,,,,,,,0,2,2,2,1,,,,,,,,,
,,,,,,,,,,,,,,,fourth,6,21,Female,R,Donders,2021-07-06_16h58.17.072,ImageRatingTask_S1,2021.1.4,Win32,60.71645416,,,,,,,,,,,,,,,,,,,,,0,3,3,3,1,,,,,,,,,
,,,,,,,,,,,,,,,fifth,6,21,Female,R,Donders,2021-07-06_16h58.17.072,ImageRatingTask_S1,2021.1.4,Win32,60.71645416,,,,,,,,,,,,,,,,,,,,,0,4,4,4,1,,,,,,,,,
,,,,,,,,,,,,,,,sixth,6,21,Female,R,Donders,2021-07-06_16h58.17.072,ImageRatingTask_S1,2021.1.4,Win32,60.71645416,,,,,,,,,,,,,,,,,,,,,0,5,5,5,1,,,,,,,,,
,,,,,,,,,,,,,,,seventh,6,21,Female,R,Donders,2021-07-06_16h58.17.072,ImageRatingTask_S1,2021.1.4,Win32,60.71645416,,,,,,,,,,,,,,,,,,,,,0,6,6,6,1,,,,,,,,,
,,,,,,,,,,,,,,,last,6,21,Female,R,Donders,2021-07-06_16h58.17.072,ImageRatingTask_S1,2021.1.4,Win32,60.71645416,,,,,,,,,,,,,,,,,,,,,0,7,7,7,1,,,,,,,,,
,,,,,,,,,,,,,,,,6,21,Female,R,Donders,2021-07-06_16h58.17.072,ImageRatingTask_S1,2021.1.4,Win32,60.71645416,,,,,,,,,,,,,,,,,,,,,,,,,,0,47,47,107,1,DreamStudyImages_rs1000x750g/Houses/Graveyard 4.jpg,,,
,,,,,,,,,,,,,,,main,6,21,Female,R,Donders,2021-07-06_16h58.17.072,ImageRatingTask_S1,2021.1.4,Win32,60.71645416,,,,,,,,,,,4,3.0777,8,2.1268,6,2.0085,1,2.7042,6,1.1317,0,0,0,0,1,,,,,,,,,
,,,,,,,,,,,,,,,second,6,21,Female,R,Donders,2021-07-06_16h58.17.072,ImageRatingTask_S1,2021.1.4,Win32,60.71645416,,,,,,,,,,,,,,,,,,,,,0,1,1,1,1,,,,,,,,,
,,,,,,,,,,,,,,,third,6,21,Female,R,Donders,2021-07-06_16h58.17.072,ImageRatingTask_S1,2021.1.4,Win32,60.71645416,,,,,,,,,,,,,,,,,,,,,0,2,2,2,1,,,,,,,,,
,,,,,,,,,,,,,,,fourth,6,21,Female,R,Donders,2021-07-06_16h58.17.072,ImageRatingTask_S1,2021.1.4,Win32,60.71645416,,,,,,,,,,,,,,,,,,,,,0,3,3,3,1,,,,,,,,,
,,,,,,,,,,,,,,,fifth,6,21,Female,R,Donders,2021-07-06_16h58.17.072,ImageRatingTask_S1,2021.1.4,Win32,60.71645416,,,,,,,,,,,,,,,,,,,,,0,4,4,4,1,,,,,,,,,
,,,,,,,,,,,,,,,sixth,6,21,Female,R,Donders,2021-07-06_16h58.17.072,ImageRatingTask_S1,2021.1.4,Win32,60.71645416,,,,,,,,,,,,,,,,,,,,,0,5,5,5,1,,,,,,,,,
,,,,,,,,,,,,,,,seventh,6,21,Female,R,Donders,2021-07-06_16h58.17.072,ImageRatingTask_S1,2021.1.4,Win32,60.71645416,,,,,,,,,,,,,,,,,,,,,0,6,6,6,1,,,,,,,,,
,,,,,,,,,,,,,,,last,6,21,Female,R,Donders,2021-07-06_16h58.17.072,ImageRatingTask_S1,2021.1.4,Win32,60.71645416,,,,,,,,,,,,,,,,,,,,,0,7,7,7,1,,,,,,,,,
,,,,,,,,,,,,,,,,6,21,Female,R,Donders,2021-07-06_16h58.17.072,ImageRatingTask_S1,2021.1.4,Win32,60.71645416,,,,,,,,,,,,,,,,,,,,,,,,,,0,48,48,142,1,DreamStudyImages_rs1000x750g/Houses/Objects_128_h.jpg,,,
,,,,,,,,,,,,,,,main,6,21,Female,R,Donders,2021-07-06_16h58.17.072,ImageRatingTask_S1,2021.1.4,Win32,60.71645416,,,,,,,,,,,5,7.1257,5,2.1744,7,1.8022,2,3.7488,2,1.9415,0,0,0,0,1,,,,,,,,,
,,,,,,,,,,,,,,,second,6,21,Female,R,Donders,2021-07-06_16h58.17.072,ImageRatingTask_S1,2021.1.4,Win32,60.71645416,,,,,,,,,,,,,,,,,,,8,1.2003,0,1,1,1,1,,,,,,,,,
,,,,,,,,,,,,,,,third,6,21,Female,R,Donders,2021-07-06_16h58.17.072,ImageRatingTask_S1,2021.1.4,Win32,60.71645416,,,,,,,,,,,,,,,,,,,,,0,2,2,2,1,,,,,,,,,
,,,,,,,,,,,,,,,fourth,6,21,Female,R,Donders,2021-07-06_16h58.17.072,ImageRatingTask_S1,2021.1.4,Win32,60.71645416,,,,,,,,,,,,,,,,,,,,,0,3,3,3,1,,,,,,,,,
,,,,,,,,,,,,,,,fifth,6,21,Female,R,Donders,2021-07-06_16h58.17.072,ImageRatingTask_S1,2021.1.4,Win32,60.71645416,,,,,,,,,,,,,,,,,,,,,0,4,4,4,1,,,,,,,,,
,,,,,,,,,,,,,,,sixth,6,21,Female,R,Donders,2021-07-06_16h58.17.072,ImageRatingTask_S1,2021.1.4,Win32,60.71645416,,,,,,,,,,,,,,,,,,,,,0,5,5,5,1,,,,,,,,,
,,,,,,,,,,,,,,,seventh,6,21,Female,R,Donders,2021-07-06_16h58.17.072,ImageRatingTask_S1,2021.1.4,Win32,60.71645416,,,,,,,,,,,,,,,,,,,,,0,6,6,6,1,,,,,,,,,
,,,,,,,,,,,,,,,last,6,21,Female,R,Donders,2021-07-06_16h58.17.072,ImageRatingTask_S1,2021.1.4,Win32,60.71645416,,,,,,,,,,,,,,,,,,,,,0,7,7,7,1,,,,,,,,,
,,,,,,,,,,,,,,,,6,21,Female,R,Donders,2021-07-06_16h58.17.072,ImageRatingTask_S1,2021.1.4,Win32,60.71645416,,,,,,,,,,,,,,,,,,,,,,,,,,0,49,49,29,1,DreamStudyImages_rs1000x750g/Children/Faces_008_h.jpg,,,
,,,,,,,,,,,,,,,main,6,21,Female,R,Donders,2021-07-06_16h58.17.072,ImageRatingTask_S1,2021.1.4,Win32,60.71645416,,,,,,,,,,,7,2.2193,2,1.4126,9,1.676,1,1.8992,5,1.043,0,0,0,0,1,,,,,,,,,
,,,,,,,,,,,,,,,second,6,21,Female,R,Donders,2021-07-06_16h58.17.072,ImageRatingTask_S1,2021.1.4,Win32,60.71645416,,,,,,,,,,,,,,,,,,,,,0,1,1,1,1,,,,,,,,,
,,,,,,,,,,,,,,,third,6,21,Female,R,Donders,2021-07-06_16h58.17.072,ImageRatingTask_S1,2021.1.4,Win32,60.71645416,,,,,,,,,,,,,,,,,,,,,0,2,2,2,1,,,,,,,,,
,,,,,,,,,,,,,,,fourth,6,21,Female,R,Donders,2021-07-06_16h58.17.072,ImageRatingTask_S1,2021.1.4,Win32,60.71645416,,,,,,,,,,,,,,,,,,,,,0,3,3,3,1,,,,,,,,,
,,,,,,,,,,,,,,,fifth,6,21,Female,R,Donders,2021-07-06_16h58.17.072,ImageRatingTask_S1,2021.1.4,Win32,60.71645416,,,,,,,,,,,,,,,,,,,,,0,4,4,4,1,,,,,,,,,
,,,,,,,,,,,,,,,sixth,6,21,Female,R,Donders,2021-07-06_16h58.17.072,ImageRatingTask_S1,2021.1.4,Win32,60.71645416,,,,,,,,,,,,,,,,,,,,,0,5,5,5,1,,,,,,,,,
,,,,,,,,,,,,,,,seventh,6,21,Female,R,Donders,2021-07-06_16h58.17.072,ImageRatingTask_S1,2021.1.4,Win32,60.71645416,,,,,,,,,,,,,,,,,,,,,0,6,6,6,1,,,,,,,,,
,,,,,,,,,,,,,,,last,6,21,Female,R,Donders,2021-07-06_16h58.17.072,ImageRatingTask_S1,2021.1.4,Win32,60.71645416,,,,,,,,,,,,,,,,,,,,,0,7,7,7,1,,,,,,,,,
,,,,,,,,,,,,,,,,6,21,Female,R,Donders,2021-07-06_16h58.17.072,ImageRatingTask_S1,2021.1.4,Win32,60.71645416,,,,,,,,,,,,,,,,,,,,,,,,,,0,50,50,112,1,DreamStudyImages_rs1000x750g/Food/Objects_048_h.jpg,,,
,,,,,,,,,,,,,,,main,6,21,Female,R,Donders,2021-07-06_16h58.17.072,ImageRatingTask_S1,2021.1.4,Win32,60.71645416,,,,,,,,,,,7,6.2888,1,1.5001,9,2.3527,1,2.1184,6,1.0223,0,0,0,0,1,,,,,,,,,
,,,,,,,,,,,,,,,second,6,21,Female,R,Donders,2021-07-06_16h58.17.072,ImageRatingTask_S1,2021.1.4,Win32,60.71645416,,,,,,,,,,,,,,,,,,,,,0,1,1,1,1,,,,,,,,,
,,,,,,,,,,,,,,,third,6,21,Female,R,Donders,2021-07-06_16h58.17.072,ImageRatingTask_S1,2021.1.4,Win32,60.71645416,,,,,,,,,,,,,,,,,,,,,0,2,2,2,1,,,,,,,,,
,,,,,,,,,,,,,,,fourth,6,21,Female,R,Donders,2021-07-06_16h58.17.072,ImageRatingTask_S1,2021.1.4,Win32,60.71645416,,,,,,,,,,,,,,,,,,,,,0,3,3,3,1,,,,,,,,,
,,,,,,,,,,,,,,,fifth,6,21,Female,R,Donders,2021-07-06_16h58.17.072,ImageRatingTask_S1,2021.1.4,Win32,60.71645416,,,,,,,,,,,,,,,,,,,,,0,4,4,4,1,,,,,,,,,
,,,,,,,,,,,,,,,sixth,6,21,Female,R,Donders,2021-07-06_16h58.17.072,ImageRatingTask_S1,2021.1.4,Win32,60.71645416,,,,,,,,,,,,,,,,,,,,,0,5,5,5,1,,,,,,,,,
,,,,,,,,,,,,,,,seventh,6,21,Female,R,Donders,2021-07-06_16h58.17.072,ImageRatingTask_S1,2021.1.4,Win32,60.71645416,,,,,,,,,,,,,,,,,,,,,0,6,6,6,1,,,,,,,,,
,,,,,,,,,,,,,,,last,6,21,Female,R,Donders,2021-07-06_16h58.17.072,ImageRatingTask_S1,2021.1.4,Win32,60.71645416,,,,,,,,,,,,,,,,,,,,,0,7,7,7,1,,,,,,,,,
,,,,,,,,,,,,,,,,6,21,Female,R,Donders,2021-07-06_16h58.17.072,ImageRatingTask_S1,2021.1.4,Win32,60.71645416,,,,,,,,,,,,,,,,,,,,,,,,,,0,51,51,11,1,DreamStudyImages_rs1000x750g/Houses/Landscapes_094_h.jpg,,,
,,,,,,,,,,,,,,,main,6,21,Female,R,Donders,2021-07-06_16h58.17.072,ImageRatingTask_S1,2021.1.4,Win32,60.71645416,,,,,,,,,,,4,3.6733,7,1.9443,6,2.1695,1,1.4892,2,1.0082,0,0,0,0,1,,,,,,,,,
,,,,,,,,,,,,,,,second,6,21,Female,R,Donders,2021-07-06_16h58.17.072,ImageRatingTask_S1,2021.1.4,Win32,60.71645416,,,,,,,,,,,,,,,,,,,,,0,1,1,1,1,,,,,,,,,
,,,,,,,,,,,,,,,third,6,21,Female,R,Donders,2021-07-06_16h58.17.072,ImageRatingTask_S1,2021.1.4,Win32,60.71645416,,,,,,,,,,,,,,,,,,,,,0,2,2,2,1,,,,,,,,,
,,,,,,,,,,,,,,,fourth,6,21,Female,R,Donders,2021-07-06_16h58.17.072,ImageRatingTask_S1,2021.1.4,Win32,60.71645416,,,,,,,,,,,,,,,,,,,,,0,3,3,3,1,,,,,,,,,
,,,,,,,,,,,,,,,fifth,6,21,Female,R,Donders,2021-07-06_16h58.17.072,ImageRatingTask_S1,2021.1.4,Win32,60.71645416,,,,,,,,,,,,,,,,,,,,,0,4,4,4,1,,,,,,,,,
,,,,,,,,,,,,,,,sixth,6,21,Female,R,Donders,2021-07-06_16h58.17.072,ImageRatingTask_S1,2021.1.4,Win32,60.71645416,,,,,,,,,,,,,,,,,,,,,0,5,5,5,1,,,,,,,,,
,,,,,,,,,,,,,,,seventh,6,21,Female,R,Donders,2021-07-06_16h58.17.072,ImageRatingTask_S1,2021.1.4,Win32,60.71645416,,,,,,,,,,,,,,,,,,,,,0,6,6,6,1,,,,,,,,,
,,,,,,,,,,,,,,,last,6,21,Female,R,Donders,2021-07-06_16h58.17.072,ImageRatingTask_S1,2021.1.4,Win32,60.71645416,,,,,,,,,,,,,,,,,,,,,0,7,7,7,1,,,,,,,,,
,,,,,,,,,,,,,,,,6,21,Female,R,Donders,2021-07-06_16h58.17.072,ImageRatingTask_S1,2021.1.4,Win32,60.71645416,,,,,,,,,,,,,,,,,,,,,,,,,,0,52,52,17,1,DreamStudyImages_rs1000x750g/Children/IAPS2810_boy11.jpg,,,
,,,,,,,,,,,,,,,main,6,21,Female,R,Donders,2021-07-06_16h58.17.072,ImageRatingTask_S1,2021.1.4,Win32,60.71645416,,,,,,,,,,,7,4.1117,3,2.3419,7,2.075,1,2.1299,3,0.8787,0,0,0,0,1,,,,,,,,,
,,,,,,,,,,,,,,,second,6,21,Female,R,Donders,2021-07-06_16h58.17.072,ImageRatingTask_S1,2021.1.4,Win32,60.71645416,,,,,,,,,,,,,,,,,,,,,0,1,1,1,1,,,,,,,,,
,,,,,,,,,,,,,,,third,6,21,Female,R,Donders,2021-07-06_16h58.17.072,ImageRatingTask_S1,2021.1.4,Win32,60.71645416,,,,,,,,,,,,,,,,,,,,,0,2,2,2,1,,,,,,,,,
,,,,,,,,,,,,,,,fourth,6,21,Female,R,Donders,2021-07-06_16h58.17.072,ImageRatingTask_S1,2021.1.4,Win32,60.71645416,,,,,,,,,,,,,,,,,,,,,0,3,3,3,1,,,,,,,,,
,,,,,,,,,,,,,,,fifth,6,21,Female,R,Donders,2021-07-06_16h58.17.072,ImageRatingTask_S1,2021.1.4,Win32,60.71645416,,,,,,,,,,,,,,,,,,,,,0,4,4,4,1,,,,,,,,,
,,,,,,,,,,,,,,,sixth,6,21,Female,R,Donders,2021-07-06_16h58.17.072,ImageRatingTask_S1,2021.1.4,Win32,60.71645416,,,,,,,,,,,,,,,,,,,,,0,5,5,5,1,,,,,,,,,
,,,,,,,,,,,,,,,seventh,6,21,Female,R,Donders,2021-07-06_16h58.17.072,ImageRatingTask_S1,2021.1.4,Win32,60.71645416,,,,,,,,,,,,,,,,,,,,,0,6,6,6,1,,,,,,,,,
,,,,,,,,,,,,,,,last,6,21,Female,R,Donders,2021-07-06_16h58.17.072,ImageRatingTask_S1,2021.1.4,Win32,60.71645416,,,,,,,,,,,,,,,,,,,,,0,7,7,7,1,,,,,,,,,
,,,,,,,,,,,,,,,,6,21,Female,R,Donders,2021-07-06_16h58.17.072,ImageRatingTask_S1,2021.1.4,Win32,60.71645416,,,,,,,,,,,,,,,,,,,,,,,,,,0,53,53,123,1,DreamStudyImages_rs1000x750g/Mammals/Dog 25.jpg,,,
,,,,,,,,,,,,,,,main,6,21,Female,R,Donders,2021-07-06_16h58.17.072,ImageRatingTask_S1,2021.1.4,Win32,60.71645416,,,,,,,,,,,8,1.9476,4,2.2956,7,2.5458,1,1.9908,3,1.4883,0,0,0,0,1,,,,,,,,,
,,,,,,,,,,,,,,,second,6,21,Female,R,Donders,2021-07-06_16h58.17.072,ImageRatingTask_S1,2021.1.4,Win32,60.71645416,,,,,,,,,,,,,,,,,,,,,0,1,1,1,1,,,,,,,,,
,,,,,,,,,,,,,,,third,6,21,Female,R,Donders,2021-07-06_16h58.17.072,ImageRatingTask_S1,2021.1.4,Win32,60.71645416,,,,,,,,,,,,,,,,,,,,,0,2,2,2,1,,,,,,,,,
,,,,,,,,,,,,,,,fourth,6,21,Female,R,Donders,2021-07-06_16h58.17.072,ImageRatingTask_S1,2021.1.4,Win32,60.71645416,,,,,,,,,,,,,,,,,,,,,0,3,3,3,1,,,,,,,,,
,,,,,,,,,,,,,,,fifth,6,21,Female,R,Donders,2021-07-06_16h58.17.072,ImageRatingTask_S1,2021.1.4,Win32,60.71645416,,,,,,,,,,,,,,,,,,,,,0,4,4,4,1,,,,,,,,,
,,,,,,,,,,,,,,,sixth,6,21,Female,R,Donders,2021-07-06_16h58.17.072,ImageRatingTask_S1,2021.1.4,Win32,60.71645416,,,,,,,,,,,,,,,,,,,,,0,5,5,5,1,,,,,,,,,
,,,,,,,,,,,,,,,seventh,6,21,Female,R,Donders,2021-07-06_16h58.17.072,ImageRatingTask_S1,2021.1.4,Win32,60.71645416,,,,,,,,,,,,,,,,,,,,,0,6,6,6,1,,,,,,,,,
,,,,,,,,,,,,,,,last,6,21,Female,R,Donders,2021-07-06_16h58.17.072,ImageRatingTask_S1,2021.1.4,Win32,60.71645416,,,,,,,,,,,,,,,,,,,,,0,7,7,7,1,,,,,,,,,
,,,,,,,,,,,,,,,,6,21,Female,R,Donders,2021-07-06_16h58.17.072,ImageRatingTask_S1,2021.1.4,Win32,60.71645416,,,,,,,,,,,,,,,,,,,,,,,,,,0,54,54,101,1,DreamStudyImages_rs1000x750g/Mammals/Animals_083_h.jpg,,,
,,,,,,,,,,,,,,,main,6,21,Female,R,Donders,2021-07-06_16h58.17.072,ImageRatingTask_S1,2021.1.4,Win32,60.71645416,,,,,,,,,,,7,2.4099,5,1.8812,6,2.7344,1,3.0744,7,1.1004,0,0,0,0,1,,,,,,,,,
,,,,,,,,,,,,,,,second,6,21,Female,R,Donders,2021-07-06_16h58.17.072,ImageRatingTask_S1,2021.1.4,Win32,60.71645416,,,,,,,,,,,,,,,,,,,,,0,1,1,1,1,,,,,,,,,
,,,,,,,,,,,,,,,third,6,21,Female,R,Donders,2021-07-06_16h58.17.072,ImageRatingTask_S1,2021.1.4,Win32,60.71645416,,,,,,,,,,,,,,,,,,,,,0,2,2,2,1,,,,,,,,,
,,,,,,,,,,,,,,,fourth,6,21,Female,R,Donders,2021-07-06_16h58.17.072,ImageRatingTask_S1,2021.1.4,Win32,60.71645416,,,,,,,,,,,,,,,,,,,,,0,3,3,3,1,,,,,,,,,
,,,,,,,,,,,,,,,fifth,6,21,Female,R,Donders,2021-07-06_16h58.17.072,ImageRatingTask_S1,2021.1.4,Win32,60.71645416,,,,,,,,,,,,,,,,,,,,,0,4,4,4,1,,,,,,,,,
,,,,,,,,,,,,,,,sixth,6,21,Female,R,Donders,2021-07-06_16h58.17.072,ImageRatingTask_S1,2021.1.4,Win32,60.71645416,,,,,,,,,,,,,,,,,,,,,0,5,5,5,1,,,,,,,,,
,,,,,,,,,,,,,,,seventh,6,21,Female,R,Donders,2021-07-06_16h58.17.072,ImageRatingTask_S1,2021.1.4,Win32,60.71645416,,,,,,,,,,,,,,,,,,,,,0,6,6,6,1,,,,,,,,,
,,,,,,,,,,,,,,,last,6,21,Female,R,Donders,2021-07-06_16h58.17.072,ImageRatingTask_S1,2021.1.4,Win32,60.71645416,,,,,,,,,,,,,,,,,,,,,0,7,7,7,1,,,,,,,,,
,,,,,,,,,,,,,,,,6,21,Female,R,Donders,2021-07-06_16h58.17.072,ImageRatingTask_S1,2021.1.4,Win32,60.71645416,,,,,,,,,,,,,,,,,,,,,,,,,,0,55,55,10,1,DreamStudyImages_rs1000x750g/Vehicles/Objects_300_h.jpg,,,
,,,,,,,,,,,,,,,main,6,21,Female,R,Donders,2021-07-06_16h58.17.072,ImageRatingTask_S1,2021.1.4,Win32,60.71645416,,,,,,,,,,,7,2.7456,2,1.4373,6,2.4898,1,1.4123,3,0.9503,0,0,0,0,1,,,,,,,,,
,,,,,,,,,,,,,,,second,6,21,Female,R,Donders,2021-07-06_16h58.17.072,ImageRatingTask_S1,2021.1.4,Win32,60.71645416,,,,,,,,,,,,,,,,,,,,,0,1,1,1,1,,,,,,,,,
,,,,,,,,,,,,,,,third,6,21,Female,R,Donders,2021-07-06_16h58.17.072,ImageRatingTask_S1,2021.1.4,Win32,60.71645416,,,,,,,,,,,,,,,,,,,,,0,2,2,2,1,,,,,,,,,
,,,,,,,,,,,,,,,fourth,6,21,Female,R,Donders,2021-07-06_16h58.17.072,ImageRatingTask_S1,2021.1.4,Win32,60.71645416,,,,,,,,,,,,,,,,,,,,,0,3,3,3,1,,,,,,,,,
,,,,,,,,,,,,,,,fifth,6,21,Female,R,Donders,2021-07-06_16h58.17.072,ImageRatingTask_S1,2021.1.4,Win32,60.71645416,,,,,,,,,,,,,,,,,,,,,0,4,4,4,1,,,,,,,,,
,,,,,,,,,,,,,,,sixth,6,21,Female,R,Donders,2021-07-06_16h58.17.072,ImageRatingTask_S1,2021.1.4,Win32,60.71645416,,,,,,,,,,,,,,,,,,,,,0,5,5,5,1,,,,,,,,,
,,,,,,,,,,,,,,,seventh,6,21,Female,R,Donders,2021-07-06_16h58.17.072,ImageRatingTask_S1,2021.1.4,Win32,60.71645416,,,,,,,,,,,,,,,,,,,,,0,6,6,6,1,,,,,,,,,
,,,,,,,,,,,,,,,last,6,21,Female,R,Donders,2021-07-06_16h58.17.072,ImageRatingTask_S1,2021.1.4,Win32,60.71645416,,,,,,,,,,,,,,,,,,,,,0,7,7,7,1,,,,,,,,,
,,,,,,,,,,,,,,,,6,21,Female,R,Donders,2021-07-06_16h58.17.072,ImageRatingTask_S1,2021.1.4,Win32,60.71645416,,,,,,,,,,,,,,,,,,,,,,,,,,0,56,56,96,1,DreamStudyImages_rs1000x750g/Mammals/Gorrila 1.jpg,,,
,,,,,,,,,,,,,,,main,6,21,Female,R,Donders,2021-07-06_16h58.17.072,ImageRatingTask_S1,2021.1.4,Win32,60.71645416,,,,,,,,,,,8,3.2953,4,2.2181,7,3.723,1,1.6042,5,1.0061,0,0,0,0,1,,,,,,,,,
,,,,,,,,,,,,,,,second,6,21,Female,R,Donders,2021-07-06_16h58.17.072,ImageRatingTask_S1,2021.1.4,Win32,60.71645416,,,,,,,,,,,,,,,,,,,,,0,1,1,1,1,,,,,,,,,
,,,,,,,,,,,,,,,third,6,21,Female,R,Donders,2021-07-06_16h58.17.072,ImageRatingTask_S1,2021.1.4,Win32,60.71645416,,,,,,,,,,,,,,,,,,,,,0,2,2,2,1,,,,,,,,,
,,,,,,,,,,,,,,,fourth,6,21,Female,R,Donders,2021-07-06_16h58.17.072,ImageRatingTask_S1,2021.1.4,Win32,60.71645416,,,,,,,,,,,,,,,,,,,,,0,3,3,3,1,,,,,,,,,
,,,,,,,,,,,,,,,fifth,6,21,Female,R,Donders,2021-07-06_16h58.17.072,ImageRatingTask_S1,2021.1.4,Win32,60.71645416,,,,,,,,,,,,,,,,,,,,,0,4,4,4,1,,,,,,,,,
,,,,,,,,,,,,,,,sixth,6,21,Female,R,Donders,2021-07-06_16h58.17.072,ImageRatingTask_S1,2021.1.4,Win32,60.71645416,,,,,,,,,,,,,,,,,,,,,0,5,5,5,1,,,,,,,,,
,,,,,,,,,,,,,,,seventh,6,21,Female,R,Donders,2021-07-06_16h58.17.072,ImageRatingTask_S1,2021.1.4,Win32,60.71645416,,,,,,,,,,,,,,,,,,,,,0,6,6,6,1,,,,,,,,,
,,,,,,,,,,,,,,,last,6,21,Female,R,Donders,2021-07-06_16h58.17.072,ImageRatingTask_S1,2021.1.4,Win32,60.71645416,,,,,,,,,,,,,,,,,,,,,0,7,7,7,1,,,,,,,,,
,,,,,,,,,,,,,,,,6,21,Female,R,Donders,2021-07-06_16h58.17.072,ImageRatingTask_S1,2021.1.4,Win32,60.71645416,,,,,,,,,,,,,,,,,,,,,,,,,,0,57,57,150,1,DreamStudyImages_rs1000x750g/Food/Objects_037_h.jpg,,,
,,,,,,,,,,,,,,,main,6,21,Female,R,Donders,2021-07-06_16h58.17.072,ImageRatingTask_S1,2021.1.4,Win32,60.71645416,,,,,,,,,,,3,3.2845,8,1.5748,7,1.8976,2,8.398,5,1.3003,0,0,0,0,1,,,,,,,,,
,,,,,,,,,,,,,,,second,6,21,Female,R,Donders,2021-07-06_16h58.17.072,ImageRatingTask_S1,2021.1.4,Win32,60.71645416,,,,,,,,,,,,,,,,,,,8,1.1848,0,1,1,1,1,,,,,,,,,
,,,,,,,,,,,,,,,third,6,21,Female,R,Donders,2021-07-06_16h58.17.072,ImageRatingTask_S1,2021.1.4,Win32,60.71645416,,,,,,,,,,,,,,,,,,,,,0,2,2,2,1,,,,,,,,,
,,,,,,,,,,,,,,,fourth,6,21,Female,R,Donders,2021-07-06_16h58.17.072,ImageRatingTask_S1,2021.1.4,Win32,60.71645416,,,,,,,,,,,,,,,,,,,,,0,3,3,3,1,,,,,,,,,
,,,,,,,,,,,,,,,fifth,6,21,Female,R,Donders,2021-07-06_16h58.17.072,ImageRatingTask_S1,2021.1.4,Win32,60.71645416,,,,,,,,,,,,,,,,,,,,,0,4,4,4,1,,,,,,,,,
,,,,,,,,,,,,,,,sixth,6,21,Female,R,Donders,2021-07-06_16h58.17.072,ImageRatingTask_S1,2021.1.4,Win32,60.71645416,,,,,,,,,,,,,,,,,,,,,0,5,5,5,1,,,,,,,,,
,,,,,,,,,,,,,,,seventh,6,21,Female,R,Donders,2021-07-06_16h58.17.072,ImageRatingTask_S1,2021.1.4,Win32,60.71645416,,,,,,,,,,,,,,,,,,,,,0,6,6,6,1,,,,,,,,,
,,,,,,,,,,,,,,,last,6,21,Female,R,Donders,2021-07-06_16h58.17.072,ImageRatingTask_S1,2021.1.4,Win32,60.71645416,,,,,,,,,,,,,,,,,,,,,0,7,7,7,1,,,,,,,,,
,,,,,,,,,,,,,,,,6,21,Female,R,Donders,2021-07-06_16h58.17.072,ImageRatingTask_S1,2021.1.4,Win32,60.71645416,,,,,,,,,,,,,,,,,,,,,,,,,,0,58,58,129,1,DreamStudyImages_rs1000x750g/Food/food_neg_3bis.jpg,,,
,,,,,,,,,,,,,,,main,6,21,Female,R,Donders,2021-07-06_16h58.17.072,ImageRatingTask_S1,2021.1.4,Win32,60.71645416,,,,,,,,,,,5,4.2789,6,1.9443,7,2.2079,2,2.31,7,3.4644,0,0,0,0,1,,,,,,,,,
,,,,,,,,,,,,,,,second,6,21,Female,R,Donders,2021-07-06_16h58.17.072,ImageRatingTask_S1,2021.1.4,Win32,60.71645416,,,,,,,,,,,,,,,,,,,8,1.068,0,1,1,1,1,,,,,,,,,
,,,,,,,,,,,,,,,third,6,21,Female,R,Donders,2021-07-06_16h58.17.072,ImageRatingTask_S1,2021.1.4,Win32,60.71645416,,,,,,,,,,,,,,,,,,,,,0,2,2,2,1,,,,,,,,,
,,,,,,,,,,,,,,,fourth,6,21,Female,R,Donders,2021-07-06_16h58.17.072,ImageRatingTask_S1,2021.1.4,Win32,60.71645416,,,,,,,,,,,,,,,,,,,,,0,3,3,3,1,,,,,,,,,
,,,,,,,,,,,,,,,fifth,6,21,Female,R,Donders,2021-07-06_16h58.17.072,ImageRatingTask_S1,2021.1.4,Win32,60.71645416,,,,,,,,,,,,,,,,,,,,,0,4,4,4,1,,,,,,,,,
,,,,,,,,,,,,,,,sixth,6,21,Female,R,Donders,2021-07-06_16h58.17.072,ImageRatingTask_S1,2021.1.4,Win32,60.71645416,,,,,,,,,,,,,,,,,,,,,0,5,5,5,1,,,,,,,,,
,,,,,,,,,,,,,,,seventh,6,21,Female,R,Donders,2021-07-06_16h58.17.072,ImageRatingTask_S1,2021.1.4,Win32,60.71645416,,,,,,,,,,,,,,,,,,,,,0,6,6,6,1,,,,,,,,,
,,,,,,,,,,,,,,,last,6,21,Female,R,Donders,2021-07-06_16h58.17.072,ImageRatingTask_S1,2021.1.4,Win32,60.71645416,,,,,,,,,,,,,,,,,,,,,0,7,7,7,1,,,,,,,,,
,,,,,,,,,,,,,,,,6,21,Female,R,Donders,2021-07-06_16h58.17.072,ImageRatingTask_S1,2021.1.4,Win32,60.71645416,,,,,,,,,,,,,,,,,,,,,,,,,,0,59,59,31,1,DreamStudyImages_rs1000x750g/Vehicles/Objects_284_h.jpg,,,
,,,,,,,,,,,,,,,main,6,21,Female,R,Donders,2021-07-06_16h58.17.072,ImageRatingTask_S1,2021.1.4,Win32,60.71645416,,,,,,,,,,,7,2.2569,2,1.4496,9,1.9608,1,3.5401,8,0.9342,0,0,0,0,1,,,,,,,,,
,,,,,,,,,,,,,,,second,6,21,Female,R,Donders,2021-07-06_16h58.17.072,ImageRatingTask_S1,2021.1.4,Win32,60.71645416,,,,,,,,,,,,,,,,,,,,,0,1,1,1,1,,,,,,,,,
,,,,,,,,,,,,,,,third,6,21,Female,R,Donders,2021-07-06_16h58.17.072,ImageRatingTask_S1,2021.1.4,Win32,60.71645416,,,,,,,,,,,,,,,,,,,,,0,2,2,2,1,,,,,,,,,
,,,,,,,,,,,,,,,fourth,6,21,Female,R,Donders,2021-07-06_16h58.17.072,ImageRatingTask_S1,2021.1.4,Win32,60.71645416,,,,,,,,,,,,,,,,,,,,,0,3,3,3,1,,,,,,,,,
,,,,,,,,,,,,,,,fifth,6,21,Female,R,Donders,2021-07-06_16h58.17.072,ImageRatingTask_S1,2021.1.4,Win32,60.71645416,,,,,,,,,,,,,,,,,,,,,0,4,4,4,1,,,,,,,,,
,,,,,,,,,,,,,,,sixth,6,21,Female,R,Donders,2021-07-06_16h58.17.072,ImageRatingTask_S1,2021.1.4,Win32,60.71645416,,,,,,,,,,,,,,,,,,,,,0,5,5,5,1,,,,,,,,,
,,,,,,,,,,,,,,,seventh,6,21,Female,R,Donders,2021-07-06_16h58.17.072,ImageRatingTask_S1,2021.1.4,Win32,60.71645416,,,,,,,,,,,,,,,,,,,,,0,6,6,6,1,,,,,,,,,
,,,,,,,,,,,,,,,last,6,21,Female,R,Donders,2021-07-06_16h58.17.072,ImageRatingTask_S1,2021.1.4,Win32,60.71645416,,,,,,,,,,,,,,,,,,,,,0,7,7,7,1,,,,,,,,,
,,,,,,,,,,,,,,,,6,21,Female,R,Donders,2021-07-06_16h58.17.072,ImageRatingTask_S1,2021.1.4,Win32,60.71645416,,,,,,,,,,,,,,,,,,,,,,,,,,0,60,60,108,1,DreamStudyImages_rs1000x750g/Water/Landscapes_104_h.jpg,,,
,,,,,,,,,,,,,,,main,6,21,Female,R,Donders,2021-07-06_16h58.17.072,ImageRatingTask_S1,2021.1.4,Win32,60.71645416,,,,,,,,,,,6,2.3918,1,1.4763,6,2.2723,1,1.6821,8,0.9034,0,0,0,0,1,,,,,,,,,
,,,,,,,,,,,,,,,second,6,21,Female,R,Donders,2021-07-06_16h58.17.072,ImageRatingTask_S1,2021.1.4,Win32,60.71645416,,,,,,,,,,,,,,,,,,,,,0,1,1,1,1,,,,,,,,,
,,,,,,,,,,,,,,,third,6,21,Female,R,Donders,2021-07-06_16h58.17.072,ImageRatingTask_S1,2021.1.4,Win32,60.71645416,,,,,,,,,,,,,,,,,,,,,0,2,2,2,1,,,,,,,,,
,,,,,,,,,,,,,,,fourth,6,21,Female,R,Donders,2021-07-06_16h58.17.072,ImageRatingTask_S1,2021.1.4,Win32,60.71645416,,,,,,,,,,,,,,,,,,,,,0,3,3,3,1,,,,,,,,,
,,,,,,,,,,,,,,,fifth,6,21,Female,R,Donders,2021-07-06_16h58.17.072,ImageRatingTask_S1,2021.1.4,Win32,60.71645416,,,,,,,,,,,,,,,,,,,,,0,4,4,4,1,,,,,,,,,
,,,,,,,,,,,,,,,sixth,6,21,Female,R,Donders,2021-07-06_16h58.17.072,ImageRatingTask_S1,2021.1.4,Win32,60.71645416,,,,,,,,,,,,,,,,,,,,,0,5,5,5,1,,,,,,,,,
,,,,,,,,,,,,,,,seventh,6,21,Female,R,Donders,2021-07-06_16h58.17.072,ImageRatingTask_S1,2021.1.4,Win32,60.71645416,,,,,,,,,,,,,,,,,,,,,0,6,6,6,1,,,,,,,,,
,,,,,,,,,,,,,,,last,6,21,Female,R,Donders,2021-07-06_16h58.17.072,ImageRatingTask_S1,2021.1.4,Win32,60.71645416,,,,,,,,,,,,,,,,,,,,,0,7,7,7,1,,,,,,,,,
