slider_pre.response,slider_pre.rt,key_val.keys,key_val.rt,key_aro.keys,key_aro.rt,key_qual.keys,key_qual.rt,key_ncat.keys,key_ncat.rt,key_cats.keys,key_cats.rt,ncat_order.thisRepN,ncat_order.thisTrialN,ncat_order.thisN,ncat_order.thisIndex,ncat_order.ran,cond_cat,participant,age,gender,handedness (L/R),site (IMT/Donders),date,expName,psychopyVersion,OS,frameRate,img_trials.thisRepN,img_trials.thisTrialN,img_trials.thisN,img_trials.thisIndex,img_trials.ran,filename,slider_post.response,slider_post.rt,textbox_openfb.text
7,9.3583,8,6.1943,4,1.5533,8,1.8147,1,1.4515,8,1.2195,0,0,0,0,1,main,6,21,Female,R,Donders,2021-07-10_08h36.10.282,ImageRatingTask_S4,2021.1.4,Win32,60.2300789,,,,,,,,,
,,,,,,,,,,,,0,1,1,1,1,second,6,21,Female,R,Donders,2021-07-10_08h36.10.282,ImageRatingTask_S4,2021.1.4,Win32,60.2300789,,,,,,,,,
,,,,,,,,,,,,0,2,2,2,1,third,6,21,Female,R,Donders,2021-07-10_08h36.10.282,ImageRatingTask_S4,2021.1.4,Win32,60.2300789,,,,,,,,,
,,,,,,,,,,,,0,3,3,3,1,fourth,6,21,Female,R,Donders,2021-07-10_08h36.10.282,ImageRatingTask_S4,2021.1.4,Win32,60.2300789,,,,,,,,,
,,,,,,,,,,,,0,4,4,4,1,fifth,6,21,Female,R,Donders,2021-07-10_08h36.10.282,ImageRatingTask_S4,2021.1.4,Win32,60.2300789,,,,,,,,,
,,,,,,,,,,,,0,5,5,5,1,sixth,6,21,Female,R,Donders,2021-07-10_08h36.10.282,ImageRatingTask_S4,2021.1.4,Win32,60.2300789,,,,,,,,,
,,,,,,,,,,,,0,6,6,6,1,seventh,6,21,Female,R,Donders,2021-07-10_08h36.10.282,ImageRatingTask_S4,2021.1.4,Win32,60.2300789,,,,,,,,,
,,,,,,,,,,,,0,7,7,7,1,last,6,21,Female,R,Donders,2021-07-10_08h36.10.282,ImageRatingTask_S4,2021.1.4,Win32,60.2300789,,,,,,,,,
,,,,,,,,,,,,,,,,,,6,21,Female,R,Donders,2021-07-10_08h36.10.282,ImageRatingTask_S4,2021.1.4,Win32,60.2300789,0,0,0,12,1,DreamStudyImages_rs1000x750g/Water/seacliff.jpg,,,
,,6,5.7183,6,3.2559,5,1.6261,1,1.8142,7,1.0917,0,0,0,0,1,main,6,21,Female,R,Donders,2021-07-10_08h36.10.282,ImageRatingTask_S4,2021.1.4,Win32,60.2300789,,,,,,,,,
,,,,,,,,,,,,0,1,1,1,1,second,6,21,Female,R,Donders,2021-07-10_08h36.10.282,ImageRatingTask_S4,2021.1.4,Win32,60.2300789,,,,,,,,,
,,,,,,,,,,,,0,2,2,2,1,third,6,21,Female,R,Donders,2021-07-10_08h36.10.282,ImageRatingTask_S4,2021.1.4,Win32,60.2300789,,,,,,,,,
,,,,,,,,,,,,0,3,3,3,1,fourth,6,21,Female,R,Donders,2021-07-10_08h36.10.282,ImageRatingTask_S4,2021.1.4,Win32,60.2300789,,,,,,,,,
,,,,,,,,,,,,0,4,4,4,1,fifth,6,21,Female,R,Donders,2021-07-10_08h36.10.282,ImageRatingTask_S4,2021.1.4,Win32,60.2300789,,,,,,,,,
,,,,,,,,,,,,0,5,5,5,1,sixth,6,21,Female,R,Donders,2021-07-10_08h36.10.282,ImageRatingTask_S4,2021.1.4,Win32,60.2300789,,,,,,,,,
,,,,,,,,,,,,0,6,6,6,1,seventh,6,21,Female,R,Donders,2021-07-10_08h36.10.282,ImageRatingTask_S4,2021.1.4,Win32,60.2300789,,,,,,,,,
,,,,,,,,,,,,0,7,7,7,1,last,6,21,Female,R,Donders,2021-07-10_08h36.10.282,ImageRatingTask_S4,2021.1.4,Win32,60.2300789,,,,,,,,,
,,,,,,,,,,,,,,,,,,6,21,Female,R,Donders,2021-07-10_08h36.10.282,ImageRatingTask_S4,2021.1.4,Win32,60.2300789,0,1,1,105,1,DreamStudyImages_rs1000x750g/Vehicles/Traffic 1.jpg,,,
,,5,5.7396,3,3.125,7,1.906,1,1.2865,7,0.976,0,0,0,0,1,main,6,21,Female,R,Donders,2021-07-10_08h36.10.282,ImageRatingTask_S4,2021.1.4,Win32,60.2300789,,,,,,,,,
,,,,,,,,,,,,0,1,1,1,1,second,6,21,Female,R,Donders,2021-07-10_08h36.10.282,ImageRatingTask_S4,2021.1.4,Win32,60.2300789,,,,,,,,,
,,,,,,,,,,,,0,2,2,2,1,third,6,21,Female,R,Donders,2021-07-10_08h36.10.282,ImageRatingTask_S4,2021.1.4,Win32,60.2300789,,,,,,,,,
,,,,,,,,,,,,0,3,3,3,1,fourth,6,21,Female,R,Donders,2021-07-10_08h36.10.282,ImageRatingTask_S4,2021.1.4,Win32,60.2300789,,,,,,,,,
,,,,,,,,,,,,0,4,4,4,1,fifth,6,21,Female,R,Donders,2021-07-10_08h36.10.282,ImageRatingTask_S4,2021.1.4,Win32,60.2300789,,,,,,,,,
,,,,,,,,,,,,0,5,5,5,1,sixth,6,21,Female,R,Donders,2021-07-10_08h36.10.282,ImageRatingTask_S4,2021.1.4,Win32,60.2300789,,,,,,,,,
,,,,,,,,,,,,0,6,6,6,1,seventh,6,21,Female,R,Donders,2021-07-10_08h36.10.282,ImageRatingTask_S4,2021.1.4,Win32,60.2300789,,,,,,,,,
,,,,,,,,,,,,0,7,7,7,1,last,6,21,Female,R,Donders,2021-07-10_08h36.10.282,ImageRatingTask_S4,2021.1.4,Win32,60.2300789,,,,,,,,,
,,,,,,,,,,,,,,,,,,6,21,Female,R,Donders,2021-07-10_08h36.10.282,ImageRatingTask_S4,2021.1.4,Win32,60.2300789,0,2,2,29,1,DreamStudyImages_rs1000x750g/Vehicles/Objects_298_h.jpg,,,
,,8,1.6169,6,1.1154,6,1.7234,1,0.7621,3,0.7715,0,0,0,0,1,main,6,21,Female,R,Donders,2021-07-10_08h36.10.282,ImageRatingTask_S4,2021.1.4,Win32,60.2300789,,,,,,,,,
,,,,,,,,,,,,0,1,1,1,1,second,6,21,Female,R,Donders,2021-07-10_08h36.10.282,ImageRatingTask_S4,2021.1.4,Win32,60.2300789,,,,,,,,,
,,,,,,,,,,,,0,2,2,2,1,third,6,21,Female,R,Donders,2021-07-10_08h36.10.282,ImageRatingTask_S4,2021.1.4,Win32,60.2300789,,,,,,,,,
,,,,,,,,,,,,0,3,3,3,1,fourth,6,21,Female,R,Donders,2021-07-10_08h36.10.282,ImageRatingTask_S4,2021.1.4,Win32,60.2300789,,,,,,,,,
,,,,,,,,,,,,0,4,4,4,1,fifth,6,21,Female,R,Donders,2021-07-10_08h36.10.282,ImageRatingTask_S4,2021.1.4,Win32,60.2300789,,,,,,,,,
,,,,,,,,,,,,0,5,5,5,1,sixth,6,21,Female,R,Donders,2021-07-10_08h36.10.282,ImageRatingTask_S4,2021.1.4,Win32,60.2300789,,,,,,,,,
,,,,,,,,,,,,0,6,6,6,1,seventh,6,21,Female,R,Donders,2021-07-10_08h36.10.282,ImageRatingTask_S4,2021.1.4,Win32,60.2300789,,,,,,,,,
,,,,,,,,,,,,0,7,7,7,1,last,6,21,Female,R,Donders,2021-07-10_08h36.10.282,ImageRatingTask_S4,2021.1.4,Win32,60.2300789,,,,,,,,,
,,,,,,,,,,,,,,,,,,6,21,Female,R,Donders,2021-07-10_08h36.10.282,ImageRatingTask_S4,2021.1.4,Win32,60.2300789,0,3,3,66,1,DreamStudyImages_rs1000x750g/Mammals/Animals_208_h.jpg,,,
,,6,6.4238,3,1.3237,6,4.2762,1,0.641,6,1.1746,0,0,0,0,1,main,6,21,Female,R,Donders,2021-07-10_08h36.10.282,ImageRatingTask_S4,2021.1.4,Win32,60.2300789,,,,,,,,,
,,,,,,,,,,,,0,1,1,1,1,second,6,21,Female,R,Donders,2021-07-10_08h36.10.282,ImageRatingTask_S4,2021.1.4,Win32,60.2300789,,,,,,,,,
,,,,,,,,,,,,0,2,2,2,1,third,6,21,Female,R,Donders,2021-07-10_08h36.10.282,ImageRatingTask_S4,2021.1.4,Win32,60.2300789,,,,,,,,,
,,,,,,,,,,,,0,3,3,3,1,fourth,6,21,Female,R,Donders,2021-07-10_08h36.10.282,ImageRatingTask_S4,2021.1.4,Win32,60.2300789,,,,,,,,,
,,,,,,,,,,,,0,4,4,4,1,fifth,6,21,Female,R,Donders,2021-07-10_08h36.10.282,ImageRatingTask_S4,2021.1.4,Win32,60.2300789,,,,,,,,,
,,,,,,,,,,,,0,5,5,5,1,sixth,6,21,Female,R,Donders,2021-07-10_08h36.10.282,ImageRatingTask_S4,2021.1.4,Win32,60.2300789,,,,,,,,,
,,,,,,,,,,,,0,6,6,6,1,seventh,6,21,Female,R,Donders,2021-07-10_08h36.10.282,ImageRatingTask_S4,2021.1.4,Win32,60.2300789,,,,,,,,,
,,,,,,,,,,,,0,7,7,7,1,last,6,21,Female,R,Donders,2021-07-10_08h36.10.282,ImageRatingTask_S4,2021.1.4,Win32,60.2300789,,,,,,,,,
,,,,,,,,,,,,,,,,,,6,21,Female,R,Donders,2021-07-10_08h36.10.282,ImageRatingTask_S4,2021.1.4,Win32,60.2300789,0,4,4,41,1,DreamStudyImages_rs1000x750g/Houses/Landscapes_018_h_CROPPED.jpg,,,
,,5,23.0328,4,2.9569,7,3.5105,1,0.9882,7,0.9942,0,0,0,0,1,main,6,21,Female,R,Donders,2021-07-10_08h36.10.282,ImageRatingTask_S4,2021.1.4,Win32,60.2300789,,,,,,,,,
,,,,,,,,,,,,0,1,1,1,1,second,6,21,Female,R,Donders,2021-07-10_08h36.10.282,ImageRatingTask_S4,2021.1.4,Win32,60.2300789,,,,,,,,,
,,,,,,,,,,,,0,2,2,2,1,third,6,21,Female,R,Donders,2021-07-10_08h36.10.282,ImageRatingTask_S4,2021.1.4,Win32,60.2300789,,,,,,,,,
,,,,,,,,,,,,0,3,3,3,1,fourth,6,21,Female,R,Donders,2021-07-10_08h36.10.282,ImageRatingTask_S4,2021.1.4,Win32,60.2300789,,,,,,,,,
,,,,,,,,,,,,0,4,4,4,1,fifth,6,21,Female,R,Donders,2021-07-10_08h36.10.282,ImageRatingTask_S4,2021.1.4,Win32,60.2300789,,,,,,,,,
,,,,,,,,,,,,0,5,5,5,1,sixth,6,21,Female,R,Donders,2021-07-10_08h36.10.282,ImageRatingTask_S4,2021.1.4,Win32,60.2300789,,,,,,,,,
,,,,,,,,,,,,0,6,6,6,1,seventh,6,21,Female,R,Donders,2021-07-10_08h36.10.282,ImageRatingTask_S4,2021.1.4,Win32,60.2300789,,,,,,,,,
,,,,,,,,,,,,0,7,7,7,1,last,6,21,Female,R,Donders,2021-07-10_08h36.10.282,ImageRatingTask_S4,2021.1.4,Win32,60.2300789,,,,,,,,,
,,,,,,,,,,,,,,,,,,6,21,Female,R,Donders,2021-07-10_08h36.10.282,ImageRatingTask_S4,2021.1.4,Win32,60.2300789,0,5,5,17,1,DreamStudyImages_rs1000x750g/Vehicles/Objects_302_h.jpg,,,
,,5,2.8551,2,1.6802,5,1.6037,1,0.9039,5,0.9122,0,0,0,0,1,main,6,21,Female,R,Donders,2021-07-10_08h36.10.282,ImageRatingTask_S4,2021.1.4,Win32,60.2300789,,,,,,,,,
,,,,,,,,,,,,0,1,1,1,1,second,6,21,Female,R,Donders,2021-07-10_08h36.10.282,ImageRatingTask_S4,2021.1.4,Win32,60.2300789,,,,,,,,,
,,,,,,,,,,,,0,2,2,2,1,third,6,21,Female,R,Donders,2021-07-10_08h36.10.282,ImageRatingTask_S4,2021.1.4,Win32,60.2300789,,,,,,,,,
,,,,,,,,,,,,0,3,3,3,1,fourth,6,21,Female,R,Donders,2021-07-10_08h36.10.282,ImageRatingTask_S4,2021.1.4,Win32,60.2300789,,,,,,,,,
,,,,,,,,,,,,0,4,4,4,1,fifth,6,21,Female,R,Donders,2021-07-10_08h36.10.282,ImageRatingTask_S4,2021.1.4,Win32,60.2300789,,,,,,,,,
,,,,,,,,,,,,0,5,5,5,1,sixth,6,21,Female,R,Donders,2021-07-10_08h36.10.282,ImageRatingTask_S4,2021.1.4,Win32,60.2300789,,,,,,,,,
,,,,,,,,,,,,0,6,6,6,1,seventh,6,21,Female,R,Donders,2021-07-10_08h36.10.282,ImageRatingTask_S4,2021.1.4,Win32,60.2300789,,,,,,,,,
,,,,,,,,,,,,0,7,7,7,1,last,6,21,Female,R,Donders,2021-07-10_08h36.10.282,ImageRatingTask_S4,2021.1.4,Win32,60.2300789,,,,,,,,,
,,,,,,,,,,,,,,,,,,6,21,Female,R,Donders,2021-07-10_08h36.10.282,ImageRatingTask_S4,2021.1.4,Win32,60.2300789,0,6,6,116,1,DreamStudyImages_rs1000x750g/Food/IAPS7283_dessert.jpg,,,
,,3,3.9505,6,1.1397,5,1.5615,1,0.6542,2,1.1018,0,0,0,0,1,main,6,21,Female,R,Donders,2021-07-10_08h36.10.282,ImageRatingTask_S4,2021.1.4,Win32,60.2300789,,,,,,,,,
,,,,,,,,,,,,0,1,1,1,1,second,6,21,Female,R,Donders,2021-07-10_08h36.10.282,ImageRatingTask_S4,2021.1.4,Win32,60.2300789,,,,,,,,,
,,,,,,,,,,,,0,2,2,2,1,third,6,21,Female,R,Donders,2021-07-10_08h36.10.282,ImageRatingTask_S4,2021.1.4,Win32,60.2300789,,,,,,,,,
,,,,,,,,,,,,0,3,3,3,1,fourth,6,21,Female,R,Donders,2021-07-10_08h36.10.282,ImageRatingTask_S4,2021.1.4,Win32,60.2300789,,,,,,,,,
,,,,,,,,,,,,0,4,4,4,1,fifth,6,21,Female,R,Donders,2021-07-10_08h36.10.282,ImageRatingTask_S4,2021.1.4,Win32,60.2300789,,,,,,,,,
,,,,,,,,,,,,0,5,5,5,1,sixth,6,21,Female,R,Donders,2021-07-10_08h36.10.282,ImageRatingTask_S4,2021.1.4,Win32,60.2300789,,,,,,,,,
,,,,,,,,,,,,0,6,6,6,1,seventh,6,21,Female,R,Donders,2021-07-10_08h36.10.282,ImageRatingTask_S4,2021.1.4,Win32,60.2300789,,,,,,,,,
,,,,,,,,,,,,0,7,7,7,1,last,6,21,Female,R,Donders,2021-07-10_08h36.10.282,ImageRatingTask_S4,2021.1.4,Win32,60.2300789,,,,,,,,,
,,,,,,,,,,,,,,,,,,6,21,Female,R,Donders,2021-07-10_08h36.10.282,ImageRatingTask_S4,2021.1.4,Win32,60.2300789,0,7,7,89,1,DreamStudyImages_rs1000x750g/Children/IAPS2703_children15.jpg,,,
,,7,4.6108,4,1.4064,5,1.6926,1,0.6852,3,0.6756,0,0,0,0,1,main,6,21,Female,R,Donders,2021-07-10_08h36.10.282,ImageRatingTask_S4,2021.1.4,Win32,60.2300789,,,,,,,,,
,,,,,,,,,,,,0,1,1,1,1,second,6,21,Female,R,Donders,2021-07-10_08h36.10.282,ImageRatingTask_S4,2021.1.4,Win32,60.2300789,,,,,,,,,
,,,,,,,,,,,,0,2,2,2,1,third,6,21,Female,R,Donders,2021-07-10_08h36.10.282,ImageRatingTask_S4,2021.1.4,Win32,60.2300789,,,,,,,,,
,,,,,,,,,,,,0,3,3,3,1,fourth,6,21,Female,R,Donders,2021-07-10_08h36.10.282,ImageRatingTask_S4,2021.1.4,Win32,60.2300789,,,,,,,,,
,,,,,,,,,,,,0,4,4,4,1,fifth,6,21,Female,R,Donders,2021-07-10_08h36.10.282,ImageRatingTask_S4,2021.1.4,Win32,60.2300789,,,,,,,,,
,,,,,,,,,,,,0,5,5,5,1,sixth,6,21,Female,R,Donders,2021-07-10_08h36.10.282,ImageRatingTask_S4,2021.1.4,Win32,60.2300789,,,,,,,,,
,,,,,,,,,,,,0,6,6,6,1,seventh,6,21,Female,R,Donders,2021-07-10_08h36.10.282,ImageRatingTask_S4,2021.1.4,Win32,60.2300789,,,,,,,,,
,,,,,,,,,,,,0,7,7,7,1,last,6,21,Female,R,Donders,2021-07-10_08h36.10.282,ImageRatingTask_S4,2021.1.4,Win32,60.2300789,,,,,,,,,
,,,,,,,,,,,,,,,,,,6,21,Female,R,Donders,2021-07-10_08h36.10.282,ImageRatingTask_S4,2021.1.4,Win32,60.2300789,0,8,8,2,1,DreamStudyImages_rs1000x750g/Mammals/IAPS1811_apes.jpg,,,
,,4,2.3449,5,2.6839,7,2.2229,1,0.7683,2,0.4914,0,0,0,0,1,main,6,21,Female,R,Donders,2021-07-10_08h36.10.282,ImageRatingTask_S4,2021.1.4,Win32,60.2300789,,,,,,,,,
,,,,,,,,,,,,0,1,1,1,1,second,6,21,Female,R,Donders,2021-07-10_08h36.10.282,ImageRatingTask_S4,2021.1.4,Win32,60.2300789,,,,,,,,,
,,,,,,,,,,,,0,2,2,2,1,third,6,21,Female,R,Donders,2021-07-10_08h36.10.282,ImageRatingTask_S4,2021.1.4,Win32,60.2300789,,,,,,,,,
,,,,,,,,,,,,0,3,3,3,1,fourth,6,21,Female,R,Donders,2021-07-10_08h36.10.282,ImageRatingTask_S4,2021.1.4,Win32,60.2300789,,,,,,,,,
,,,,,,,,,,,,0,4,4,4,1,fifth,6,21,Female,R,Donders,2021-07-10_08h36.10.282,ImageRatingTask_S4,2021.1.4,Win32,60.2300789,,,,,,,,,
,,,,,,,,,,,,0,5,5,5,1,sixth,6,21,Female,R,Donders,2021-07-10_08h36.10.282,ImageRatingTask_S4,2021.1.4,Win32,60.2300789,,,,,,,,,
,,,,,,,,,,,,0,6,6,6,1,seventh,6,21,Female,R,Donders,2021-07-10_08h36.10.282,ImageRatingTask_S4,2021.1.4,Win32,60.2300789,,,,,,,,,
,,,,,,,,,,,,0,7,7,7,1,last,6,21,Female,R,Donders,2021-07-10_08h36.10.282,ImageRatingTask_S4,2021.1.4,Win32,60.2300789,,,,,,,,,
,,,,,,,,,,,,,,,,,,6,21,Female,R,Donders,2021-07-10_08h36.10.282,ImageRatingTask_S4,2021.1.4,Win32,60.2300789,0,9,9,46,1,DreamStudyImages_rs1000x750g/Children/Faces_030_h.jpg,,,
,,7,4.5376,4,15.7314,6,4.1218,1,0.9957,2,0.5543,0,0,0,0,1,main,6,21,Female,R,Donders,2021-07-10_08h36.10.282,ImageRatingTask_S4,2021.1.4,Win32,60.2300789,,,,,,,,,
,,,,,,,,,,,,0,1,1,1,1,second,6,21,Female,R,Donders,2021-07-10_08h36.10.282,ImageRatingTask_S4,2021.1.4,Win32,60.2300789,,,,,,,,,
,,,,,,,,,,,,0,2,2,2,1,third,6,21,Female,R,Donders,2021-07-10_08h36.10.282,ImageRatingTask_S4,2021.1.4,Win32,60.2300789,,,,,,,,,
,,,,,,,,,,,,0,3,3,3,1,fourth,6,21,Female,R,Donders,2021-07-10_08h36.10.282,ImageRatingTask_S4,2021.1.4,Win32,60.2300789,,,,,,,,,
,,,,,,,,,,,,0,4,4,4,1,fifth,6,21,Female,R,Donders,2021-07-10_08h36.10.282,ImageRatingTask_S4,2021.1.4,Win32,60.2300789,,,,,,,,,
,,,,,,,,,,,,0,5,5,5,1,sixth,6,21,Female,R,Donders,2021-07-10_08h36.10.282,ImageRatingTask_S4,2021.1.4,Win32,60.2300789,,,,,,,,,
,,,,,,,,,,,,0,6,6,6,1,seventh,6,21,Female,R,Donders,2021-07-10_08h36.10.282,ImageRatingTask_S4,2021.1.4,Win32,60.2300789,,,,,,,,,
,,,,,,,,,,,,0,7,7,7,1,last,6,21,Female,R,Donders,2021-07-10_08h36.10.282,ImageRatingTask_S4,2021.1.4,Win32,60.2300789,,,,,,,,,
,,,,,,,,,,,,,,,,,,6,21,Female,R,Donders,2021-07-10_08h36.10.282,ImageRatingTask_S4,2021.1.4,Win32,60.2300789,0,10,10,88,1,DreamStudyImages_rs1000x750g/Children/People_043_h.jpg,,,
,,7,91.2852,5,2.0409,6,111.4064,1,1.4792,3,0.3772,0,0,0,0,1,main,6,21,Female,R,Donders,2021-07-10_08h36.10.282,ImageRatingTask_S4,2021.1.4,Win32,60.2300789,,,,,,,,,
,,,,,,,,,,,,0,1,1,1,1,second,6,21,Female,R,Donders,2021-07-10_08h36.10.282,ImageRatingTask_S4,2021.1.4,Win32,60.2300789,,,,,,,,,
,,,,,,,,,,,,0,2,2,2,1,third,6,21,Female,R,Donders,2021-07-10_08h36.10.282,ImageRatingTask_S4,2021.1.4,Win32,60.2300789,,,,,,,,,
,,,,,,,,,,,,0,3,3,3,1,fourth,6,21,Female,R,Donders,2021-07-10_08h36.10.282,ImageRatingTask_S4,2021.1.4,Win32,60.2300789,,,,,,,,,
,,,,,,,,,,,,0,4,4,4,1,fifth,6,21,Female,R,Donders,2021-07-10_08h36.10.282,ImageRatingTask_S4,2021.1.4,Win32,60.2300789,,,,,,,,,
,,,,,,,,,,,,0,5,5,5,1,sixth,6,21,Female,R,Donders,2021-07-10_08h36.10.282,ImageRatingTask_S4,2021.1.4,Win32,60.2300789,,,,,,,,,
,,,,,,,,,,,,0,6,6,6,1,seventh,6,21,Female,R,Donders,2021-07-10_08h36.10.282,ImageRatingTask_S4,2021.1.4,Win32,60.2300789,,,,,,,,,
,,,,,,,,,,,,0,7,7,7,1,last,6,21,Female,R,Donders,2021-07-10_08h36.10.282,ImageRatingTask_S4,2021.1.4,Win32,60.2300789,,,,,,,,,
,,,,,,,,,,,,,,,,,,6,21,Female,R,Donders,2021-07-10_08h36.10.282,ImageRatingTask_S4,2021.1.4,Win32,60.2300789,0,11,11,133,1,DreamStudyImages_rs1000x750g/Mammals/IAPS1460_babycat.jpg,,,
,,5,8.2968,2,1.1967,7,2.1518,1,0.8647,8,1.5916,0,0,0,0,1,main,6,21,Female,R,Donders,2021-07-10_08h36.10.282,ImageRatingTask_S4,2021.1.4,Win32,60.2300789,,,,,,,,,
,,,,,,,,,,,,0,1,1,1,1,second,6,21,Female,R,Donders,2021-07-10_08h36.10.282,ImageRatingTask_S4,2021.1.4,Win32,60.2300789,,,,,,,,,
,,,,,,,,,,,,0,2,2,2,1,third,6,21,Female,R,Donders,2021-07-10_08h36.10.282,ImageRatingTask_S4,2021.1.4,Win32,60.2300789,,,,,,,,,
,,,,,,,,,,,,0,3,3,3,1,fourth,6,21,Female,R,Donders,2021-07-10_08h36.10.282,ImageRatingTask_S4,2021.1.4,Win32,60.2300789,,,,,,,,,
,,,,,,,,,,,,0,4,4,4,1,fifth,6,21,Female,R,Donders,2021-07-10_08h36.10.282,ImageRatingTask_S4,2021.1.4,Win32,60.2300789,,,,,,,,,
,,,,,,,,,,,,0,5,5,5,1,sixth,6,21,Female,R,Donders,2021-07-10_08h36.10.282,ImageRatingTask_S4,2021.1.4,Win32,60.2300789,,,,,,,,,
,,,,,,,,,,,,0,6,6,6,1,seventh,6,21,Female,R,Donders,2021-07-10_08h36.10.282,ImageRatingTask_S4,2021.1.4,Win32,60.2300789,,,,,,,,,
,,,,,,,,,,,,0,7,7,7,1,last,6,21,Female,R,Donders,2021-07-10_08h36.10.282,ImageRatingTask_S4,2021.1.4,Win32,60.2300789,,,,,,,,,
,,,,,,,,,,,,,,,,,,6,21,Female,R,Donders,2021-07-10_08h36.10.282,ImageRatingTask_S4,2021.1.4,Win32,60.2300789,0,12,12,136,1,DreamStudyImages_rs1000x750g/Water/Landscapes_129_v.jpg,,,
,,4,1.4092,6,2.8651,8,1.603,1,1.0301,2,1.435,0,0,0,0,1,main,6,21,Female,R,Donders,2021-07-10_08h36.10.282,ImageRatingTask_S4,2021.1.4,Win32,60.2300789,,,,,,,,,
,,,,,,,,,,,,0,1,1,1,1,second,6,21,Female,R,Donders,2021-07-10_08h36.10.282,ImageRatingTask_S4,2021.1.4,Win32,60.2300789,,,,,,,,,
,,,,,,,,,,,,0,2,2,2,1,third,6,21,Female,R,Donders,2021-07-10_08h36.10.282,ImageRatingTask_S4,2021.1.4,Win32,60.2300789,,,,,,,,,
,,,,,,,,,,,,0,3,3,3,1,fourth,6,21,Female,R,Donders,2021-07-10_08h36.10.282,ImageRatingTask_S4,2021.1.4,Win32,60.2300789,,,,,,,,,
,,,,,,,,,,,,0,4,4,4,1,fifth,6,21,Female,R,Donders,2021-07-10_08h36.10.282,ImageRatingTask_S4,2021.1.4,Win32,60.2300789,,,,,,,,,
,,,,,,,,,,,,0,5,5,5,1,sixth,6,21,Female,R,Donders,2021-07-10_08h36.10.282,ImageRatingTask_S4,2021.1.4,Win32,60.2300789,,,,,,,,,
,,,,,,,,,,,,0,6,6,6,1,seventh,6,21,Female,R,Donders,2021-07-10_08h36.10.282,ImageRatingTask_S4,2021.1.4,Win32,60.2300789,,,,,,,,,
,,,,,,,,,,,,0,7,7,7,1,last,6,21,Female,R,Donders,2021-07-10_08h36.10.282,ImageRatingTask_S4,2021.1.4,Win32,60.2300789,,,,,,,,,
,,,,,,,,,,,,,,,,,,6,21,Female,R,Donders,2021-07-10_08h36.10.282,ImageRatingTask_S4,2021.1.4,Win32,60.2300789,0,13,13,57,1,DreamStudyImages_rs1000x750g/Children/Sad face 2.jpg,,,
,,7,2.7158,3,1.3923,6,1.5913,1,1.6719,5,1.3688,0,0,0,0,1,main,6,21,Female,R,Donders,2021-07-10_08h36.10.282,ImageRatingTask_S4,2021.1.4,Win32,60.2300789,,,,,,,,,
,,,,,,,,,,,,0,1,1,1,1,second,6,21,Female,R,Donders,2021-07-10_08h36.10.282,ImageRatingTask_S4,2021.1.4,Win32,60.2300789,,,,,,,,,
,,,,,,,,,,,,0,2,2,2,1,third,6,21,Female,R,Donders,2021-07-10_08h36.10.282,ImageRatingTask_S4,2021.1.4,Win32,60.2300789,,,,,,,,,
,,,,,,,,,,,,0,3,3,3,1,fourth,6,21,Female,R,Donders,2021-07-10_08h36.10.282,ImageRatingTask_S4,2021.1.4,Win32,60.2300789,,,,,,,,,
,,,,,,,,,,,,0,4,4,4,1,fifth,6,21,Female,R,Donders,2021-07-10_08h36.10.282,ImageRatingTask_S4,2021.1.4,Win32,60.2300789,,,,,,,,,
,,,,,,,,,,,,0,5,5,5,1,sixth,6,21,Female,R,Donders,2021-07-10_08h36.10.282,ImageRatingTask_S4,2021.1.4,Win32,60.2300789,,,,,,,,,
,,,,,,,,,,,,0,6,6,6,1,seventh,6,21,Female,R,Donders,2021-07-10_08h36.10.282,ImageRatingTask_S4,2021.1.4,Win32,60.2300789,,,,,,,,,
,,,,,,,,,,,,0,7,7,7,1,last,6,21,Female,R,Donders,2021-07-10_08h36.10.282,ImageRatingTask_S4,2021.1.4,Win32,60.2300789,,,,,,,,,
,,,,,,,,,,,,,,,,,,6,21,Female,R,Donders,2021-07-10_08h36.10.282,ImageRatingTask_S4,2021.1.4,Win32,60.2300789,0,14,14,73,1,DreamStudyImages_rs1000x750g/Food/Dessert 5.jpg,,,
,,3,8.3148,7,1.4384,7,3.3208,1,0.8179,7,0.8153,0,0,0,0,1,main,6,21,Female,R,Donders,2021-07-10_08h36.10.282,ImageRatingTask_S4,2021.1.4,Win32,60.2300789,,,,,,,,,
,,,,,,,,,,,,0,1,1,1,1,second,6,21,Female,R,Donders,2021-07-10_08h36.10.282,ImageRatingTask_S4,2021.1.4,Win32,60.2300789,,,,,,,,,
,,,,,,,,,,,,0,2,2,2,1,third,6,21,Female,R,Donders,2021-07-10_08h36.10.282,ImageRatingTask_S4,2021.1.4,Win32,60.2300789,,,,,,,,,
,,,,,,,,,,,,0,3,3,3,1,fourth,6,21,Female,R,Donders,2021-07-10_08h36.10.282,ImageRatingTask_S4,2021.1.4,Win32,60.2300789,,,,,,,,,
,,,,,,,,,,,,0,4,4,4,1,fifth,6,21,Female,R,Donders,2021-07-10_08h36.10.282,ImageRatingTask_S4,2021.1.4,Win32,60.2300789,,,,,,,,,
,,,,,,,,,,,,0,5,5,5,1,sixth,6,21,Female,R,Donders,2021-07-10_08h36.10.282,ImageRatingTask_S4,2021.1.4,Win32,60.2300789,,,,,,,,,
,,,,,,,,,,,,0,6,6,6,1,seventh,6,21,Female,R,Donders,2021-07-10_08h36.10.282,ImageRatingTask_S4,2021.1.4,Win32,60.2300789,,,,,,,,,
,,,,,,,,,,,,0,7,7,7,1,last,6,21,Female,R,Donders,2021-07-10_08h36.10.282,ImageRatingTask_S4,2021.1.4,Win32,60.2300789,,,,,,,,,
,,,,,,,,,,,,,,,,,,6,21,Female,R,Donders,2021-07-10_08h36.10.282,ImageRatingTask_S4,2021.1.4,Win32,60.2300789,0,15,15,62,1,DreamStudyImages_rs1000x750g/Vehicles/Objects_003_h.jpg,,,
,,6,8.628,2,1.7021,6,5.2857,1,1.4828,8,1.1417,0,0,0,0,1,main,6,21,Female,R,Donders,2021-07-10_08h36.10.282,ImageRatingTask_S4,2021.1.4,Win32,60.2300789,,,,,,,,,
,,,,,,,,,,,,0,1,1,1,1,second,6,21,Female,R,Donders,2021-07-10_08h36.10.282,ImageRatingTask_S4,2021.1.4,Win32,60.2300789,,,,,,,,,
,,,,,,,,,,,,0,2,2,2,1,third,6,21,Female,R,Donders,2021-07-10_08h36.10.282,ImageRatingTask_S4,2021.1.4,Win32,60.2300789,,,,,,,,,
,,,,,,,,,,,,0,3,3,3,1,fourth,6,21,Female,R,Donders,2021-07-10_08h36.10.282,ImageRatingTask_S4,2021.1.4,Win32,60.2300789,,,,,,,,,
,,,,,,,,,,,,0,4,4,4,1,fifth,6,21,Female,R,Donders,2021-07-10_08h36.10.282,ImageRatingTask_S4,2021.1.4,Win32,60.2300789,,,,,,,,,
,,,,,,,,,,,,0,5,5,5,1,sixth,6,21,Female,R,Donders,2021-07-10_08h36.10.282,ImageRatingTask_S4,2021.1.4,Win32,60.2300789,,,,,,,,,
,,,,,,,,,,,,0,6,6,6,1,seventh,6,21,Female,R,Donders,2021-07-10_08h36.10.282,ImageRatingTask_S4,2021.1.4,Win32,60.2300789,,,,,,,,,
,,,,,,,,,,,,0,7,7,7,1,last,6,21,Female,R,Donders,2021-07-10_08h36.10.282,ImageRatingTask_S4,2021.1.4,Win32,60.2300789,,,,,,,,,
,,,,,,,,,,,,,,,,,,6,21,Female,R,Donders,2021-07-10_08h36.10.282,ImageRatingTask_S4,2021.1.4,Win32,60.2300789,0,16,16,138,1,DreamStudyImages_rs1000x750g/Water/dawnatlake.jpg,,,
,,6,10.781,7,1.4883,7,2.1103,1,1.0497,7,0.8661,0,0,0,0,1,main,6,21,Female,R,Donders,2021-07-10_08h36.10.282,ImageRatingTask_S4,2021.1.4,Win32,60.2300789,,,,,,,,,
,,,,,,,,,,,,0,1,1,1,1,second,6,21,Female,R,Donders,2021-07-10_08h36.10.282,ImageRatingTask_S4,2021.1.4,Win32,60.2300789,,,,,,,,,
,,,,,,,,,,,,0,2,2,2,1,third,6,21,Female,R,Donders,2021-07-10_08h36.10.282,ImageRatingTask_S4,2021.1.4,Win32,60.2300789,,,,,,,,,
,,,,,,,,,,,,0,3,3,3,1,fourth,6,21,Female,R,Donders,2021-07-10_08h36.10.282,ImageRatingTask_S4,2021.1.4,Win32,60.2300789,,,,,,,,,
,,,,,,,,,,,,0,4,4,4,1,fifth,6,21,Female,R,Donders,2021-07-10_08h36.10.282,ImageRatingTask_S4,2021.1.4,Win32,60.2300789,,,,,,,,,
,,,,,,,,,,,,0,5,5,5,1,sixth,6,21,Female,R,Donders,2021-07-10_08h36.10.282,ImageRatingTask_S4,2021.1.4,Win32,60.2300789,,,,,,,,,
,,,,,,,,,,,,0,6,6,6,1,seventh,6,21,Female,R,Donders,2021-07-10_08h36.10.282,ImageRatingTask_S4,2021.1.4,Win32,60.2300789,,,,,,,,,
,,,,,,,,,,,,0,7,7,7,1,last,6,21,Female,R,Donders,2021-07-10_08h36.10.282,ImageRatingTask_S4,2021.1.4,Win32,60.2300789,,,,,,,,,
,,,,,,,,,,,,,,,,,,6,21,Female,R,Donders,2021-07-10_08h36.10.282,ImageRatingTask_S4,2021.1.4,Win32,60.2300789,0,17,17,47,1,DreamStudyImages_rs1000x750g/Vehicles/monstertruck.jpg,,,
,,8,5.6579,6,1.9525,8,4.4521,1,0.6778,6,1.6757,0,0,0,0,1,main,6,21,Female,R,Donders,2021-07-10_08h36.10.282,ImageRatingTask_S4,2021.1.4,Win32,60.2300789,,,,,,,,,
,,,,,,,,,,,,0,1,1,1,1,second,6,21,Female,R,Donders,2021-07-10_08h36.10.282,ImageRatingTask_S4,2021.1.4,Win32,60.2300789,,,,,,,,,
,,,,,,,,,,,,0,2,2,2,1,third,6,21,Female,R,Donders,2021-07-10_08h36.10.282,ImageRatingTask_S4,2021.1.4,Win32,60.2300789,,,,,,,,,
,,,,,,,,,,,,0,3,3,3,1,fourth,6,21,Female,R,Donders,2021-07-10_08h36.10.282,ImageRatingTask_S4,2021.1.4,Win32,60.2300789,,,,,,,,,
,,,,,,,,,,,,0,4,4,4,1,fifth,6,21,Female,R,Donders,2021-07-10_08h36.10.282,ImageRatingTask_S4,2021.1.4,Win32,60.2300789,,,,,,,,,
,,,,,,,,,,,,0,5,5,5,1,sixth,6,21,Female,R,Donders,2021-07-10_08h36.10.282,ImageRatingTask_S4,2021.1.4,Win32,60.2300789,,,,,,,,,
,,,,,,,,,,,,0,6,6,6,1,seventh,6,21,Female,R,Donders,2021-07-10_08h36.10.282,ImageRatingTask_S4,2021.1.4,Win32,60.2300789,,,,,,,,,
,,,,,,,,,,,,0,7,7,7,1,last,6,21,Female,R,Donders,2021-07-10_08h36.10.282,ImageRatingTask_S4,2021.1.4,Win32,60.2300789,,,,,,,,,
,,,,,,,,,,,,,,,,,,6,21,Female,R,Donders,2021-07-10_08h36.10.282,ImageRatingTask_S4,2021.1.4,Win32,60.2300789,0,18,18,6,1,DreamStudyImages_rs1000x750g/Houses/whitehouse.jpg,,,
,,5,5.7643,6,1.9475,7,1.6101,3,5.1644,3,4.0043,0,0,0,0,1,main,6,21,Female,R,Donders,2021-07-10_08h36.10.282,ImageRatingTask_S4,2021.1.4,Win32,60.2300789,,,,,,,,,
,,,,,,,,,,3,0.4283,0,1,1,1,1,second,6,21,Female,R,Donders,2021-07-10_08h36.10.282,ImageRatingTask_S4,2021.1.4,Win32,60.2300789,,,,,,,,,
,,,,,,,,,,3,0.4176,0,2,2,2,1,third,6,21,Female,R,Donders,2021-07-10_08h36.10.282,ImageRatingTask_S4,2021.1.4,Win32,60.2300789,,,,,,,,,
,,,,,,,,,,,,0,3,3,3,1,fourth,6,21,Female,R,Donders,2021-07-10_08h36.10.282,ImageRatingTask_S4,2021.1.4,Win32,60.2300789,,,,,,,,,
,,,,,,,,,,,,0,4,4,4,1,fifth,6,21,Female,R,Donders,2021-07-10_08h36.10.282,ImageRatingTask_S4,2021.1.4,Win32,60.2300789,,,,,,,,,
,,,,,,,,,,,,0,5,5,5,1,sixth,6,21,Female,R,Donders,2021-07-10_08h36.10.282,ImageRatingTask_S4,2021.1.4,Win32,60.2300789,,,,,,,,,
,,,,,,,,,,,,0,6,6,6,1,seventh,6,21,Female,R,Donders,2021-07-10_08h36.10.282,ImageRatingTask_S4,2021.1.4,Win32,60.2300789,,,,,,,,,
,,,,,,,,,,,,0,7,7,7,1,last,6,21,Female,R,Donders,2021-07-10_08h36.10.282,ImageRatingTask_S4,2021.1.4,Win32,60.2300789,,,,,,,,,
,,,,,,,,,,,,,,,,,,6,21,Female,R,Donders,2021-07-10_08h36.10.282,ImageRatingTask_S4,2021.1.4,Win32,60.2300789,0,19,19,42,1,DreamStudyImages_rs1000x750g/Mammals/Ferret 1.jpg,,,
,,3,266.5346,7,1.2259,6,1.906,1,1.1151,6,1.0593,0,0,0,0,1,main,6,21,Female,R,Donders,2021-07-10_08h36.10.282,ImageRatingTask_S4,2021.1.4,Win32,60.2300789,,,,,,,,,
,,,,,,,,,,,,0,1,1,1,1,second,6,21,Female,R,Donders,2021-07-10_08h36.10.282,ImageRatingTask_S4,2021.1.4,Win32,60.2300789,,,,,,,,,
,,,,,,,,,,,,0,2,2,2,1,third,6,21,Female,R,Donders,2021-07-10_08h36.10.282,ImageRatingTask_S4,2021.1.4,Win32,60.2300789,,,,,,,,,
,,,,,,,,,,,,0,3,3,3,1,fourth,6,21,Female,R,Donders,2021-07-10_08h36.10.282,ImageRatingTask_S4,2021.1.4,Win32,60.2300789,,,,,,,,,
,,,,,,,,,,,,0,4,4,4,1,fifth,6,21,Female,R,Donders,2021-07-10_08h36.10.282,ImageRatingTask_S4,2021.1.4,Win32,60.2300789,,,,,,,,,
,,,,,,,,,,,,0,5,5,5,1,sixth,6,21,Female,R,Donders,2021-07-10_08h36.10.282,ImageRatingTask_S4,2021.1.4,Win32,60.2300789,,,,,,,,,
,,,,,,,,,,,,0,6,6,6,1,seventh,6,21,Female,R,Donders,2021-07-10_08h36.10.282,ImageRatingTask_S4,2021.1.4,Win32,60.2300789,,,,,,,,,
,,,,,,,,,,,,0,7,7,7,1,last,6,21,Female,R,Donders,2021-07-10_08h36.10.282,ImageRatingTask_S4,2021.1.4,Win32,60.2300789,,,,,,,,,
,,,,,,,,,,,,,,,,,,6,21,Female,R,Donders,2021-07-10_08h36.10.282,ImageRatingTask_S4,2021.1.4,Win32,60.2300789,0,20,20,134,1,DreamStudyImages_rs1000x750g/Houses/IAPS9471_burntbuilding.jpg,,,
,,5,10.8686,2,1.395,6,3.4828,1,11.9499,6,1.2868,0,0,0,0,1,main,6,21,Female,R,Donders,2021-07-10_08h36.10.282,ImageRatingTask_S4,2021.1.4,Win32,60.2300789,,,,,,,,,
,,,,,,,,,,,,0,1,1,1,1,second,6,21,Female,R,Donders,2021-07-10_08h36.10.282,ImageRatingTask_S4,2021.1.4,Win32,60.2300789,,,,,,,,,
,,,,,,,,,,,,0,2,2,2,1,third,6,21,Female,R,Donders,2021-07-10_08h36.10.282,ImageRatingTask_S4,2021.1.4,Win32,60.2300789,,,,,,,,,
,,,,,,,,,,,,0,3,3,3,1,fourth,6,21,Female,R,Donders,2021-07-10_08h36.10.282,ImageRatingTask_S4,2021.1.4,Win32,60.2300789,,,,,,,,,
,,,,,,,,,,,,0,4,4,4,1,fifth,6,21,Female,R,Donders,2021-07-10_08h36.10.282,ImageRatingTask_S4,2021.1.4,Win32,60.2300789,,,,,,,,,
,,,,,,,,,,,,0,5,5,5,1,sixth,6,21,Female,R,Donders,2021-07-10_08h36.10.282,ImageRatingTask_S4,2021.1.4,Win32,60.2300789,,,,,,,,,
,,,,,,,,,,,,0,6,6,6,1,seventh,6,21,Female,R,Donders,2021-07-10_08h36.10.282,ImageRatingTask_S4,2021.1.4,Win32,60.2300789,,,,,,,,,
,,,,,,,,,,,,0,7,7,7,1,last,6,21,Female,R,Donders,2021-07-10_08h36.10.282,ImageRatingTask_S4,2021.1.4,Win32,60.2300789,,,,,,,,,
,,,,,,,,,,,,,,,,,,6,21,Female,R,Donders,2021-07-10_08h36.10.282,ImageRatingTask_S4,2021.1.4,Win32,60.2300789,0,21,21,80,1,DreamStudyImages_rs1000x750g/Houses/IAPS7504_staircases.jpg,,,
,,7,8.0875,2,1.2047,7,2.9991,1,1.1758,8,0.9563,0,0,0,0,1,main,6,21,Female,R,Donders,2021-07-10_08h36.10.282,ImageRatingTask_S4,2021.1.4,Win32,60.2300789,,,,,,,,,
,,,,,,,,,,,,0,1,1,1,1,second,6,21,Female,R,Donders,2021-07-10_08h36.10.282,ImageRatingTask_S4,2021.1.4,Win32,60.2300789,,,,,,,,,
,,,,,,,,,,,,0,2,2,2,1,third,6,21,Female,R,Donders,2021-07-10_08h36.10.282,ImageRatingTask_S4,2021.1.4,Win32,60.2300789,,,,,,,,,
,,,,,,,,,,,,0,3,3,3,1,fourth,6,21,Female,R,Donders,2021-07-10_08h36.10.282,ImageRatingTask_S4,2021.1.4,Win32,60.2300789,,,,,,,,,
,,,,,,,,,,,,0,4,4,4,1,fifth,6,21,Female,R,Donders,2021-07-10_08h36.10.282,ImageRatingTask_S4,2021.1.4,Win32,60.2300789,,,,,,,,,
,,,,,,,,,,,,0,5,5,5,1,sixth,6,21,Female,R,Donders,2021-07-10_08h36.10.282,ImageRatingTask_S4,2021.1.4,Win32,60.2300789,,,,,,,,,
,,,,,,,,,,,,0,6,6,6,1,seventh,6,21,Female,R,Donders,2021-07-10_08h36.10.282,ImageRatingTask_S4,2021.1.4,Win32,60.2300789,,,,,,,,,
,,,,,,,,,,,,0,7,7,7,1,last,6,21,Female,R,Donders,2021-07-10_08h36.10.282,ImageRatingTask_S4,2021.1.4,Win32,60.2300789,,,,,,,,,
,,,,,,,,,,,,,,,,,,6,21,Female,R,Donders,2021-07-10_08h36.10.282,ImageRatingTask_S4,2021.1.4,Win32,60.2300789,0,22,22,148,1,DreamStudyImages_rs1000x750g/Water/lake_CROPPED.jpg,,,
,,4,2.6835,4,3.6946,7,1.7018,1,0.9624,6,1.1671,0,0,0,0,1,main,6,21,Female,R,Donders,2021-07-10_08h36.10.282,ImageRatingTask_S4,2021.1.4,Win32,60.2300789,,,,,,,,,
,,,,,,,,,,,,0,1,1,1,1,second,6,21,Female,R,Donders,2021-07-10_08h36.10.282,ImageRatingTask_S4,2021.1.4,Win32,60.2300789,,,,,,,,,
,,,,,,,,,,,,0,2,2,2,1,third,6,21,Female,R,Donders,2021-07-10_08h36.10.282,ImageRatingTask_S4,2021.1.4,Win32,60.2300789,,,,,,,,,
,,,,,,,,,,,,0,3,3,3,1,fourth,6,21,Female,R,Donders,2021-07-10_08h36.10.282,ImageRatingTask_S4,2021.1.4,Win32,60.2300789,,,,,,,,,
,,,,,,,,,,,,0,4,4,4,1,fifth,6,21,Female,R,Donders,2021-07-10_08h36.10.282,ImageRatingTask_S4,2021.1.4,Win32,60.2300789,,,,,,,,,
,,,,,,,,,,,,0,5,5,5,1,sixth,6,21,Female,R,Donders,2021-07-10_08h36.10.282,ImageRatingTask_S4,2021.1.4,Win32,60.2300789,,,,,,,,,
,,,,,,,,,,,,0,6,6,6,1,seventh,6,21,Female,R,Donders,2021-07-10_08h36.10.282,ImageRatingTask_S4,2021.1.4,Win32,60.2300789,,,,,,,,,
,,,,,,,,,,,,0,7,7,7,1,last,6,21,Female,R,Donders,2021-07-10_08h36.10.282,ImageRatingTask_S4,2021.1.4,Win32,60.2300789,,,,,,,,,
,,,,,,,,,,,,,,,,,,6,21,Female,R,Donders,2021-07-10_08h36.10.282,ImageRatingTask_S4,2021.1.4,Win32,60.2300789,0,23,23,77,1,DreamStudyImages_rs1000x750g/Houses/Landscapes_044_h.jpg,,,
,,6,4.8828,7,1.7331,5,2.1349,1,1.2994,7,1.4425,0,0,0,0,1,main,6,21,Female,R,Donders,2021-07-10_08h36.10.282,ImageRatingTask_S4,2021.1.4,Win32,60.2300789,,,,,,,,,
,,,,,,,,,,,,0,1,1,1,1,second,6,21,Female,R,Donders,2021-07-10_08h36.10.282,ImageRatingTask_S4,2021.1.4,Win32,60.2300789,,,,,,,,,
,,,,,,,,,,,,0,2,2,2,1,third,6,21,Female,R,Donders,2021-07-10_08h36.10.282,ImageRatingTask_S4,2021.1.4,Win32,60.2300789,,,,,,,,,
,,,,,,,,,,,,0,3,3,3,1,fourth,6,21,Female,R,Donders,2021-07-10_08h36.10.282,ImageRatingTask_S4,2021.1.4,Win32,60.2300789,,,,,,,,,
,,,,,,,,,,,,0,4,4,4,1,fifth,6,21,Female,R,Donders,2021-07-10_08h36.10.282,ImageRatingTask_S4,2021.1.4,Win32,60.2300789,,,,,,,,,
,,,,,,,,,,,,0,5,5,5,1,sixth,6,21,Female,R,Donders,2021-07-10_08h36.10.282,ImageRatingTask_S4,2021.1.4,Win32,60.2300789,,,,,,,,,
,,,,,,,,,,,,0,6,6,6,1,seventh,6,21,Female,R,Donders,2021-07-10_08h36.10.282,ImageRatingTask_S4,2021.1.4,Win32,60.2300789,,,,,,,,,
,,,,,,,,,,,,0,7,7,7,1,last,6,21,Female,R,Donders,2021-07-10_08h36.10.282,ImageRatingTask_S4,2021.1.4,Win32,60.2300789,,,,,,,,,
,,,,,,,,,,,,,,,,,,6,21,Female,R,Donders,2021-07-10_08h36.10.282,ImageRatingTask_S4,2021.1.4,Win32,60.2300789,0,24,24,127,1,DreamStudyImages_rs1000x750g/Vehicles/Car race 1.jpg,,,
,,5,3.829,5,2.8486,4,1.7451,1,1.0639,7,0.9753,0,0,0,0,1,main,6,21,Female,R,Donders,2021-07-10_08h36.10.282,ImageRatingTask_S4,2021.1.4,Win32,60.2300789,,,,,,,,,
,,,,,,,,,,,,0,1,1,1,1,second,6,21,Female,R,Donders,2021-07-10_08h36.10.282,ImageRatingTask_S4,2021.1.4,Win32,60.2300789,,,,,,,,,
,,,,,,,,,,,,0,2,2,2,1,third,6,21,Female,R,Donders,2021-07-10_08h36.10.282,ImageRatingTask_S4,2021.1.4,Win32,60.2300789,,,,,,,,,
,,,,,,,,,,,,0,3,3,3,1,fourth,6,21,Female,R,Donders,2021-07-10_08h36.10.282,ImageRatingTask_S4,2021.1.4,Win32,60.2300789,,,,,,,,,
,,,,,,,,,,,,0,4,4,4,1,fifth,6,21,Female,R,Donders,2021-07-10_08h36.10.282,ImageRatingTask_S4,2021.1.4,Win32,60.2300789,,,,,,,,,
,,,,,,,,,,,,0,5,5,5,1,sixth,6,21,Female,R,Donders,2021-07-10_08h36.10.282,ImageRatingTask_S4,2021.1.4,Win32,60.2300789,,,,,,,,,
,,,,,,,,,,,,0,6,6,6,1,seventh,6,21,Female,R,Donders,2021-07-10_08h36.10.282,ImageRatingTask_S4,2021.1.4,Win32,60.2300789,,,,,,,,,
,,,,,,,,,,,,0,7,7,7,1,last,6,21,Female,R,Donders,2021-07-10_08h36.10.282,ImageRatingTask_S4,2021.1.4,Win32,60.2300789,,,,,,,,,
,,,,,,,,,,,,,,,,,,6,21,Female,R,Donders,2021-07-10_08h36.10.282,ImageRatingTask_S4,2021.1.4,Win32,60.2300789,0,25,25,125,1,DreamStudyImages_rs1000x750g/Vehicles/7590.jpg,,,
,,5,38.4778,4,2.9436,8,2.1821,1,0.9348,7,1.2394,0,0,0,0,1,main,6,21,Female,R,Donders,2021-07-10_08h36.10.282,ImageRatingTask_S4,2021.1.4,Win32,60.2300789,,,,,,,,,
,,,,,,,,,,,,0,1,1,1,1,second,6,21,Female,R,Donders,2021-07-10_08h36.10.282,ImageRatingTask_S4,2021.1.4,Win32,60.2300789,,,,,,,,,
,,,,,,,,,,,,0,2,2,2,1,third,6,21,Female,R,Donders,2021-07-10_08h36.10.282,ImageRatingTask_S4,2021.1.4,Win32,60.2300789,,,,,,,,,
,,,,,,,,,,,,0,3,3,3,1,fourth,6,21,Female,R,Donders,2021-07-10_08h36.10.282,ImageRatingTask_S4,2021.1.4,Win32,60.2300789,,,,,,,,,
,,,,,,,,,,,,0,4,4,4,1,fifth,6,21,Female,R,Donders,2021-07-10_08h36.10.282,ImageRatingTask_S4,2021.1.4,Win32,60.2300789,,,,,,,,,
,,,,,,,,,,,,0,5,5,5,1,sixth,6,21,Female,R,Donders,2021-07-10_08h36.10.282,ImageRatingTask_S4,2021.1.4,Win32,60.2300789,,,,,,,,,
,,,,,,,,,,,,0,6,6,6,1,seventh,6,21,Female,R,Donders,2021-07-10_08h36.10.282,ImageRatingTask_S4,2021.1.4,Win32,60.2300789,,,,,,,,,
,,,,,,,,,,,,0,7,7,7,1,last,6,21,Female,R,Donders,2021-07-10_08h36.10.282,ImageRatingTask_S4,2021.1.4,Win32,60.2300789,,,,,,,,,
,,,,,,,,,,,,,,,,,,6,21,Female,R,Donders,2021-07-10_08h36.10.282,ImageRatingTask_S4,2021.1.4,Win32,60.2300789,0,26,26,90,1,DreamStudyImages_rs1000x750g/Vehicles/militarytruck.jpg,,,
,,6,38.5772,4,2.15,8,1.9581,1,2.1752,8,1.1229,0,0,0,0,1,main,6,21,Female,R,Donders,2021-07-10_08h36.10.282,ImageRatingTask_S4,2021.1.4,Win32,60.2300789,,,,,,,,,
,,,,,,,,,,,,0,1,1,1,1,second,6,21,Female,R,Donders,2021-07-10_08h36.10.282,ImageRatingTask_S4,2021.1.4,Win32,60.2300789,,,,,,,,,
,,,,,,,,,,,,0,2,2,2,1,third,6,21,Female,R,Donders,2021-07-10_08h36.10.282,ImageRatingTask_S4,2021.1.4,Win32,60.2300789,,,,,,,,,
,,,,,,,,,,,,0,3,3,3,1,fourth,6,21,Female,R,Donders,2021-07-10_08h36.10.282,ImageRatingTask_S4,2021.1.4,Win32,60.2300789,,,,,,,,,
,,,,,,,,,,,,0,4,4,4,1,fifth,6,21,Female,R,Donders,2021-07-10_08h36.10.282,ImageRatingTask_S4,2021.1.4,Win32,60.2300789,,,,,,,,,
,,,,,,,,,,,,0,5,5,5,1,sixth,6,21,Female,R,Donders,2021-07-10_08h36.10.282,ImageRatingTask_S4,2021.1.4,Win32,60.2300789,,,,,,,,,
,,,,,,,,,,,,0,6,6,6,1,seventh,6,21,Female,R,Donders,2021-07-10_08h36.10.282,ImageRatingTask_S4,2021.1.4,Win32,60.2300789,,,,,,,,,
,,,,,,,,,,,,0,7,7,7,1,last,6,21,Female,R,Donders,2021-07-10_08h36.10.282,ImageRatingTask_S4,2021.1.4,Win32,60.2300789,,,,,,,,,
,,,,,,,,,,,,,,,,,,6,21,Female,R,Donders,2021-07-10_08h36.10.282,ImageRatingTask_S4,2021.1.4,Win32,60.2300789,0,27,27,112,1,DreamStudyImages_rs1000x750g/Water/landscapes_181_h_EDITED.jpg,,,
,,6,2.0841,2,1.1553,8,1.5829,1,0.921,2,0.2201,0,0,0,0,1,main,6,21,Female,R,Donders,2021-07-10_08h36.10.282,ImageRatingTask_S4,2021.1.4,Win32,60.2300789,,,,,,,,,
,,,,,,,,,,,,0,1,1,1,1,second,6,21,Female,R,Donders,2021-07-10_08h36.10.282,ImageRatingTask_S4,2021.1.4,Win32,60.2300789,,,,,,,,,
,,,,,,,,,,,,0,2,2,2,1,third,6,21,Female,R,Donders,2021-07-10_08h36.10.282,ImageRatingTask_S4,2021.1.4,Win32,60.2300789,,,,,,,,,
,,,,,,,,,,,,0,3,3,3,1,fourth,6,21,Female,R,Donders,2021-07-10_08h36.10.282,ImageRatingTask_S4,2021.1.4,Win32,60.2300789,,,,,,,,,
,,,,,,,,,,,,0,4,4,4,1,fifth,6,21,Female,R,Donders,2021-07-10_08h36.10.282,ImageRatingTask_S4,2021.1.4,Win32,60.2300789,,,,,,,,,
,,,,,,,,,,,,0,5,5,5,1,sixth,6,21,Female,R,Donders,2021-07-10_08h36.10.282,ImageRatingTask_S4,2021.1.4,Win32,60.2300789,,,,,,,,,
,,,,,,,,,,,,0,6,6,6,1,seventh,6,21,Female,R,Donders,2021-07-10_08h36.10.282,ImageRatingTask_S4,2021.1.4,Win32,60.2300789,,,,,,,,,
,,,,,,,,,,,,0,7,7,7,1,last,6,21,Female,R,Donders,2021-07-10_08h36.10.282,ImageRatingTask_S4,2021.1.4,Win32,60.2300789,,,,,,,,,
,,,,,,,,,,,,,,,,,,6,21,Female,R,Donders,2021-07-10_08h36.10.282,ImageRatingTask_S4,2021.1.4,Win32,60.2300789,0,28,28,153,1,DreamStudyImages_rs1000x750g/Children/Sleepy pose 1.jpg,,,
,,3,2.5958,7,33.3332,6,4.5231,1,0.8572,5,2.5338,0,0,0,0,1,main,6,21,Female,R,Donders,2021-07-10_08h36.10.282,ImageRatingTask_S4,2021.1.4,Win32,60.2300789,,,,,,,,,
,,,,,,,,,,,,0,1,1,1,1,second,6,21,Female,R,Donders,2021-07-10_08h36.10.282,ImageRatingTask_S4,2021.1.4,Win32,60.2300789,,,,,,,,,
,,,,,,,,,,,,0,2,2,2,1,third,6,21,Female,R,Donders,2021-07-10_08h36.10.282,ImageRatingTask_S4,2021.1.4,Win32,60.2300789,,,,,,,,,
,,,,,,,,,,,,0,3,3,3,1,fourth,6,21,Female,R,Donders,2021-07-10_08h36.10.282,ImageRatingTask_S4,2021.1.4,Win32,60.2300789,,,,,,,,,
,,,,,,,,,,,,0,4,4,4,1,fifth,6,21,Female,R,Donders,2021-07-10_08h36.10.282,ImageRatingTask_S4,2021.1.4,Win32,60.2300789,,,,,,,,,
,,,,,,,,,,,,0,5,5,5,1,sixth,6,21,Female,R,Donders,2021-07-10_08h36.10.282,ImageRatingTask_S4,2021.1.4,Win32,60.2300789,,,,,,,,,
,,,,,,,,,,,,0,6,6,6,1,seventh,6,21,Female,R,Donders,2021-07-10_08h36.10.282,ImageRatingTask_S4,2021.1.4,Win32,60.2300789,,,,,,,,,
,,,,,,,,,,,,0,7,7,7,1,last,6,21,Female,R,Donders,2021-07-10_08h36.10.282,ImageRatingTask_S4,2021.1.4,Win32,60.2300789,,,,,,,,,
,,,,,,,,,,,,,,,,,,6,21,Female,R,Donders,2021-07-10_08h36.10.282,ImageRatingTask_S4,2021.1.4,Win32,60.2300789,0,29,29,94,1,DreamStudyImages_rs1000x750g/Food/Objects_164_h.jpg,,,
,,7,3.0804,2,3.4936,5,2.633,1,1.0239,8,0.8818,0,0,0,0,1,main,6,21,Female,R,Donders,2021-07-10_08h36.10.282,ImageRatingTask_S4,2021.1.4,Win32,60.2300789,,,,,,,,,
,,,,,,,,,,,,0,1,1,1,1,second,6,21,Female,R,Donders,2021-07-10_08h36.10.282,ImageRatingTask_S4,2021.1.4,Win32,60.2300789,,,,,,,,,
,,,,,,,,,,,,0,2,2,2,1,third,6,21,Female,R,Donders,2021-07-10_08h36.10.282,ImageRatingTask_S4,2021.1.4,Win32,60.2300789,,,,,,,,,
,,,,,,,,,,,,0,3,3,3,1,fourth,6,21,Female,R,Donders,2021-07-10_08h36.10.282,ImageRatingTask_S4,2021.1.4,Win32,60.2300789,,,,,,,,,
,,,,,,,,,,,,0,4,4,4,1,fifth,6,21,Female,R,Donders,2021-07-10_08h36.10.282,ImageRatingTask_S4,2021.1.4,Win32,60.2300789,,,,,,,,,
,,,,,,,,,,,,0,5,5,5,1,sixth,6,21,Female,R,Donders,2021-07-10_08h36.10.282,ImageRatingTask_S4,2021.1.4,Win32,60.2300789,,,,,,,,,
,,,,,,,,,,,,0,6,6,6,1,seventh,6,21,Female,R,Donders,2021-07-10_08h36.10.282,ImageRatingTask_S4,2021.1.4,Win32,60.2300789,,,,,,,,,
,,,,,,,,,,,,0,7,7,7,1,last,6,21,Female,R,Donders,2021-07-10_08h36.10.282,ImageRatingTask_S4,2021.1.4,Win32,60.2300789,,,,,,,,,
,,,,,,,,,,,,,,,,,,6,21,Female,R,Donders,2021-07-10_08h36.10.282,ImageRatingTask_S4,2021.1.4,Win32,60.2300789,0,30,30,26,1,DreamStudyImages_rs1000x750g/Water/Lake 2.jpg,,,
,,7,17.802,3,1.514,6,1.7854,1,1.0706,2,0.2568,0,0,0,0,1,main,6,21,Female,R,Donders,2021-07-10_08h36.10.282,ImageRatingTask_S4,2021.1.4,Win32,60.2300789,,,,,,,,,
,,,,,,,,,,,,0,1,1,1,1,second,6,21,Female,R,Donders,2021-07-10_08h36.10.282,ImageRatingTask_S4,2021.1.4,Win32,60.2300789,,,,,,,,,
,,,,,,,,,,,,0,2,2,2,1,third,6,21,Female,R,Donders,2021-07-10_08h36.10.282,ImageRatingTask_S4,2021.1.4,Win32,60.2300789,,,,,,,,,
,,,,,,,,,,,,0,3,3,3,1,fourth,6,21,Female,R,Donders,2021-07-10_08h36.10.282,ImageRatingTask_S4,2021.1.4,Win32,60.2300789,,,,,,,,,
,,,,,,,,,,,,0,4,4,4,1,fifth,6,21,Female,R,Donders,2021-07-10_08h36.10.282,ImageRatingTask_S4,2021.1.4,Win32,60.2300789,,,,,,,,,
,,,,,,,,,,,,0,5,5,5,1,sixth,6,21,Female,R,Donders,2021-07-10_08h36.10.282,ImageRatingTask_S4,2021.1.4,Win32,60.2300789,,,,,,,,,
,,,,,,,,,,,,0,6,6,6,1,seventh,6,21,Female,R,Donders,2021-07-10_08h36.10.282,ImageRatingTask_S4,2021.1.4,Win32,60.2300789,,,,,,,,,
,,,,,,,,,,,,0,7,7,7,1,last,6,21,Female,R,Donders,2021-07-10_08h36.10.282,ImageRatingTask_S4,2021.1.4,Win32,60.2300789,,,,,,,,,
,,,,,,,,,,,,,,,,,,6,21,Female,R,Donders,2021-07-10_08h36.10.282,ImageRatingTask_S4,2021.1.4,Win32,60.2300789,0,31,31,36,1,DreamStudyImages_rs1000x750g/Children/Faces_055_h.jpg,,,
,,3,1.3284,7,1.3344,8,2.5259,1,4.494,5,1.1333,0,0,0,0,1,main,6,21,Female,R,Donders,2021-07-10_08h36.10.282,ImageRatingTask_S4,2021.1.4,Win32,60.2300789,,,,,,,,,
,,,,,,,,,,,,0,1,1,1,1,second,6,21,Female,R,Donders,2021-07-10_08h36.10.282,ImageRatingTask_S4,2021.1.4,Win32,60.2300789,,,,,,,,,
,,,,,,,,,,,,0,2,2,2,1,third,6,21,Female,R,Donders,2021-07-10_08h36.10.282,ImageRatingTask_S4,2021.1.4,Win32,60.2300789,,,,,,,,,
,,,,,,,,,,,,0,3,3,3,1,fourth,6,21,Female,R,Donders,2021-07-10_08h36.10.282,ImageRatingTask_S4,2021.1.4,Win32,60.2300789,,,,,,,,,
,,,,,,,,,,,,0,4,4,4,1,fifth,6,21,Female,R,Donders,2021-07-10_08h36.10.282,ImageRatingTask_S4,2021.1.4,Win32,60.2300789,,,,,,,,,
,,,,,,,,,,,,0,5,5,5,1,sixth,6,21,Female,R,Donders,2021-07-10_08h36.10.282,ImageRatingTask_S4,2021.1.4,Win32,60.2300789,,,,,,,,,
,,,,,,,,,,,,0,6,6,6,1,seventh,6,21,Female,R,Donders,2021-07-10_08h36.10.282,ImageRatingTask_S4,2021.1.4,Win32,60.2300789,,,,,,,,,
,,,,,,,,,,,,0,7,7,7,1,last,6,21,Female,R,Donders,2021-07-10_08h36.10.282,ImageRatingTask_S4,2021.1.4,Win32,60.2300789,,,,,,,,,
,,,,,,,,,,,,,,,,,,6,21,Female,R,Donders,2021-07-10_08h36.10.282,ImageRatingTask_S4,2021.1.4,Win32,60.2300789,0,32,32,142,1,DreamStudyImages_rs1000x750g/Food/food_neg_4bis.jpg,,,
,,5,2.2752,4,8.6008,6,5.2686,1,1.0804,7,0.9419,0,0,0,0,1,main,6,21,Female,R,Donders,2021-07-10_08h36.10.282,ImageRatingTask_S4,2021.1.4,Win32,60.2300789,,,,,,,,,
,,,,,,,,,,,,0,1,1,1,1,second,6,21,Female,R,Donders,2021-07-10_08h36.10.282,ImageRatingTask_S4,2021.1.4,Win32,60.2300789,,,,,,,,,
,,,,,,,,,,,,0,2,2,2,1,third,6,21,Female,R,Donders,2021-07-10_08h36.10.282,ImageRatingTask_S4,2021.1.4,Win32,60.2300789,,,,,,,,,
,,,,,,,,,,,,0,3,3,3,1,fourth,6,21,Female,R,Donders,2021-07-10_08h36.10.282,ImageRatingTask_S4,2021.1.4,Win32,60.2300789,,,,,,,,,
,,,,,,,,,,,,0,4,4,4,1,fifth,6,21,Female,R,Donders,2021-07-10_08h36.10.282,ImageRatingTask_S4,2021.1.4,Win32,60.2300789,,,,,,,,,
,,,,,,,,,,,,0,5,5,5,1,sixth,6,21,Female,R,Donders,2021-07-10_08h36.10.282,ImageRatingTask_S4,2021.1.4,Win32,60.2300789,,,,,,,,,
,,,,,,,,,,,,0,6,6,6,1,seventh,6,21,Female,R,Donders,2021-07-10_08h36.10.282,ImageRatingTask_S4,2021.1.4,Win32,60.2300789,,,,,,,,,
,,,,,,,,,,,,0,7,7,7,1,last,6,21,Female,R,Donders,2021-07-10_08h36.10.282,ImageRatingTask_S4,2021.1.4,Win32,60.2300789,,,,,,,,,
,,,,,,,,,,,,,,,,,,6,21,Female,R,Donders,2021-07-10_08h36.10.282,ImageRatingTask_S4,2021.1.4,Win32,60.2300789,0,33,33,53,1,DreamStudyImages_rs1000x750g/Vehicles/trainwagon.jpg,,,
,,7,2.03,6,2.1327,7,3.8492,1,1.6952,4,2.1828,0,0,0,0,1,main,6,21,Female,R,Donders,2021-07-10_08h36.10.282,ImageRatingTask_S4,2021.1.4,Win32,60.2300789,,,,,,,,,
,,,,,,,,,,,,0,1,1,1,1,second,6,21,Female,R,Donders,2021-07-10_08h36.10.282,ImageRatingTask_S4,2021.1.4,Win32,60.2300789,,,,,,,,,
,,,,,,,,,,,,0,2,2,2,1,third,6,21,Female,R,Donders,2021-07-10_08h36.10.282,ImageRatingTask_S4,2021.1.4,Win32,60.2300789,,,,,,,,,
,,,,,,,,,,,,0,3,3,3,1,fourth,6,21,Female,R,Donders,2021-07-10_08h36.10.282,ImageRatingTask_S4,2021.1.4,Win32,60.2300789,,,,,,,,,
,,,,,,,,,,,,0,4,4,4,1,fifth,6,21,Female,R,Donders,2021-07-10_08h36.10.282,ImageRatingTask_S4,2021.1.4,Win32,60.2300789,,,,,,,,,
,,,,,,,,,,,,0,5,5,5,1,sixth,6,21,Female,R,Donders,2021-07-10_08h36.10.282,ImageRatingTask_S4,2021.1.4,Win32,60.2300789,,,,,,,,,
,,,,,,,,,,,,0,6,6,6,1,seventh,6,21,Female,R,Donders,2021-07-10_08h36.10.282,ImageRatingTask_S4,2021.1.4,Win32,60.2300789,,,,,,,,,
,,,,,,,,,,,,0,7,7,7,1,last,6,21,Female,R,Donders,2021-07-10_08h36.10.282,ImageRatingTask_S4,2021.1.4,Win32,60.2300789,,,,,,,,,
,,,,,,,,,,,,,,,,,,6,21,Female,R,Donders,2021-07-10_08h36.10.282,ImageRatingTask_S4,2021.1.4,Win32,60.2300789,0,34,34,132,1,DreamStudyImages_rs1000x750g/Mammals/Animals_111_h.jpg,,,
,,7,15.9734,2,1.4467,7,3.4572,1,1.0465,8,0.9032,0,0,0,0,1,main,6,21,Female,R,Donders,2021-07-10_08h36.10.282,ImageRatingTask_S4,2021.1.4,Win32,60.2300789,,,,,,,,,
,,,,,,,,,,,,0,1,1,1,1,second,6,21,Female,R,Donders,2021-07-10_08h36.10.282,ImageRatingTask_S4,2021.1.4,Win32,60.2300789,,,,,,,,,
,,,,,,,,,,,,0,2,2,2,1,third,6,21,Female,R,Donders,2021-07-10_08h36.10.282,ImageRatingTask_S4,2021.1.4,Win32,60.2300789,,,,,,,,,
,,,,,,,,,,,,0,3,3,3,1,fourth,6,21,Female,R,Donders,2021-07-10_08h36.10.282,ImageRatingTask_S4,2021.1.4,Win32,60.2300789,,,,,,,,,
,,,,,,,,,,,,0,4,4,4,1,fifth,6,21,Female,R,Donders,2021-07-10_08h36.10.282,ImageRatingTask_S4,2021.1.4,Win32,60.2300789,,,,,,,,,
,,,,,,,,,,,,0,5,5,5,1,sixth,6,21,Female,R,Donders,2021-07-10_08h36.10.282,ImageRatingTask_S4,2021.1.4,Win32,60.2300789,,,,,,,,,
,,,,,,,,,,,,0,6,6,6,1,seventh,6,21,Female,R,Donders,2021-07-10_08h36.10.282,ImageRatingTask_S4,2021.1.4,Win32,60.2300789,,,,,,,,,
,,,,,,,,,,,,0,7,7,7,1,last,6,21,Female,R,Donders,2021-07-10_08h36.10.282,ImageRatingTask_S4,2021.1.4,Win32,60.2300789,,,,,,,,,
,,,,,,,,,,,,,,,,,,6,21,Female,R,Donders,2021-07-10_08h36.10.282,ImageRatingTask_S4,2021.1.4,Win32,60.2300789,0,35,35,122,1,DreamStudyImages_rs1000x750g/Water/riverstream.jpg,,,
,,7,38.6827,3,2.733,6,2.0677,1,74.3683,5,1.1706,0,0,0,0,1,main,6,21,Female,R,Donders,2021-07-10_08h36.10.282,ImageRatingTask_S4,2021.1.4,Win32,60.2300789,,,,,,,,,
,,,,,,,,,,,,0,1,1,1,1,second,6,21,Female,R,Donders,2021-07-10_08h36.10.282,ImageRatingTask_S4,2021.1.4,Win32,60.2300789,,,,,,,,,
,,,,,,,,,,,,0,2,2,2,1,third,6,21,Female,R,Donders,2021-07-10_08h36.10.282,ImageRatingTask_S4,2021.1.4,Win32,60.2300789,,,,,,,,,
,,,,,,,,,,,,0,3,3,3,1,fourth,6,21,Female,R,Donders,2021-07-10_08h36.10.282,ImageRatingTask_S4,2021.1.4,Win32,60.2300789,,,,,,,,,
,,,,,,,,,,,,0,4,4,4,1,fifth,6,21,Female,R,Donders,2021-07-10_08h36.10.282,ImageRatingTask_S4,2021.1.4,Win32,60.2300789,,,,,,,,,
,,,,,,,,,,,,0,5,5,5,1,sixth,6,21,Female,R,Donders,2021-07-10_08h36.10.282,ImageRatingTask_S4,2021.1.4,Win32,60.2300789,,,,,,,,,
,,,,,,,,,,,,0,6,6,6,1,seventh,6,21,Female,R,Donders,2021-07-10_08h36.10.282,ImageRatingTask_S4,2021.1.4,Win32,60.2300789,,,,,,,,,
,,,,,,,,,,,,0,7,7,7,1,last,6,21,Female,R,Donders,2021-07-10_08h36.10.282,ImageRatingTask_S4,2021.1.4,Win32,60.2300789,,,,,,,,,
,,,,,,,,,,,,,,,,,,6,21,Female,R,Donders,2021-07-10_08h36.10.282,ImageRatingTask_S4,2021.1.4,Win32,60.2300789,0,36,36,100,1,DreamStudyImages_rs1000x750g/Food/7351.jpg,,,
,,6,44.6613,3,1.9373,7,2.0572,1,0.8312,5,2.0094,0,0,0,0,1,main,6,21,Female,R,Donders,2021-07-10_08h36.10.282,ImageRatingTask_S4,2021.1.4,Win32,60.2300789,,,,,,,,,
,,,,,,,,,,,,0,1,1,1,1,second,6,21,Female,R,Donders,2021-07-10_08h36.10.282,ImageRatingTask_S4,2021.1.4,Win32,60.2300789,,,,,,,,,
,,,,,,,,,,,,0,2,2,2,1,third,6,21,Female,R,Donders,2021-07-10_08h36.10.282,ImageRatingTask_S4,2021.1.4,Win32,60.2300789,,,,,,,,,
,,,,,,,,,,,,0,3,3,3,1,fourth,6,21,Female,R,Donders,2021-07-10_08h36.10.282,ImageRatingTask_S4,2021.1.4,Win32,60.2300789,,,,,,,,,
,,,,,,,,,,,,0,4,4,4,1,fifth,6,21,Female,R,Donders,2021-07-10_08h36.10.282,ImageRatingTask_S4,2021.1.4,Win32,60.2300789,,,,,,,,,
,,,,,,,,,,,,0,5,5,5,1,sixth,6,21,Female,R,Donders,2021-07-10_08h36.10.282,ImageRatingTask_S4,2021.1.4,Win32,60.2300789,,,,,,,,,
,,,,,,,,,,,,0,6,6,6,1,seventh,6,21,Female,R,Donders,2021-07-10_08h36.10.282,ImageRatingTask_S4,2021.1.4,Win32,60.2300789,,,,,,,,,
,,,,,,,,,,,,0,7,7,7,1,last,6,21,Female,R,Donders,2021-07-10_08h36.10.282,ImageRatingTask_S4,2021.1.4,Win32,60.2300789,,,,,,,,,
,,,,,,,,,,,,,,,,,,6,21,Female,R,Donders,2021-07-10_08h36.10.282,ImageRatingTask_S4,2021.1.4,Win32,60.2300789,0,37,37,123,1,DreamStudyImages_rs1000x750g/Food/Objects_063_v.jpg,,,
,,4,10.3239,6,2.6784,6,6.5094,1,1.0989,6,0.874,0,0,0,0,1,main,6,21,Female,R,Donders,2021-07-10_08h36.10.282,ImageRatingTask_S4,2021.1.4,Win32,60.2300789,,,,,,,,,
,,,,,,,,,,,,0,1,1,1,1,second,6,21,Female,R,Donders,2021-07-10_08h36.10.282,ImageRatingTask_S4,2021.1.4,Win32,60.2300789,,,,,,,,,
,,,,,,,,,,,,0,2,2,2,1,third,6,21,Female,R,Donders,2021-07-10_08h36.10.282,ImageRatingTask_S4,2021.1.4,Win32,60.2300789,,,,,,,,,
,,,,,,,,,,,,0,3,3,3,1,fourth,6,21,Female,R,Donders,2021-07-10_08h36.10.282,ImageRatingTask_S4,2021.1.4,Win32,60.2300789,,,,,,,,,
,,,,,,,,,,,,0,4,4,4,1,fifth,6,21,Female,R,Donders,2021-07-10_08h36.10.282,ImageRatingTask_S4,2021.1.4,Win32,60.2300789,,,,,,,,,
,,,,,,,,,,,,0,5,5,5,1,sixth,6,21,Female,R,Donders,2021-07-10_08h36.10.282,ImageRatingTask_S4,2021.1.4,Win32,60.2300789,,,,,,,,,
,,,,,,,,,,,,0,6,6,6,1,seventh,6,21,Female,R,Donders,2021-07-10_08h36.10.282,ImageRatingTask_S4,2021.1.4,Win32,60.2300789,,,,,,,,,
,,,,,,,,,,,,0,7,7,7,1,last,6,21,Female,R,Donders,2021-07-10_08h36.10.282,ImageRatingTask_S4,2021.1.4,Win32,60.2300789,,,,,,,,,
,,,,,,,,,,,,,,,,,,6,21,Female,R,Donders,2021-07-10_08h36.10.282,ImageRatingTask_S4,2021.1.4,Win32,60.2300789,0,38,38,76,1,DreamStudyImages_rs1000x750g/Houses/Objects_116_v.jpg,,,
,,7,3.7543,6,0.9916,8,1.7495,1,0.6862,5,0.7243,0,0,0,0,1,main,6,21,Female,R,Donders,2021-07-10_08h36.10.282,ImageRatingTask_S4,2021.1.4,Win32,60.2300789,,,,,,,,,
,,,,,,,,,,,,0,1,1,1,1,second,6,21,Female,R,Donders,2021-07-10_08h36.10.282,ImageRatingTask_S4,2021.1.4,Win32,60.2300789,,,,,,,,,
,,,,,,,,,,,,0,2,2,2,1,third,6,21,Female,R,Donders,2021-07-10_08h36.10.282,ImageRatingTask_S4,2021.1.4,Win32,60.2300789,,,,,,,,,
,,,,,,,,,,,,0,3,3,3,1,fourth,6,21,Female,R,Donders,2021-07-10_08h36.10.282,ImageRatingTask_S4,2021.1.4,Win32,60.2300789,,,,,,,,,
,,,,,,,,,,,,0,4,4,4,1,fifth,6,21,Female,R,Donders,2021-07-10_08h36.10.282,ImageRatingTask_S4,2021.1.4,Win32,60.2300789,,,,,,,,,
,,,,,,,,,,,,0,5,5,5,1,sixth,6,21,Female,R,Donders,2021-07-10_08h36.10.282,ImageRatingTask_S4,2021.1.4,Win32,60.2300789,,,,,,,,,
,,,,,,,,,,,,0,6,6,6,1,seventh,6,21,Female,R,Donders,2021-07-10_08h36.10.282,ImageRatingTask_S4,2021.1.4,Win32,60.2300789,,,,,,,,,
,,,,,,,,,,,,0,7,7,7,1,last,6,21,Female,R,Donders,2021-07-10_08h36.10.282,ImageRatingTask_S4,2021.1.4,Win32,60.2300789,,,,,,,,,
,,,,,,,,,,,,,,,,,,6,21,Female,R,Donders,2021-07-10_08h36.10.282,ImageRatingTask_S4,2021.1.4,Win32,60.2300789,0,39,39,56,1,DreamStudyImages_rs1000x750g/Food/Objects_052_h.jpg,,,
,,4,6.4569,7,1.3776,6,1.5171,1,0.8264,2,0.6248,0,0,0,0,1,main,6,21,Female,R,Donders,2021-07-10_08h36.10.282,ImageRatingTask_S4,2021.1.4,Win32,60.2300789,,,,,,,,,
,,,,,,,,,,,,0,1,1,1,1,second,6,21,Female,R,Donders,2021-07-10_08h36.10.282,ImageRatingTask_S4,2021.1.4,Win32,60.2300789,,,,,,,,,
,,,,,,,,,,,,0,2,2,2,1,third,6,21,Female,R,Donders,2021-07-10_08h36.10.282,ImageRatingTask_S4,2021.1.4,Win32,60.2300789,,,,,,,,,
,,,,,,,,,,,,0,3,3,3,1,fourth,6,21,Female,R,Donders,2021-07-10_08h36.10.282,ImageRatingTask_S4,2021.1.4,Win32,60.2300789,,,,,,,,,
,,,,,,,,,,,,0,4,4,4,1,fifth,6,21,Female,R,Donders,2021-07-10_08h36.10.282,ImageRatingTask_S4,2021.1.4,Win32,60.2300789,,,,,,,,,
,,,,,,,,,,,,0,5,5,5,1,sixth,6,21,Female,R,Donders,2021-07-10_08h36.10.282,ImageRatingTask_S4,2021.1.4,Win32,60.2300789,,,,,,,,,
,,,,,,,,,,,,0,6,6,6,1,seventh,6,21,Female,R,Donders,2021-07-10_08h36.10.282,ImageRatingTask_S4,2021.1.4,Win32,60.2300789,,,,,,,,,
,,,,,,,,,,,,0,7,7,7,1,last,6,21,Female,R,Donders,2021-07-10_08h36.10.282,ImageRatingTask_S4,2021.1.4,Win32,60.2300789,,,,,,,,,
,,,,,,,,,,,,,,,,,,6,21,Female,R,Donders,2021-07-10_08h36.10.282,ImageRatingTask_S4,2021.1.4,Win32,60.2300789,0,40,40,60,1,DreamStudyImages_rs1000x750g/Mammals/Dog 31.jpg,,,
,,7,9.1353,4,1.252,7,3.1476,1,0.6994,5,0.7244,0,0,0,0,1,main,6,21,Female,R,Donders,2021-07-10_08h36.10.282,ImageRatingTask_S4,2021.1.4,Win32,60.2300789,,,,,,,,,
,,,,,,,,,,,,0,1,1,1,1,second,6,21,Female,R,Donders,2021-07-10_08h36.10.282,ImageRatingTask_S4,2021.1.4,Win32,60.2300789,,,,,,,,,
,,,,,,,,,,,,0,2,2,2,1,third,6,21,Female,R,Donders,2021-07-10_08h36.10.282,ImageRatingTask_S4,2021.1.4,Win32,60.2300789,,,,,,,,,
,,,,,,,,,,,,0,3,3,3,1,fourth,6,21,Female,R,Donders,2021-07-10_08h36.10.282,ImageRatingTask_S4,2021.1.4,Win32,60.2300789,,,,,,,,,
,,,,,,,,,,,,0,4,4,4,1,fifth,6,21,Female,R,Donders,2021-07-10_08h36.10.282,ImageRatingTask_S4,2021.1.4,Win32,60.2300789,,,,,,,,,
,,,,,,,,,,,,0,5,5,5,1,sixth,6,21,Female,R,Donders,2021-07-10_08h36.10.282,ImageRatingTask_S4,2021.1.4,Win32,60.2300789,,,,,,,,,
,,,,,,,,,,,,0,6,6,6,1,seventh,6,21,Female,R,Donders,2021-07-10_08h36.10.282,ImageRatingTask_S4,2021.1.4,Win32,60.2300789,,,,,,,,,
,,,,,,,,,,,,0,7,7,7,1,last,6,21,Female,R,Donders,2021-07-10_08h36.10.282,ImageRatingTask_S4,2021.1.4,Win32,60.2300789,,,,,,,,,
,,,,,,,,,,,,,,,,,,6,21,Female,R,Donders,2021-07-10_08h36.10.282,ImageRatingTask_S4,2021.1.4,Win32,60.2300789,0,41,41,96,1,DreamStudyImages_rs1000x750g/Food/Objects_030_v.jpg,,,
,,5,10.0514,2,1.0947,5,1.5367,1,0.6331,7,0.7262,0,0,0,0,1,main,6,21,Female,R,Donders,2021-07-10_08h36.10.282,ImageRatingTask_S4,2021.1.4,Win32,60.2300789,,,,,,,,,
,,,,,,,,,,,,0,1,1,1,1,second,6,21,Female,R,Donders,2021-07-10_08h36.10.282,ImageRatingTask_S4,2021.1.4,Win32,60.2300789,,,,,,,,,
,,,,,,,,,,,,0,2,2,2,1,third,6,21,Female,R,Donders,2021-07-10_08h36.10.282,ImageRatingTask_S4,2021.1.4,Win32,60.2300789,,,,,,,,,
,,,,,,,,,,,,0,3,3,3,1,fourth,6,21,Female,R,Donders,2021-07-10_08h36.10.282,ImageRatingTask_S4,2021.1.4,Win32,60.2300789,,,,,,,,,
,,,,,,,,,,,,0,4,4,4,1,fifth,6,21,Female,R,Donders,2021-07-10_08h36.10.282,ImageRatingTask_S4,2021.1.4,Win32,60.2300789,,,,,,,,,
,,,,,,,,,,,,0,5,5,5,1,sixth,6,21,Female,R,Donders,2021-07-10_08h36.10.282,ImageRatingTask_S4,2021.1.4,Win32,60.2300789,,,,,,,,,
,,,,,,,,,,,,0,6,6,6,1,seventh,6,21,Female,R,Donders,2021-07-10_08h36.10.282,ImageRatingTask_S4,2021.1.4,Win32,60.2300789,,,,,,,,,
,,,,,,,,,,,,0,7,7,7,1,last,6,21,Female,R,Donders,2021-07-10_08h36.10.282,ImageRatingTask_S4,2021.1.4,Win32,60.2300789,,,,,,,,,
,,,,,,,,,,,,,,,,,,6,21,Female,R,Donders,2021-07-10_08h36.10.282,ImageRatingTask_S4,2021.1.4,Win32,60.2300789,0,42,42,75,1,DreamStudyImages_rs1000x750g/Vehicles/IAPS7095_carlight.jpg,,,
,,4,3.5946,7,2.5646,3,2.1637,1,1.5548,3,1.2558,0,0,0,0,1,main,6,21,Female,R,Donders,2021-07-10_08h36.10.282,ImageRatingTask_S4,2021.1.4,Win32,60.2300789,,,,,,,,,
,,,,,,,,,,,,0,1,1,1,1,second,6,21,Female,R,Donders,2021-07-10_08h36.10.282,ImageRatingTask_S4,2021.1.4,Win32,60.2300789,,,,,,,,,
,,,,,,,,,,,,0,2,2,2,1,third,6,21,Female,R,Donders,2021-07-10_08h36.10.282,ImageRatingTask_S4,2021.1.4,Win32,60.2300789,,,,,,,,,
,,,,,,,,,,,,0,3,3,3,1,fourth,6,21,Female,R,Donders,2021-07-10_08h36.10.282,ImageRatingTask_S4,2021.1.4,Win32,60.2300789,,,,,,,,,
,,,,,,,,,,,,0,4,4,4,1,fifth,6,21,Female,R,Donders,2021-07-10_08h36.10.282,ImageRatingTask_S4,2021.1.4,Win32,60.2300789,,,,,,,,,
,,,,,,,,,,,,0,5,5,5,1,sixth,6,21,Female,R,Donders,2021-07-10_08h36.10.282,ImageRatingTask_S4,2021.1.4,Win32,60.2300789,,,,,,,,,
,,,,,,,,,,,,0,6,6,6,1,seventh,6,21,Female,R,Donders,2021-07-10_08h36.10.282,ImageRatingTask_S4,2021.1.4,Win32,60.2300789,,,,,,,,,
,,,,,,,,,,,,0,7,7,7,1,last,6,21,Female,R,Donders,2021-07-10_08h36.10.282,ImageRatingTask_S4,2021.1.4,Win32,60.2300789,,,,,,,,,
,,,,,,,,,,,,,,,,,,6,21,Female,R,Donders,2021-07-10_08h36.10.282,ImageRatingTask_S4,2021.1.4,Win32,60.2300789,0,43,43,121,1,DreamStudyImages_rs1000x750g/Mammals/IAPS1300_dog1.jpg,,,
,,5,3.2091,3,1.0461,6,1.6552,1,0.6409,5,1.6623,0,0,0,0,1,main,6,21,Female,R,Donders,2021-07-10_08h36.10.282,ImageRatingTask_S4,2021.1.4,Win32,60.2300789,,,,,,,,,
,,,,,,,,,,,,0,1,1,1,1,second,6,21,Female,R,Donders,2021-07-10_08h36.10.282,ImageRatingTask_S4,2021.1.4,Win32,60.2300789,,,,,,,,,
,,,,,,,,,,,,0,2,2,2,1,third,6,21,Female,R,Donders,2021-07-10_08h36.10.282,ImageRatingTask_S4,2021.1.4,Win32,60.2300789,,,,,,,,,
,,,,,,,,,,,,0,3,3,3,1,fourth,6,21,Female,R,Donders,2021-07-10_08h36.10.282,ImageRatingTask_S4,2021.1.4,Win32,60.2300789,,,,,,,,,
,,,,,,,,,,,,0,4,4,4,1,fifth,6,21,Female,R,Donders,2021-07-10_08h36.10.282,ImageRatingTask_S4,2021.1.4,Win32,60.2300789,,,,,,,,,
,,,,,,,,,,,,0,5,5,5,1,sixth,6,21,Female,R,Donders,2021-07-10_08h36.10.282,ImageRatingTask_S4,2021.1.4,Win32,60.2300789,,,,,,,,,
,,,,,,,,,,,,0,6,6,6,1,seventh,6,21,Female,R,Donders,2021-07-10_08h36.10.282,ImageRatingTask_S4,2021.1.4,Win32,60.2300789,,,,,,,,,
,,,,,,,,,,,,0,7,7,7,1,last,6,21,Female,R,Donders,2021-07-10_08h36.10.282,ImageRatingTask_S4,2021.1.4,Win32,60.2300789,,,,,,,,,
,,,,,,,,,,,,,,,,,,6,21,Female,R,Donders,2021-07-10_08h36.10.282,ImageRatingTask_S4,2021.1.4,Win32,60.2300789,0,44,44,14,1,DreamStudyImages_rs1000x750g/Food/Objects_072_v.jpg,,,
,,7,13.5551,6,2.6725,6,2.6486,1,0.4673,5,0.6451,0,0,0,0,1,main,6,21,Female,R,Donders,2021-07-10_08h36.10.282,ImageRatingTask_S4,2021.1.4,Win32,60.2300789,,,,,,,,,
,,,,,,,,,,,,0,1,1,1,1,second,6,21,Female,R,Donders,2021-07-10_08h36.10.282,ImageRatingTask_S4,2021.1.4,Win32,60.2300789,,,,,,,,,
,,,,,,,,,,,,0,2,2,2,1,third,6,21,Female,R,Donders,2021-07-10_08h36.10.282,ImageRatingTask_S4,2021.1.4,Win32,60.2300789,,,,,,,,,
,,,,,,,,,,,,0,3,3,3,1,fourth,6,21,Female,R,Donders,2021-07-10_08h36.10.282,ImageRatingTask_S4,2021.1.4,Win32,60.2300789,,,,,,,,,
,,,,,,,,,,,,0,4,4,4,1,fifth,6,21,Female,R,Donders,2021-07-10_08h36.10.282,ImageRatingTask_S4,2021.1.4,Win32,60.2300789,,,,,,,,,
,,,,,,,,,,,,0,5,5,5,1,sixth,6,21,Female,R,Donders,2021-07-10_08h36.10.282,ImageRatingTask_S4,2021.1.4,Win32,60.2300789,,,,,,,,,
,,,,,,,,,,,,0,6,6,6,1,seventh,6,21,Female,R,Donders,2021-07-10_08h36.10.282,ImageRatingTask_S4,2021.1.4,Win32,60.2300789,,,,,,,,,
,,,,,,,,,,,,0,7,7,7,1,last,6,21,Female,R,Donders,2021-07-10_08h36.10.282,ImageRatingTask_S4,2021.1.4,Win32,60.2300789,,,,,,,,,
,,,,,,,,,,,,,,,,,,6,21,Female,R,Donders,2021-07-10_08h36.10.282,ImageRatingTask_S4,2021.1.4,Win32,60.2300789,0,45,45,7,1,DreamStudyImages_rs1000x750g/Food/IAPS7220_pastries.jpg,,,
,,7,5.2974,3,1.1318,8,1.784,1,0.7884,2,0.6078,0,0,0,0,1,main,6,21,Female,R,Donders,2021-07-10_08h36.10.282,ImageRatingTask_S4,2021.1.4,Win32,60.2300789,,,,,,,,,
,,,,,,,,,,,,0,1,1,1,1,second,6,21,Female,R,Donders,2021-07-10_08h36.10.282,ImageRatingTask_S4,2021.1.4,Win32,60.2300789,,,,,,,,,
,,,,,,,,,,,,0,2,2,2,1,third,6,21,Female,R,Donders,2021-07-10_08h36.10.282,ImageRatingTask_S4,2021.1.4,Win32,60.2300789,,,,,,,,,
,,,,,,,,,,,,0,3,3,3,1,fourth,6,21,Female,R,Donders,2021-07-10_08h36.10.282,ImageRatingTask_S4,2021.1.4,Win32,60.2300789,,,,,,,,,
,,,,,,,,,,,,0,4,4,4,1,fifth,6,21,Female,R,Donders,2021-07-10_08h36.10.282,ImageRatingTask_S4,2021.1.4,Win32,60.2300789,,,,,,,,,
,,,,,,,,,,,,0,5,5,5,1,sixth,6,21,Female,R,Donders,2021-07-10_08h36.10.282,ImageRatingTask_S4,2021.1.4,Win32,60.2300789,,,,,,,,,
,,,,,,,,,,,,0,6,6,6,1,seventh,6,21,Female,R,Donders,2021-07-10_08h36.10.282,ImageRatingTask_S4,2021.1.4,Win32,60.2300789,,,,,,,,,
,,,,,,,,,,,,0,7,7,7,1,last,6,21,Female,R,Donders,2021-07-10_08h36.10.282,ImageRatingTask_S4,2021.1.4,Win32,60.2300789,,,,,,,,,
,,,,,,,,,,,,,,,,,,6,21,Female,R,Donders,2021-07-10_08h36.10.282,ImageRatingTask_S4,2021.1.4,Win32,60.2300789,0,46,46,34,1,DreamStudyImages_rs1000x750g/Children/Baby 8.jpg,,,
,,4,12.1906,6,3.6097,4,2.5555,1,1.0486,8,1.58,0,0,0,0,1,main,6,21,Female,R,Donders,2021-07-10_08h36.10.282,ImageRatingTask_S4,2021.1.4,Win32,60.2300789,,,,,,,,,
,,,,,,,,,,,,0,1,1,1,1,second,6,21,Female,R,Donders,2021-07-10_08h36.10.282,ImageRatingTask_S4,2021.1.4,Win32,60.2300789,,,,,,,,,
,,,,,,,,,,,,0,2,2,2,1,third,6,21,Female,R,Donders,2021-07-10_08h36.10.282,ImageRatingTask_S4,2021.1.4,Win32,60.2300789,,,,,,,,,
,,,,,,,,,,,,0,3,3,3,1,fourth,6,21,Female,R,Donders,2021-07-10_08h36.10.282,ImageRatingTask_S4,2021.1.4,Win32,60.2300789,,,,,,,,,
,,,,,,,,,,,,0,4,4,4,1,fifth,6,21,Female,R,Donders,2021-07-10_08h36.10.282,ImageRatingTask_S4,2021.1.4,Win32,60.2300789,,,,,,,,,
,,,,,,,,,,,,0,5,5,5,1,sixth,6,21,Female,R,Donders,2021-07-10_08h36.10.282,ImageRatingTask_S4,2021.1.4,Win32,60.2300789,,,,,,,,,
,,,,,,,,,,,,0,6,6,6,1,seventh,6,21,Female,R,Donders,2021-07-10_08h36.10.282,ImageRatingTask_S4,2021.1.4,Win32,60.2300789,,,,,,,,,
,,,,,,,,,,,,0,7,7,7,1,last,6,21,Female,R,Donders,2021-07-10_08h36.10.282,ImageRatingTask_S4,2021.1.4,Win32,60.2300789,,,,,,,,,
,,,,,,,,,,,,,,,,,,6,21,Female,R,Donders,2021-07-10_08h36.10.282,ImageRatingTask_S4,2021.1.4,Win32,60.2300789,0,47,47,106,1,DreamStudyImages_rs1000x750g/Water/Thunderstorm 11.jpg,,,
,,3,17.6507,6,1.4303,6,1.6489,1,1.0683,2,0.3103,0,0,0,0,1,main,6,21,Female,R,Donders,2021-07-10_08h36.10.282,ImageRatingTask_S4,2021.1.4,Win32,60.2300789,,,,,,,,,
,,,,,,,,,,,,0,1,1,1,1,second,6,21,Female,R,Donders,2021-07-10_08h36.10.282,ImageRatingTask_S4,2021.1.4,Win32,60.2300789,,,,,,,,,
,,,,,,,,,,,,0,2,2,2,1,third,6,21,Female,R,Donders,2021-07-10_08h36.10.282,ImageRatingTask_S4,2021.1.4,Win32,60.2300789,,,,,,,,,
,,,,,,,,,,,,0,3,3,3,1,fourth,6,21,Female,R,Donders,2021-07-10_08h36.10.282,ImageRatingTask_S4,2021.1.4,Win32,60.2300789,,,,,,,,,
,,,,,,,,,,,,0,4,4,4,1,fifth,6,21,Female,R,Donders,2021-07-10_08h36.10.282,ImageRatingTask_S4,2021.1.4,Win32,60.2300789,,,,,,,,,
,,,,,,,,,,,,0,5,5,5,1,sixth,6,21,Female,R,Donders,2021-07-10_08h36.10.282,ImageRatingTask_S4,2021.1.4,Win32,60.2300789,,,,,,,,,
,,,,,,,,,,,,0,6,6,6,1,seventh,6,21,Female,R,Donders,2021-07-10_08h36.10.282,ImageRatingTask_S4,2021.1.4,Win32,60.2300789,,,,,,,,,
,,,,,,,,,,,,0,7,7,7,1,last,6,21,Female,R,Donders,2021-07-10_08h36.10.282,ImageRatingTask_S4,2021.1.4,Win32,60.2300789,,,,,,,,,
,,,,,,,,,,,,,,,,,,6,21,Female,R,Donders,2021-07-10_08h36.10.282,ImageRatingTask_S4,2021.1.4,Win32,60.2300789,0,48,48,102,1,DreamStudyImages_rs1000x750g/Children/Faces_005_h.jpg,,,
,,8,2.0634,6,1.1876,7,1.8025,1,1.6715,3,1.3731,0,0,0,0,1,main,6,21,Female,R,Donders,2021-07-10_08h36.10.282,ImageRatingTask_S4,2021.1.4,Win32,60.2300789,,,,,,,,,
,,,,,,,,,,,,0,1,1,1,1,second,6,21,Female,R,Donders,2021-07-10_08h36.10.282,ImageRatingTask_S4,2021.1.4,Win32,60.2300789,,,,,,,,,
,,,,,,,,,,,,0,2,2,2,1,third,6,21,Female,R,Donders,2021-07-10_08h36.10.282,ImageRatingTask_S4,2021.1.4,Win32,60.2300789,,,,,,,,,
,,,,,,,,,,,,0,3,3,3,1,fourth,6,21,Female,R,Donders,2021-07-10_08h36.10.282,ImageRatingTask_S4,2021.1.4,Win32,60.2300789,,,,,,,,,
,,,,,,,,,,,,0,4,4,4,1,fifth,6,21,Female,R,Donders,2021-07-10_08h36.10.282,ImageRatingTask_S4,2021.1.4,Win32,60.2300789,,,,,,,,,
,,,,,,,,,,,,0,5,5,5,1,sixth,6,21,Female,R,Donders,2021-07-10_08h36.10.282,ImageRatingTask_S4,2021.1.4,Win32,60.2300789,,,,,,,,,
,,,,,,,,,,,,0,6,6,6,1,seventh,6,21,Female,R,Donders,2021-07-10_08h36.10.282,ImageRatingTask_S4,2021.1.4,Win32,60.2300789,,,,,,,,,
,,,,,,,,,,,,0,7,7,7,1,last,6,21,Female,R,Donders,2021-07-10_08h36.10.282,ImageRatingTask_S4,2021.1.4,Win32,60.2300789,,,,,,,,,
,,,,,,,,,,,,,,,,,,6,21,Female,R,Donders,2021-07-10_08h36.10.282,ImageRatingTask_S4,2021.1.4,Win32,60.2300789,0,49,49,40,1,DreamStudyImages_rs1000x750g/Mammals/Animals_158_h.jpg,,,
,,7,4.3238,5,1.1877,5,1.5511,1,0.717,5,0.8075,0,0,0,0,1,main,6,21,Female,R,Donders,2021-07-10_08h36.10.282,ImageRatingTask_S4,2021.1.4,Win32,60.2300789,,,,,,,,,
,,,,,,,,,,,,0,1,1,1,1,second,6,21,Female,R,Donders,2021-07-10_08h36.10.282,ImageRatingTask_S4,2021.1.4,Win32,60.2300789,,,,,,,,,
,,,,,,,,,,,,0,2,2,2,1,third,6,21,Female,R,Donders,2021-07-10_08h36.10.282,ImageRatingTask_S4,2021.1.4,Win32,60.2300789,,,,,,,,,
,,,,,,,,,,,,0,3,3,3,1,fourth,6,21,Female,R,Donders,2021-07-10_08h36.10.282,ImageRatingTask_S4,2021.1.4,Win32,60.2300789,,,,,,,,,
,,,,,,,,,,,,0,4,4,4,1,fifth,6,21,Female,R,Donders,2021-07-10_08h36.10.282,ImageRatingTask_S4,2021.1.4,Win32,60.2300789,,,,,,,,,
,,,,,,,,,,,,0,5,5,5,1,sixth,6,21,Female,R,Donders,2021-07-10_08h36.10.282,ImageRatingTask_S4,2021.1.4,Win32,60.2300789,,,,,,,,,
,,,,,,,,,,,,0,6,6,6,1,seventh,6,21,Female,R,Donders,2021-07-10_08h36.10.282,ImageRatingTask_S4,2021.1.4,Win32,60.2300789,,,,,,,,,
,,,,,,,,,,,,0,7,7,7,1,last,6,21,Female,R,Donders,2021-07-10_08h36.10.282,ImageRatingTask_S4,2021.1.4,Win32,60.2300789,,,,,,,,,
,,,,,,,,,,,,,,,,,,6,21,Female,R,Donders,2021-07-10_08h36.10.282,ImageRatingTask_S4,2021.1.4,Win32,60.2300789,0,50,50,69,1,DreamStudyImages_rs1000x750g/Food/IAPS7400_chocolate.jpg,,,
,,5,2.5738,2,2.7552,8,2.0532,1,0.7485,7,0.924,0,0,0,0,1,main,6,21,Female,R,Donders,2021-07-10_08h36.10.282,ImageRatingTask_S4,2021.1.4,Win32,60.2300789,,,,,,,,,
,,,,,,,,,,,,0,1,1,1,1,second,6,21,Female,R,Donders,2021-07-10_08h36.10.282,ImageRatingTask_S4,2021.1.4,Win32,60.2300789,,,,,,,,,
,,,,,,,,,,,,0,2,2,2,1,third,6,21,Female,R,Donders,2021-07-10_08h36.10.282,ImageRatingTask_S4,2021.1.4,Win32,60.2300789,,,,,,,,,
,,,,,,,,,,,,0,3,3,3,1,fourth,6,21,Female,R,Donders,2021-07-10_08h36.10.282,ImageRatingTask_S4,2021.1.4,Win32,60.2300789,,,,,,,,,
,,,,,,,,,,,,0,4,4,4,1,fifth,6,21,Female,R,Donders,2021-07-10_08h36.10.282,ImageRatingTask_S4,2021.1.4,Win32,60.2300789,,,,,,,,,
,,,,,,,,,,,,0,5,5,5,1,sixth,6,21,Female,R,Donders,2021-07-10_08h36.10.282,ImageRatingTask_S4,2021.1.4,Win32,60.2300789,,,,,,,,,
,,,,,,,,,,,,0,6,6,6,1,seventh,6,21,Female,R,Donders,2021-07-10_08h36.10.282,ImageRatingTask_S4,2021.1.4,Win32,60.2300789,,,,,,,,,
,,,,,,,,,,,,0,7,7,7,1,last,6,21,Female,R,Donders,2021-07-10_08h36.10.282,ImageRatingTask_S4,2021.1.4,Win32,60.2300789,,,,,,,,,
,,,,,,,,,,,,,,,,,,6,21,Female,R,Donders,2021-07-10_08h36.10.282,ImageRatingTask_S4,2021.1.4,Win32,60.2300789,0,51,51,103,1,DreamStudyImages_rs1000x750g/Vehicles/Objects_320_h.jpg,,,
,,6,2.1791,2,2.9495,6,1.8128,1,0.6685,2,0.4401,0,0,0,0,1,main,6,21,Female,R,Donders,2021-07-10_08h36.10.282,ImageRatingTask_S4,2021.1.4,Win32,60.2300789,,,,,,,,,
,,,,,,,,,,,,0,1,1,1,1,second,6,21,Female,R,Donders,2021-07-10_08h36.10.282,ImageRatingTask_S4,2021.1.4,Win32,60.2300789,,,,,,,,,
,,,,,,,,,,,,0,2,2,2,1,third,6,21,Female,R,Donders,2021-07-10_08h36.10.282,ImageRatingTask_S4,2021.1.4,Win32,60.2300789,,,,,,,,,
,,,,,,,,,,,,0,3,3,3,1,fourth,6,21,Female,R,Donders,2021-07-10_08h36.10.282,ImageRatingTask_S4,2021.1.4,Win32,60.2300789,,,,,,,,,
,,,,,,,,,,,,0,4,4,4,1,fifth,6,21,Female,R,Donders,2021-07-10_08h36.10.282,ImageRatingTask_S4,2021.1.4,Win32,60.2300789,,,,,,,,,
,,,,,,,,,,,,0,5,5,5,1,sixth,6,21,Female,R,Donders,2021-07-10_08h36.10.282,ImageRatingTask_S4,2021.1.4,Win32,60.2300789,,,,,,,,,
,,,,,,,,,,,,0,6,6,6,1,seventh,6,21,Female,R,Donders,2021-07-10_08h36.10.282,ImageRatingTask_S4,2021.1.4,Win32,60.2300789,,,,,,,,,
,,,,,,,,,,,,0,7,7,7,1,last,6,21,Female,R,Donders,2021-07-10_08h36.10.282,ImageRatingTask_S4,2021.1.4,Win32,60.2300789,,,,,,,,,
,,,,,,,,,,,,,,,,,,6,21,Female,R,Donders,2021-07-10_08h36.10.282,ImageRatingTask_S4,2021.1.4,Win32,60.2300789,0,52,52,98,1,DreamStudyImages_rs1000x750g/Children/Faces_058_h.jpg,,,
,,7,2.1451,2,1.1474,5,4.0072,1,0.7211,3,1.2241,0,0,0,0,1,main,6,21,Female,R,Donders,2021-07-10_08h36.10.282,ImageRatingTask_S4,2021.1.4,Win32,60.2300789,,,,,,,,,
,,,,,,,,,,,,0,1,1,1,1,second,6,21,Female,R,Donders,2021-07-10_08h36.10.282,ImageRatingTask_S4,2021.1.4,Win32,60.2300789,,,,,,,,,
,,,,,,,,,,,,0,2,2,2,1,third,6,21,Female,R,Donders,2021-07-10_08h36.10.282,ImageRatingTask_S4,2021.1.4,Win32,60.2300789,,,,,,,,,
,,,,,,,,,,,,0,3,3,3,1,fourth,6,21,Female,R,Donders,2021-07-10_08h36.10.282,ImageRatingTask_S4,2021.1.4,Win32,60.2300789,,,,,,,,,
,,,,,,,,,,,,0,4,4,4,1,fifth,6,21,Female,R,Donders,2021-07-10_08h36.10.282,ImageRatingTask_S4,2021.1.4,Win32,60.2300789,,,,,,,,,
,,,,,,,,,,,,0,5,5,5,1,sixth,6,21,Female,R,Donders,2021-07-10_08h36.10.282,ImageRatingTask_S4,2021.1.4,Win32,60.2300789,,,,,,,,,
,,,,,,,,,,,,0,6,6,6,1,seventh,6,21,Female,R,Donders,2021-07-10_08h36.10.282,ImageRatingTask_S4,2021.1.4,Win32,60.2300789,,,,,,,,,
,,,,,,,,,,,,0,7,7,7,1,last,6,21,Female,R,Donders,2021-07-10_08h36.10.282,ImageRatingTask_S4,2021.1.4,Win32,60.2300789,,,,,,,,,
,,,,,,,,,,,,,,,,,,6,21,Female,R,Donders,2021-07-10_08h36.10.282,ImageRatingTask_S4,2021.1.4,Win32,60.2300789,0,53,53,74,1,DreamStudyImages_rs1000x750g/Mammals/1675.jpg,,,
,,6,5.908,2,1.112,6,1.4399,1,0.6502,2,1.2764,0,0,0,0,1,main,6,21,Female,R,Donders,2021-07-10_08h36.10.282,ImageRatingTask_S4,2021.1.4,Win32,60.2300789,,,,,,,,,
,,,,,,,,,,,,0,1,1,1,1,second,6,21,Female,R,Donders,2021-07-10_08h36.10.282,ImageRatingTask_S4,2021.1.4,Win32,60.2300789,,,,,,,,,
,,,,,,,,,,,,0,2,2,2,1,third,6,21,Female,R,Donders,2021-07-10_08h36.10.282,ImageRatingTask_S4,2021.1.4,Win32,60.2300789,,,,,,,,,
,,,,,,,,,,,,0,3,3,3,1,fourth,6,21,Female,R,Donders,2021-07-10_08h36.10.282,ImageRatingTask_S4,2021.1.4,Win32,60.2300789,,,,,,,,,
,,,,,,,,,,,,0,4,4,4,1,fifth,6,21,Female,R,Donders,2021-07-10_08h36.10.282,ImageRatingTask_S4,2021.1.4,Win32,60.2300789,,,,,,,,,
,,,,,,,,,,,,0,5,5,5,1,sixth,6,21,Female,R,Donders,2021-07-10_08h36.10.282,ImageRatingTask_S4,2021.1.4,Win32,60.2300789,,,,,,,,,
,,,,,,,,,,,,0,6,6,6,1,seventh,6,21,Female,R,Donders,2021-07-10_08h36.10.282,ImageRatingTask_S4,2021.1.4,Win32,60.2300789,,,,,,,,,
,,,,,,,,,,,,0,7,7,7,1,last,6,21,Female,R,Donders,2021-07-10_08h36.10.282,ImageRatingTask_S4,2021.1.4,Win32,60.2300789,,,,,,,,,
,,,,,,,,,,,,,,,,,,6,21,Female,R,Donders,2021-07-10_08h36.10.282,ImageRatingTask_S4,2021.1.4,Win32,60.2300789,0,54,54,63,1,DreamStudyImages_rs1000x750g/Children/Faces_042_h.jpg,,,
,,4,1.3481,8,1.5172,8,3.382,1,1.2477,3,1.2032,0,0,0,0,1,main,6,21,Female,R,Donders,2021-07-10_08h36.10.282,ImageRatingTask_S4,2021.1.4,Win32,60.2300789,,,,,,,,,
,,,,,,,,,,,,0,1,1,1,1,second,6,21,Female,R,Donders,2021-07-10_08h36.10.282,ImageRatingTask_S4,2021.1.4,Win32,60.2300789,,,,,,,,,
,,,,,,,,,,,,0,2,2,2,1,third,6,21,Female,R,Donders,2021-07-10_08h36.10.282,ImageRatingTask_S4,2021.1.4,Win32,60.2300789,,,,,,,,,
,,,,,,,,,,,,0,3,3,3,1,fourth,6,21,Female,R,Donders,2021-07-10_08h36.10.282,ImageRatingTask_S4,2021.1.4,Win32,60.2300789,,,,,,,,,
,,,,,,,,,,,,0,4,4,4,1,fifth,6,21,Female,R,Donders,2021-07-10_08h36.10.282,ImageRatingTask_S4,2021.1.4,Win32,60.2300789,,,,,,,,,
,,,,,,,,,,,,0,5,5,5,1,sixth,6,21,Female,R,Donders,2021-07-10_08h36.10.282,ImageRatingTask_S4,2021.1.4,Win32,60.2300789,,,,,,,,,
,,,,,,,,,,,,0,6,6,6,1,seventh,6,21,Female,R,Donders,2021-07-10_08h36.10.282,ImageRatingTask_S4,2021.1.4,Win32,60.2300789,,,,,,,,,
,,,,,,,,,,,,0,7,7,7,1,last,6,21,Female,R,Donders,2021-07-10_08h36.10.282,ImageRatingTask_S4,2021.1.4,Win32,60.2300789,,,,,,,,,
,,,,,,,,,,,,,,,,,,6,21,Female,R,Donders,2021-07-10_08h36.10.282,ImageRatingTask_S4,2021.1.4,Win32,60.2300789,0,55,55,113,1,DreamStudyImages_rs1000x750g/Mammals/Animals_034_h.jpg,,,
,,7,2.4457,3,0.9282,8,3.5321,1,1.4301,5,1.077,0,0,0,0,1,main,6,21,Female,R,Donders,2021-07-10_08h36.10.282,ImageRatingTask_S4,2021.1.4,Win32,60.2300789,,,,,,,,,
,,,,,,,,,,,,0,1,1,1,1,second,6,21,Female,R,Donders,2021-07-10_08h36.10.282,ImageRatingTask_S4,2021.1.4,Win32,60.2300789,,,,,,,,,
,,,,,,,,,,,,0,2,2,2,1,third,6,21,Female,R,Donders,2021-07-10_08h36.10.282,ImageRatingTask_S4,2021.1.4,Win32,60.2300789,,,,,,,,,
,,,,,,,,,,,,0,3,3,3,1,fourth,6,21,Female,R,Donders,2021-07-10_08h36.10.282,ImageRatingTask_S4,2021.1.4,Win32,60.2300789,,,,,,,,,
,,,,,,,,,,,,0,4,4,4,1,fifth,6,21,Female,R,Donders,2021-07-10_08h36.10.282,ImageRatingTask_S4,2021.1.4,Win32,60.2300789,,,,,,,,,
,,,,,,,,,,,,0,5,5,5,1,sixth,6,21,Female,R,Donders,2021-07-10_08h36.10.282,ImageRatingTask_S4,2021.1.4,Win32,60.2300789,,,,,,,,,
,,,,,,,,,,,,0,6,6,6,1,seventh,6,21,Female,R,Donders,2021-07-10_08h36.10.282,ImageRatingTask_S4,2021.1.4,Win32,60.2300789,,,,,,,,,
,,,,,,,,,,,,0,7,7,7,1,last,6,21,Female,R,Donders,2021-07-10_08h36.10.282,ImageRatingTask_S4,2021.1.4,Win32,60.2300789,,,,,,,,,
,,,,,,,,,,,,,,,,,,6,21,Female,R,Donders,2021-07-10_08h36.10.282,ImageRatingTask_S4,2021.1.4,Win32,60.2300789,0,56,56,52,1,DreamStudyImages_rs1000x750g/Food/Objects_086_h.jpg,,,
,,5,22.0635,2,0.7772,8,1.7834,1,0.7308,7,1.2186,0,0,0,0,1,main,6,21,Female,R,Donders,2021-07-10_08h36.10.282,ImageRatingTask_S4,2021.1.4,Win32,60.2300789,,,,,,,,,
,,,,,,,,,,,,0,1,1,1,1,second,6,21,Female,R,Donders,2021-07-10_08h36.10.282,ImageRatingTask_S4,2021.1.4,Win32,60.2300789,,,,,,,,,
,,,,,,,,,,,,0,2,2,2,1,third,6,21,Female,R,Donders,2021-07-10_08h36.10.282,ImageRatingTask_S4,2021.1.4,Win32,60.2300789,,,,,,,,,
,,,,,,,,,,,,0,3,3,3,1,fourth,6,21,Female,R,Donders,2021-07-10_08h36.10.282,ImageRatingTask_S4,2021.1.4,Win32,60.2300789,,,,,,,,,
,,,,,,,,,,,,0,4,4,4,1,fifth,6,21,Female,R,Donders,2021-07-10_08h36.10.282,ImageRatingTask_S4,2021.1.4,Win32,60.2300789,,,,,,,,,
,,,,,,,,,,,,0,5,5,5,1,sixth,6,21,Female,R,Donders,2021-07-10_08h36.10.282,ImageRatingTask_S4,2021.1.4,Win32,60.2300789,,,,,,,,,
,,,,,,,,,,,,0,6,6,6,1,seventh,6,21,Female,R,Donders,2021-07-10_08h36.10.282,ImageRatingTask_S4,2021.1.4,Win32,60.2300789,,,,,,,,,
,,,,,,,,,,,,0,7,7,7,1,last,6,21,Female,R,Donders,2021-07-10_08h36.10.282,ImageRatingTask_S4,2021.1.4,Win32,60.2300789,,,,,,,,,
,,,,,,,,,,,,,,,,,,6,21,Female,R,Donders,2021-07-10_08h36.10.282,ImageRatingTask_S4,2021.1.4,Win32,60.2300789,0,57,57,147,1,DreamStudyImages_rs1000x750g/Vehicles/Objects_211_h.jpg,,,
,,5,11.9006,2,0.9729,7,1.8476,1,0.85,6,1.111,0,0,0,0,1,main,6,21,Female,R,Donders,2021-07-10_08h36.10.282,ImageRatingTask_S4,2021.1.4,Win32,60.2300789,,,,,,,,,
,,,,,,,,,,,,0,1,1,1,1,second,6,21,Female,R,Donders,2021-07-10_08h36.10.282,ImageRatingTask_S4,2021.1.4,Win32,60.2300789,,,,,,,,,
,,,,,,,,,,,,0,2,2,2,1,third,6,21,Female,R,Donders,2021-07-10_08h36.10.282,ImageRatingTask_S4,2021.1.4,Win32,60.2300789,,,,,,,,,
,,,,,,,,,,,,0,3,3,3,1,fourth,6,21,Female,R,Donders,2021-07-10_08h36.10.282,ImageRatingTask_S4,2021.1.4,Win32,60.2300789,,,,,,,,,
,,,,,,,,,,,,0,4,4,4,1,fifth,6,21,Female,R,Donders,2021-07-10_08h36.10.282,ImageRatingTask_S4,2021.1.4,Win32,60.2300789,,,,,,,,,
,,,,,,,,,,,,0,5,5,5,1,sixth,6,21,Female,R,Donders,2021-07-10_08h36.10.282,ImageRatingTask_S4,2021.1.4,Win32,60.2300789,,,,,,,,,
,,,,,,,,,,,,0,6,6,6,1,seventh,6,21,Female,R,Donders,2021-07-10_08h36.10.282,ImageRatingTask_S4,2021.1.4,Win32,60.2300789,,,,,,,,,
,,,,,,,,,,,,0,7,7,7,1,last,6,21,Female,R,Donders,2021-07-10_08h36.10.282,ImageRatingTask_S4,2021.1.4,Win32,60.2300789,,,,,,,,,
,,,,,,,,,,,,,,,,,,6,21,Female,R,Donders,2021-07-10_08h36.10.282,ImageRatingTask_S4,2021.1.4,Win32,60.2300789,0,58,58,101,1,DreamStudyImages_rs1000x750g/Houses/Landscapes_072_h.jpg,,,
,,7,1.9483,2,1.5731,7,2.4516,1,0.8293,8,0.99,0,0,0,0,1,main,6,21,Female,R,Donders,2021-07-10_08h36.10.282,ImageRatingTask_S4,2021.1.4,Win32,60.2300789,,,,,,,,,
,,,,,,,,,,,,0,1,1,1,1,second,6,21,Female,R,Donders,2021-07-10_08h36.10.282,ImageRatingTask_S4,2021.1.4,Win32,60.2300789,,,,,,,,,
,,,,,,,,,,,,0,2,2,2,1,third,6,21,Female,R,Donders,2021-07-10_08h36.10.282,ImageRatingTask_S4,2021.1.4,Win32,60.2300789,,,,,,,,,
,,,,,,,,,,,,0,3,3,3,1,fourth,6,21,Female,R,Donders,2021-07-10_08h36.10.282,ImageRatingTask_S4,2021.1.4,Win32,60.2300789,,,,,,,,,
,,,,,,,,,,,,0,4,4,4,1,fifth,6,21,Female,R,Donders,2021-07-10_08h36.10.282,ImageRatingTask_S4,2021.1.4,Win32,60.2300789,,,,,,,,,
,,,,,,,,,,,,0,5,5,5,1,sixth,6,21,Female,R,Donders,2021-07-10_08h36.10.282,ImageRatingTask_S4,2021.1.4,Win32,60.2300789,,,,,,,,,
,,,,,,,,,,,,0,6,6,6,1,seventh,6,21,Female,R,Donders,2021-07-10_08h36.10.282,ImageRatingTask_S4,2021.1.4,Win32,60.2300789,,,,,,,,,
,,,,,,,,,,,,0,7,7,7,1,last,6,21,Female,R,Donders,2021-07-10_08h36.10.282,ImageRatingTask_S4,2021.1.4,Win32,60.2300789,,,,,,,,,
,,,,,,,,,,,,,,,,,,6,21,Female,R,Donders,2021-07-10_08h36.10.282,ImageRatingTask_S4,2021.1.4,Win32,60.2300789,0,59,59,27,1,DreamStudyImages_rs1000x750g/Water/rockylake.jpg,,,
,,2,2.788,7,5.4903,7,2.5485,1,0.8203,2,0.7244,0,0,0,0,1,main,6,21,Female,R,Donders,2021-07-10_08h36.10.282,ImageRatingTask_S4,2021.1.4,Win32,60.2300789,,,,,,,,,
,,,,,,,,,,,,0,1,1,1,1,second,6,21,Female,R,Donders,2021-07-10_08h36.10.282,ImageRatingTask_S4,2021.1.4,Win32,60.2300789,,,,,,,,,
,,,,,,,,,,,,0,2,2,2,1,third,6,21,Female,R,Donders,2021-07-10_08h36.10.282,ImageRatingTask_S4,2021.1.4,Win32,60.2300789,,,,,,,,,
,,,,,,,,,,,,0,3,3,3,1,fourth,6,21,Female,R,Donders,2021-07-10_08h36.10.282,ImageRatingTask_S4,2021.1.4,Win32,60.2300789,,,,,,,,,
,,,,,,,,,,,,0,4,4,4,1,fifth,6,21,Female,R,Donders,2021-07-10_08h36.10.282,ImageRatingTask_S4,2021.1.4,Win32,60.2300789,,,,,,,,,
,,,,,,,,,,,,0,5,5,5,1,sixth,6,21,Female,R,Donders,2021-07-10_08h36.10.282,ImageRatingTask_S4,2021.1.4,Win32,60.2300789,,,,,,,,,
,,,,,,,,,,,,0,6,6,6,1,seventh,6,21,Female,R,Donders,2021-07-10_08h36.10.282,ImageRatingTask_S4,2021.1.4,Win32,60.2300789,,,,,,,,,
,,,,,,,,,,,,0,7,7,7,1,last,6,21,Female,R,Donders,2021-07-10_08h36.10.282,ImageRatingTask_S4,2021.1.4,Win32,60.2300789,,,,,,,,,
,,,,,,,,,,,,,,,,,,6,21,Female,R,Donders,2021-07-10_08h36.10.282,ImageRatingTask_S4,2021.1.4,Win32,60.2300789,0,60,60,50,1,DreamStudyImages_rs1000x750g/Children/Faces_029_h.jpg,,,
,,7,72.6702,4,2.3014,4,2.5765,1,0.8151,2,0.4903,0,0,0,0,1,main,6,21,Female,R,Donders,2021-07-10_08h36.10.282,ImageRatingTask_S4,2021.1.4,Win32,60.2300789,,,,,,,,,
,,,,,,,,,,,,0,1,1,1,1,second,6,21,Female,R,Donders,2021-07-10_08h36.10.282,ImageRatingTask_S4,2021.1.4,Win32,60.2300789,,,,,,,,,
,,,,,,,,,,,,0,2,2,2,1,third,6,21,Female,R,Donders,2021-07-10_08h36.10.282,ImageRatingTask_S4,2021.1.4,Win32,60.2300789,,,,,,,,,
,,,,,,,,,,,,0,3,3,3,1,fourth,6,21,Female,R,Donders,2021-07-10_08h36.10.282,ImageRatingTask_S4,2021.1.4,Win32,60.2300789,,,,,,,,,
,,,,,,,,,,,,0,4,4,4,1,fifth,6,21,Female,R,Donders,2021-07-10_08h36.10.282,ImageRatingTask_S4,2021.1.4,Win32,60.2300789,,,,,,,,,
,,,,,,,,,,,,0,5,5,5,1,sixth,6,21,Female,R,Donders,2021-07-10_08h36.10.282,ImageRatingTask_S4,2021.1.4,Win32,60.2300789,,,,,,,,,
,,,,,,,,,,,,0,6,6,6,1,seventh,6,21,Female,R,Donders,2021-07-10_08h36.10.282,ImageRatingTask_S4,2021.1.4,Win32,60.2300789,,,,,,,,,
,,,,,,,,,,,,0,7,7,7,1,last,6,21,Female,R,Donders,2021-07-10_08h36.10.282,ImageRatingTask_S4,2021.1.4,Win32,60.2300789,,,,,,,,,
,,,,,,,,,,,,,,,,,,6,21,Female,R,Donders,2021-07-10_08h36.10.282,ImageRatingTask_S4,2021.1.4,Win32,60.2300789,0,61,61,15,1,DreamStudyImages_rs1000x750g/Children/IAPS2040_baby1.jpg,,,
,,6,2.4573,3,2.0231,8,1.5848,1,0.681,6,1.1158,0,0,0,0,1,main,6,21,Female,R,Donders,2021-07-10_08h36.10.282,ImageRatingTask_S4,2021.1.4,Win32,60.2300789,,,,,,,,,
,,,,,,,,,,,,0,1,1,1,1,second,6,21,Female,R,Donders,2021-07-10_08h36.10.282,ImageRatingTask_S4,2021.1.4,Win32,60.2300789,,,,,,,,,
,,,,,,,,,,,,0,2,2,2,1,third,6,21,Female,R,Donders,2021-07-10_08h36.10.282,ImageRatingTask_S4,2021.1.4,Win32,60.2300789,,,,,,,,,
,,,,,,,,,,,,0,3,3,3,1,fourth,6,21,Female,R,Donders,2021-07-10_08h36.10.282,ImageRatingTask_S4,2021.1.4,Win32,60.2300789,,,,,,,,,
,,,,,,,,,,,,0,4,4,4,1,fifth,6,21,Female,R,Donders,2021-07-10_08h36.10.282,ImageRatingTask_S4,2021.1.4,Win32,60.2300789,,,,,,,,,
,,,,,,,,,,,,0,5,5,5,1,sixth,6,21,Female,R,Donders,2021-07-10_08h36.10.282,ImageRatingTask_S4,2021.1.4,Win32,60.2300789,,,,,,,,,
,,,,,,,,,,,,0,6,6,6,1,seventh,6,21,Female,R,Donders,2021-07-10_08h36.10.282,ImageRatingTask_S4,2021.1.4,Win32,60.2300789,,,,,,,,,
,,,,,,,,,,,,0,7,7,7,1,last,6,21,Female,R,Donders,2021-07-10_08h36.10.282,ImageRatingTask_S4,2021.1.4,Win32,60.2300789,,,,,,,,,
,,,,,,,,,,,,,,,,,,6,21,Female,R,Donders,2021-07-10_08h36.10.282,ImageRatingTask_S4,2021.1.4,Win32,60.2300789,0,62,62,149,1,DreamStudyImages_rs1000x750g/Houses/Landscapes_038_h.jpg,,,
,,4,1.8062,7,1.2518,8,1.4357,1,0.7328,3,0.8408,0,0,0,0,1,main,6,21,Female,R,Donders,2021-07-10_08h36.10.282,ImageRatingTask_S4,2021.1.4,Win32,60.2300789,,,,,,,,,
,,,,,,,,,,,,0,1,1,1,1,second,6,21,Female,R,Donders,2021-07-10_08h36.10.282,ImageRatingTask_S4,2021.1.4,Win32,60.2300789,,,,,,,,,
,,,,,,,,,,,,0,2,2,2,1,third,6,21,Female,R,Donders,2021-07-10_08h36.10.282,ImageRatingTask_S4,2021.1.4,Win32,60.2300789,,,,,,,,,
,,,,,,,,,,,,0,3,3,3,1,fourth,6,21,Female,R,Donders,2021-07-10_08h36.10.282,ImageRatingTask_S4,2021.1.4,Win32,60.2300789,,,,,,,,,
,,,,,,,,,,,,0,4,4,4,1,fifth,6,21,Female,R,Donders,2021-07-10_08h36.10.282,ImageRatingTask_S4,2021.1.4,Win32,60.2300789,,,,,,,,,
,,,,,,,,,,,,0,5,5,5,1,sixth,6,21,Female,R,Donders,2021-07-10_08h36.10.282,ImageRatingTask_S4,2021.1.4,Win32,60.2300789,,,,,,,,,
,,,,,,,,,,,,0,6,6,6,1,seventh,6,21,Female,R,Donders,2021-07-10_08h36.10.282,ImageRatingTask_S4,2021.1.4,Win32,60.2300789,,,,,,,,,
,,,,,,,,,,,,0,7,7,7,1,last,6,21,Female,R,Donders,2021-07-10_08h36.10.282,ImageRatingTask_S4,2021.1.4,Win32,60.2300789,,,,,,,,,
,,,,,,,,,,,,,,,,,,6,21,Female,R,Donders,2021-07-10_08h36.10.282,ImageRatingTask_S4,2021.1.4,Win32,60.2300789,0,63,63,111,1,DreamStudyImages_rs1000x750g/Mammals/Animals_012_h.jpg,,,
,,4,1.4698,7,2.275,7,2.3305,1,0.7817,3,1.0764,0,0,0,0,1,main,6,21,Female,R,Donders,2021-07-10_08h36.10.282,ImageRatingTask_S4,2021.1.4,Win32,60.2300789,,,,,,,,,
,,,,,,,,,,,,0,1,1,1,1,second,6,21,Female,R,Donders,2021-07-10_08h36.10.282,ImageRatingTask_S4,2021.1.4,Win32,60.2300789,,,,,,,,,
,,,,,,,,,,,,0,2,2,2,1,third,6,21,Female,R,Donders,2021-07-10_08h36.10.282,ImageRatingTask_S4,2021.1.4,Win32,60.2300789,,,,,,,,,
,,,,,,,,,,,,0,3,3,3,1,fourth,6,21,Female,R,Donders,2021-07-10_08h36.10.282,ImageRatingTask_S4,2021.1.4,Win32,60.2300789,,,,,,,,,
,,,,,,,,,,,,0,4,4,4,1,fifth,6,21,Female,R,Donders,2021-07-10_08h36.10.282,ImageRatingTask_S4,2021.1.4,Win32,60.2300789,,,,,,,,,
,,,,,,,,,,,,0,5,5,5,1,sixth,6,21,Female,R,Donders,2021-07-10_08h36.10.282,ImageRatingTask_S4,2021.1.4,Win32,60.2300789,,,,,,,,,
,,,,,,,,,,,,0,6,6,6,1,seventh,6,21,Female,R,Donders,2021-07-10_08h36.10.282,ImageRatingTask_S4,2021.1.4,Win32,60.2300789,,,,,,,,,
,,,,,,,,,,,,0,7,7,7,1,last,6,21,Female,R,Donders,2021-07-10_08h36.10.282,ImageRatingTask_S4,2021.1.4,Win32,60.2300789,,,,,,,,,
,,,,,,,,,,,,,,,,,,6,21,Female,R,Donders,2021-07-10_08h36.10.282,ImageRatingTask_S4,2021.1.4,Win32,60.2300789,0,64,64,107,1,DreamStudyImages_rs1000x750g/Mammals/1321.jpg,,,
,,3,16.0967,7,1.2192,6,1.7995,1,0.7031,6,0.9407,0,0,0,0,1,main,6,21,Female,R,Donders,2021-07-10_08h36.10.282,ImageRatingTask_S4,2021.1.4,Win32,60.2300789,,,,,,,,,
,,,,,,,,,,,,0,1,1,1,1,second,6,21,Female,R,Donders,2021-07-10_08h36.10.282,ImageRatingTask_S4,2021.1.4,Win32,60.2300789,,,,,,,,,
,,,,,,,,,,,,0,2,2,2,1,third,6,21,Female,R,Donders,2021-07-10_08h36.10.282,ImageRatingTask_S4,2021.1.4,Win32,60.2300789,,,,,,,,,
,,,,,,,,,,,,0,3,3,3,1,fourth,6,21,Female,R,Donders,2021-07-10_08h36.10.282,ImageRatingTask_S4,2021.1.4,Win32,60.2300789,,,,,,,,,
,,,,,,,,,,,,0,4,4,4,1,fifth,6,21,Female,R,Donders,2021-07-10_08h36.10.282,ImageRatingTask_S4,2021.1.4,Win32,60.2300789,,,,,,,,,
,,,,,,,,,,,,0,5,5,5,1,sixth,6,21,Female,R,Donders,2021-07-10_08h36.10.282,ImageRatingTask_S4,2021.1.4,Win32,60.2300789,,,,,,,,,
,,,,,,,,,,,,0,6,6,6,1,seventh,6,21,Female,R,Donders,2021-07-10_08h36.10.282,ImageRatingTask_S4,2021.1.4,Win32,60.2300789,,,,,,,,,
,,,,,,,,,,,,0,7,7,7,1,last,6,21,Female,R,Donders,2021-07-10_08h36.10.282,ImageRatingTask_S4,2021.1.4,Win32,60.2300789,,,,,,,,,
,,,,,,,,,,,,,,,,,,6,21,Female,R,Donders,2021-07-10_08h36.10.282,ImageRatingTask_S4,2021.1.4,Win32,60.2300789,0,65,65,10,1,DreamStudyImages_rs1000x750g/Houses/NDPS111_houses8_CROPPED.jpg,,,
,,5,2.377,2,1.7132,7,3.3869,1,1.1816,6,0.9255,0,0,0,0,1,main,6,21,Female,R,Donders,2021-07-10_08h36.10.282,ImageRatingTask_S4,2021.1.4,Win32,60.2300789,,,,,,,,,
,,,,,,,,,,,,0,1,1,1,1,second,6,21,Female,R,Donders,2021-07-10_08h36.10.282,ImageRatingTask_S4,2021.1.4,Win32,60.2300789,,,,,,,,,
,,,,,,,,,,,,0,2,2,2,1,third,6,21,Female,R,Donders,2021-07-10_08h36.10.282,ImageRatingTask_S4,2021.1.4,Win32,60.2300789,,,,,,,,,
,,,,,,,,,,,,0,3,3,3,1,fourth,6,21,Female,R,Donders,2021-07-10_08h36.10.282,ImageRatingTask_S4,2021.1.4,Win32,60.2300789,,,,,,,,,
,,,,,,,,,,,,0,4,4,4,1,fifth,6,21,Female,R,Donders,2021-07-10_08h36.10.282,ImageRatingTask_S4,2021.1.4,Win32,60.2300789,,,,,,,,,
,,,,,,,,,,,,0,5,5,5,1,sixth,6,21,Female,R,Donders,2021-07-10_08h36.10.282,ImageRatingTask_S4,2021.1.4,Win32,60.2300789,,,,,,,,,
,,,,,,,,,,,,0,6,6,6,1,seventh,6,21,Female,R,Donders,2021-07-10_08h36.10.282,ImageRatingTask_S4,2021.1.4,Win32,60.2300789,,,,,,,,,
,,,,,,,,,,,,0,7,7,7,1,last,6,21,Female,R,Donders,2021-07-10_08h36.10.282,ImageRatingTask_S4,2021.1.4,Win32,60.2300789,,,,,,,,,
,,,,,,,,,,,,,,,,,,6,21,Female,R,Donders,2021-07-10_08h36.10.282,ImageRatingTask_S4,2021.1.4,Win32,60.2300789,0,66,66,118,1,DreamStudyImages_rs1000x750g/Houses/Objects_130_h.jpg,,,
,,8,1.3336,5,1.8567,6,3.0174,1,1.0719,3,0.8689,0,0,0,0,1,main,6,21,Female,R,Donders,2021-07-10_08h36.10.282,ImageRatingTask_S4,2021.1.4,Win32,60.2300789,,,,,,,,,
,,,,,,,,,,,,0,1,1,1,1,second,6,21,Female,R,Donders,2021-07-10_08h36.10.282,ImageRatingTask_S4,2021.1.4,Win32,60.2300789,,,,,,,,,
,,,,,,,,,,,,0,2,2,2,1,third,6,21,Female,R,Donders,2021-07-10_08h36.10.282,ImageRatingTask_S4,2021.1.4,Win32,60.2300789,,,,,,,,,
,,,,,,,,,,,,0,3,3,3,1,fourth,6,21,Female,R,Donders,2021-07-10_08h36.10.282,ImageRatingTask_S4,2021.1.4,Win32,60.2300789,,,,,,,,,
,,,,,,,,,,,,0,4,4,4,1,fifth,6,21,Female,R,Donders,2021-07-10_08h36.10.282,ImageRatingTask_S4,2021.1.4,Win32,60.2300789,,,,,,,,,
,,,,,,,,,,,,0,5,5,5,1,sixth,6,21,Female,R,Donders,2021-07-10_08h36.10.282,ImageRatingTask_S4,2021.1.4,Win32,60.2300789,,,,,,,,,
,,,,,,,,,,,,0,6,6,6,1,seventh,6,21,Female,R,Donders,2021-07-10_08h36.10.282,ImageRatingTask_S4,2021.1.4,Win32,60.2300789,,,,,,,,,
,,,,,,,,,,,,0,7,7,7,1,last,6,21,Female,R,Donders,2021-07-10_08h36.10.282,ImageRatingTask_S4,2021.1.4,Win32,60.2300789,,,,,,,,,
,,,,,,,,,,,,,,,,,,6,21,Female,R,Donders,2021-07-10_08h36.10.282,ImageRatingTask_S4,2021.1.4,Win32,60.2300789,0,67,67,22,1,DreamStudyImages_rs1000x750g/Mammals/IAPS1595_horse2.jpg,,,
,,7,1.2927,3,2.3267,8,2.1657,1,0.6213,3,0.4776,0,0,0,0,1,main,6,21,Female,R,Donders,2021-07-10_08h36.10.282,ImageRatingTask_S4,2021.1.4,Win32,60.2300789,,,,,,,,,
,,,,,,,,,,,,0,1,1,1,1,second,6,21,Female,R,Donders,2021-07-10_08h36.10.282,ImageRatingTask_S4,2021.1.4,Win32,60.2300789,,,,,,,,,
,,,,,,,,,,,,0,2,2,2,1,third,6,21,Female,R,Donders,2021-07-10_08h36.10.282,ImageRatingTask_S4,2021.1.4,Win32,60.2300789,,,,,,,,,
,,,,,,,,,,,,0,3,3,3,1,fourth,6,21,Female,R,Donders,2021-07-10_08h36.10.282,ImageRatingTask_S4,2021.1.4,Win32,60.2300789,,,,,,,,,
,,,,,,,,,,,,0,4,4,4,1,fifth,6,21,Female,R,Donders,2021-07-10_08h36.10.282,ImageRatingTask_S4,2021.1.4,Win32,60.2300789,,,,,,,,,
,,,,,,,,,,,,0,5,5,5,1,sixth,6,21,Female,R,Donders,2021-07-10_08h36.10.282,ImageRatingTask_S4,2021.1.4,Win32,60.2300789,,,,,,,,,
,,,,,,,,,,,,0,6,6,6,1,seventh,6,21,Female,R,Donders,2021-07-10_08h36.10.282,ImageRatingTask_S4,2021.1.4,Win32,60.2300789,,,,,,,,,
,,,,,,,,,,,,0,7,7,7,1,last,6,21,Female,R,Donders,2021-07-10_08h36.10.282,ImageRatingTask_S4,2021.1.4,Win32,60.2300789,,,,,,,,,
,,,,,,,,,,,,,,,,,,6,21,Female,R,Donders,2021-07-10_08h36.10.282,ImageRatingTask_S4,2021.1.4,Win32,60.2300789,0,68,68,126,1,DreamStudyImages_rs1000x750g/Mammals/Animals_192_h.jpg,,,
,,2,1.7847,7,1.2446,6,3.3974,1,0.619,2,0.677,0,0,0,0,1,main,6,21,Female,R,Donders,2021-07-10_08h36.10.282,ImageRatingTask_S4,2021.1.4,Win32,60.2300789,,,,,,,,,
,,,,,,,,,,,,0,1,1,1,1,second,6,21,Female,R,Donders,2021-07-10_08h36.10.282,ImageRatingTask_S4,2021.1.4,Win32,60.2300789,,,,,,,,,
,,,,,,,,,,,,0,2,2,2,1,third,6,21,Female,R,Donders,2021-07-10_08h36.10.282,ImageRatingTask_S4,2021.1.4,Win32,60.2300789,,,,,,,,,
,,,,,,,,,,,,0,3,3,3,1,fourth,6,21,Female,R,Donders,2021-07-10_08h36.10.282,ImageRatingTask_S4,2021.1.4,Win32,60.2300789,,,,,,,,,
,,,,,,,,,,,,0,4,4,4,1,fifth,6,21,Female,R,Donders,2021-07-10_08h36.10.282,ImageRatingTask_S4,2021.1.4,Win32,60.2300789,,,,,,,,,
,,,,,,,,,,,,0,5,5,5,1,sixth,6,21,Female,R,Donders,2021-07-10_08h36.10.282,ImageRatingTask_S4,2021.1.4,Win32,60.2300789,,,,,,,,,
,,,,,,,,,,,,0,6,6,6,1,seventh,6,21,Female,R,Donders,2021-07-10_08h36.10.282,ImageRatingTask_S4,2021.1.4,Win32,60.2300789,,,,,,,,,
,,,,,,,,,,,,0,7,7,7,1,last,6,21,Female,R,Donders,2021-07-10_08h36.10.282,ImageRatingTask_S4,2021.1.4,Win32,60.2300789,,,,,,,,,
,,,,,,,,,,,,,,,,,,6,21,Female,R,Donders,2021-07-10_08h36.10.282,ImageRatingTask_S4,2021.1.4,Win32,60.2300789,0,69,69,49,1,DreamStudyImages_rs1000x750g/Children/Faces_003_h.jpg,,,
,,3,5.0741,6,2.1315,6,3.0999,1,0.9704,2,0.3241,0,0,0,0,1,main,6,21,Female,R,Donders,2021-07-10_08h36.10.282,ImageRatingTask_S4,2021.1.4,Win32,60.2300789,,,,,,,,,
,,,,,,,,,,,,0,1,1,1,1,second,6,21,Female,R,Donders,2021-07-10_08h36.10.282,ImageRatingTask_S4,2021.1.4,Win32,60.2300789,,,,,,,,,
,,,,,,,,,,,,0,2,2,2,1,third,6,21,Female,R,Donders,2021-07-10_08h36.10.282,ImageRatingTask_S4,2021.1.4,Win32,60.2300789,,,,,,,,,
,,,,,,,,,,,,0,3,3,3,1,fourth,6,21,Female,R,Donders,2021-07-10_08h36.10.282,ImageRatingTask_S4,2021.1.4,Win32,60.2300789,,,,,,,,,
,,,,,,,,,,,,0,4,4,4,1,fifth,6,21,Female,R,Donders,2021-07-10_08h36.10.282,ImageRatingTask_S4,2021.1.4,Win32,60.2300789,,,,,,,,,
,,,,,,,,,,,,0,5,5,5,1,sixth,6,21,Female,R,Donders,2021-07-10_08h36.10.282,ImageRatingTask_S4,2021.1.4,Win32,60.2300789,,,,,,,,,
,,,,,,,,,,,,0,6,6,6,1,seventh,6,21,Female,R,Donders,2021-07-10_08h36.10.282,ImageRatingTask_S4,2021.1.4,Win32,60.2300789,,,,,,,,,
,,,,,,,,,,,,0,7,7,7,1,last,6,21,Female,R,Donders,2021-07-10_08h36.10.282,ImageRatingTask_S4,2021.1.4,Win32,60.2300789,,,,,,,,,
,,,,,,,,,,,,,,,,,,6,21,Female,R,Donders,2021-07-10_08h36.10.282,ImageRatingTask_S4,2021.1.4,Win32,60.2300789,0,70,70,84,1,DreamStudyImages_rs1000x750g/Children/Faces_032_h.jpg,,,
,,3,13.9993,6,1.8463,7,2.2174,1,1.607,6,0.9585,0,0,0,0,1,main,6,21,Female,R,Donders,2021-07-10_08h36.10.282,ImageRatingTask_S4,2021.1.4,Win32,60.2300789,,,,,,,,,
,,,,,,,,,,,,0,1,1,1,1,second,6,21,Female,R,Donders,2021-07-10_08h36.10.282,ImageRatingTask_S4,2021.1.4,Win32,60.2300789,,,,,,,,,
,,,,,,,,,,,,0,2,2,2,1,third,6,21,Female,R,Donders,2021-07-10_08h36.10.282,ImageRatingTask_S4,2021.1.4,Win32,60.2300789,,,,,,,,,
,,,,,,,,,,,,0,3,3,3,1,fourth,6,21,Female,R,Donders,2021-07-10_08h36.10.282,ImageRatingTask_S4,2021.1.4,Win32,60.2300789,,,,,,,,,
,,,,,,,,,,,,0,4,4,4,1,fifth,6,21,Female,R,Donders,2021-07-10_08h36.10.282,ImageRatingTask_S4,2021.1.4,Win32,60.2300789,,,,,,,,,
,,,,,,,,,,,,0,5,5,5,1,sixth,6,21,Female,R,Donders,2021-07-10_08h36.10.282,ImageRatingTask_S4,2021.1.4,Win32,60.2300789,,,,,,,,,
,,,,,,,,,,,,0,6,6,6,1,seventh,6,21,Female,R,Donders,2021-07-10_08h36.10.282,ImageRatingTask_S4,2021.1.4,Win32,60.2300789,,,,,,,,,
,,,,,,,,,,,,0,7,7,7,1,last,6,21,Female,R,Donders,2021-07-10_08h36.10.282,ImageRatingTask_S4,2021.1.4,Win32,60.2300789,,,,,,,,,
,,,,,,,,,,,,,,,,,,6,21,Female,R,Donders,2021-07-10_08h36.10.282,ImageRatingTask_S4,2021.1.4,Win32,60.2300789,0,71,71,23,1,DreamStudyImages_rs1000x750g/Houses/Landscapes_025_h.jpg,,,
,,5,1.6189,2,5.4242,6,2.7714,1,0.7264,7,0.8743,0,0,0,0,1,main,6,21,Female,R,Donders,2021-07-10_08h36.10.282,ImageRatingTask_S4,2021.1.4,Win32,60.2300789,,,,,,,,,
,,,,,,,,,,,,0,1,1,1,1,second,6,21,Female,R,Donders,2021-07-10_08h36.10.282,ImageRatingTask_S4,2021.1.4,Win32,60.2300789,,,,,,,,,
,,,,,,,,,,,,0,2,2,2,1,third,6,21,Female,R,Donders,2021-07-10_08h36.10.282,ImageRatingTask_S4,2021.1.4,Win32,60.2300789,,,,,,,,,
,,,,,,,,,,,,0,3,3,3,1,fourth,6,21,Female,R,Donders,2021-07-10_08h36.10.282,ImageRatingTask_S4,2021.1.4,Win32,60.2300789,,,,,,,,,
,,,,,,,,,,,,0,4,4,4,1,fifth,6,21,Female,R,Donders,2021-07-10_08h36.10.282,ImageRatingTask_S4,2021.1.4,Win32,60.2300789,,,,,,,,,
,,,,,,,,,,,,0,5,5,5,1,sixth,6,21,Female,R,Donders,2021-07-10_08h36.10.282,ImageRatingTask_S4,2021.1.4,Win32,60.2300789,,,,,,,,,
,,,,,,,,,,,,0,6,6,6,1,seventh,6,21,Female,R,Donders,2021-07-10_08h36.10.282,ImageRatingTask_S4,2021.1.4,Win32,60.2300789,,,,,,,,,
,,,,,,,,,,,,0,7,7,7,1,last,6,21,Female,R,Donders,2021-07-10_08h36.10.282,ImageRatingTask_S4,2021.1.4,Win32,60.2300789,,,,,,,,,
,,,,,,,,,,,,,,,,,,6,21,Female,R,Donders,2021-07-10_08h36.10.282,ImageRatingTask_S4,2021.1.4,Win32,60.2300789,0,72,72,78,1,DreamStudyImages_rs1000x750g/Vehicles/Objects_304_h.jpg,,,
,,3,3.9159,7,1.0021,6,2.1099,1,0.5438,7,0.5974,0,0,0,0,1,main,6,21,Female,R,Donders,2021-07-10_08h36.10.282,ImageRatingTask_S4,2021.1.4,Win32,60.2300789,,,,,,,,,
,,,,,,,,,,,,0,1,1,1,1,second,6,21,Female,R,Donders,2021-07-10_08h36.10.282,ImageRatingTask_S4,2021.1.4,Win32,60.2300789,,,,,,,,,
,,,,,,,,,,,,0,2,2,2,1,third,6,21,Female,R,Donders,2021-07-10_08h36.10.282,ImageRatingTask_S4,2021.1.4,Win32,60.2300789,,,,,,,,,
,,,,,,,,,,,,0,3,3,3,1,fourth,6,21,Female,R,Donders,2021-07-10_08h36.10.282,ImageRatingTask_S4,2021.1.4,Win32,60.2300789,,,,,,,,,
,,,,,,,,,,,,0,4,4,4,1,fifth,6,21,Female,R,Donders,2021-07-10_08h36.10.282,ImageRatingTask_S4,2021.1.4,Win32,60.2300789,,,,,,,,,
,,,,,,,,,,,,0,5,5,5,1,sixth,6,21,Female,R,Donders,2021-07-10_08h36.10.282,ImageRatingTask_S4,2021.1.4,Win32,60.2300789,,,,,,,,,
,,,,,,,,,,,,0,6,6,6,1,seventh,6,21,Female,R,Donders,2021-07-10_08h36.10.282,ImageRatingTask_S4,2021.1.4,Win32,60.2300789,,,,,,,,,
,,,,,,,,,,,,0,7,7,7,1,last,6,21,Female,R,Donders,2021-07-10_08h36.10.282,ImageRatingTask_S4,2021.1.4,Win32,60.2300789,,,,,,,,,
,,,,,,,,,,,,,,,,,,6,21,Female,R,Donders,2021-07-10_08h36.10.282,ImageRatingTask_S4,2021.1.4,Win32,60.2300789,0,73,73,11,1,DreamStudyImages_rs1000x750g/Vehicles/IAPS9909_carcrash6.jpg,,,
,,7,4.9916,2,0.9793,5,1.9525,1,1.0959,8,0.7259,0,0,0,0,1,main,6,21,Female,R,Donders,2021-07-10_08h36.10.282,ImageRatingTask_S4,2021.1.4,Win32,60.2300789,,,,,,,,,
,,,,,,,,,,,,0,1,1,1,1,second,6,21,Female,R,Donders,2021-07-10_08h36.10.282,ImageRatingTask_S4,2021.1.4,Win32,60.2300789,,,,,,,,,
,,,,,,,,,,,,0,2,2,2,1,third,6,21,Female,R,Donders,2021-07-10_08h36.10.282,ImageRatingTask_S4,2021.1.4,Win32,60.2300789,,,,,,,,,
,,,,,,,,,,,,0,3,3,3,1,fourth,6,21,Female,R,Donders,2021-07-10_08h36.10.282,ImageRatingTask_S4,2021.1.4,Win32,60.2300789,,,,,,,,,
,,,,,,,,,,,,0,4,4,4,1,fifth,6,21,Female,R,Donders,2021-07-10_08h36.10.282,ImageRatingTask_S4,2021.1.4,Win32,60.2300789,,,,,,,,,
,,,,,,,,,,,,0,5,5,5,1,sixth,6,21,Female,R,Donders,2021-07-10_08h36.10.282,ImageRatingTask_S4,2021.1.4,Win32,60.2300789,,,,,,,,,
,,,,,,,,,,,,0,6,6,6,1,seventh,6,21,Female,R,Donders,2021-07-10_08h36.10.282,ImageRatingTask_S4,2021.1.4,Win32,60.2300789,,,,,,,,,
,,,,,,,,,,,,0,7,7,7,1,last,6,21,Female,R,Donders,2021-07-10_08h36.10.282,ImageRatingTask_S4,2021.1.4,Win32,60.2300789,,,,,,,,,
,,,,,,,,,,,,,,,,,,6,21,Female,R,Donders,2021-07-10_08h36.10.282,ImageRatingTask_S4,2021.1.4,Win32,60.2300789,0,74,74,124,1,DreamStudyImages_rs1000x750g/Water/Lake 9.jpg,,,
,,8,1.7131,4,1.2485,7,3.6689,1,0.7528,3,0.7125,0,0,0,0,1,main,6,21,Female,R,Donders,2021-07-10_08h36.10.282,ImageRatingTask_S4,2021.1.4,Win32,60.2300789,,,,,,,,,
,,,,,,,,,,,,0,1,1,1,1,second,6,21,Female,R,Donders,2021-07-10_08h36.10.282,ImageRatingTask_S4,2021.1.4,Win32,60.2300789,,,,,,,,,
,,,,,,,,,,,,0,2,2,2,1,third,6,21,Female,R,Donders,2021-07-10_08h36.10.282,ImageRatingTask_S4,2021.1.4,Win32,60.2300789,,,,,,,,,
,,,,,,,,,,,,0,3,3,3,1,fourth,6,21,Female,R,Donders,2021-07-10_08h36.10.282,ImageRatingTask_S4,2021.1.4,Win32,60.2300789,,,,,,,,,
,,,,,,,,,,,,0,4,4,4,1,fifth,6,21,Female,R,Donders,2021-07-10_08h36.10.282,ImageRatingTask_S4,2021.1.4,Win32,60.2300789,,,,,,,,,
,,,,,,,,,,,,0,5,5,5,1,sixth,6,21,Female,R,Donders,2021-07-10_08h36.10.282,ImageRatingTask_S4,2021.1.4,Win32,60.2300789,,,,,,,,,
,,,,,,,,,,,,0,6,6,6,1,seventh,6,21,Female,R,Donders,2021-07-10_08h36.10.282,ImageRatingTask_S4,2021.1.4,Win32,60.2300789,,,,,,,,,
,,,,,,,,,,,,0,7,7,7,1,last,6,21,Female,R,Donders,2021-07-10_08h36.10.282,ImageRatingTask_S4,2021.1.4,Win32,60.2300789,,,,,,,,,
,,,,,,,,,,,,,,,,,,6,21,Female,R,Donders,2021-07-10_08h36.10.282,ImageRatingTask_S4,2021.1.4,Win32,60.2300789,0,75,75,93,1,DreamStudyImages_rs1000x750g/Mammals/Animals_165_h.jpg,,,
,,5,2.8912,2,0.8415,7,3.3352,1,1.1992,7,0.559,0,0,0,0,1,main,6,21,Female,R,Donders,2021-07-10_08h36.10.282,ImageRatingTask_S4,2021.1.4,Win32,60.2300789,,,,,,,,,
,,,,,,,,,,,,0,1,1,1,1,second,6,21,Female,R,Donders,2021-07-10_08h36.10.282,ImageRatingTask_S4,2021.1.4,Win32,60.2300789,,,,,,,,,
,,,,,,,,,,,,0,2,2,2,1,third,6,21,Female,R,Donders,2021-07-10_08h36.10.282,ImageRatingTask_S4,2021.1.4,Win32,60.2300789,,,,,,,,,
,,,,,,,,,,,,0,3,3,3,1,fourth,6,21,Female,R,Donders,2021-07-10_08h36.10.282,ImageRatingTask_S4,2021.1.4,Win32,60.2300789,,,,,,,,,
,,,,,,,,,,,,0,4,4,4,1,fifth,6,21,Female,R,Donders,2021-07-10_08h36.10.282,ImageRatingTask_S4,2021.1.4,Win32,60.2300789,,,,,,,,,
,,,,,,,,,,,,0,5,5,5,1,sixth,6,21,Female,R,Donders,2021-07-10_08h36.10.282,ImageRatingTask_S4,2021.1.4,Win32,60.2300789,,,,,,,,,
,,,,,,,,,,,,0,6,6,6,1,seventh,6,21,Female,R,Donders,2021-07-10_08h36.10.282,ImageRatingTask_S4,2021.1.4,Win32,60.2300789,,,,,,,,,
,,,,,,,,,,,,0,7,7,7,1,last,6,21,Female,R,Donders,2021-07-10_08h36.10.282,ImageRatingTask_S4,2021.1.4,Win32,60.2300789,,,,,,,,,
,,,,,,,,,,,,,,,,,,6,21,Female,R,Donders,2021-07-10_08h36.10.282,ImageRatingTask_S4,2021.1.4,Win32,60.2300789,0,76,76,64,1,DreamStudyImages_rs1000x750g/Vehicles/dashboard.jpg,,,
,,2,1.2434,8,1.3888,2,9.4759,0,2.6408,,,0,0,0,0,1,main,6,21,Female,R,Donders,2021-07-10_08h36.10.282,ImageRatingTask_S4,2021.1.4,Win32,60.2300789,,,,,,,,,
,,,,,,,,,,,,0,1,1,1,1,second,6,21,Female,R,Donders,2021-07-10_08h36.10.282,ImageRatingTask_S4,2021.1.4,Win32,60.2300789,,,,,,,,,
,,,,,,,,,,,,0,2,2,2,1,third,6,21,Female,R,Donders,2021-07-10_08h36.10.282,ImageRatingTask_S4,2021.1.4,Win32,60.2300789,,,,,,,,,
,,,,,,,,,,,,0,3,3,3,1,fourth,6,21,Female,R,Donders,2021-07-10_08h36.10.282,ImageRatingTask_S4,2021.1.4,Win32,60.2300789,,,,,,,,,
,,,,,,,,,,,,0,4,4,4,1,fifth,6,21,Female,R,Donders,2021-07-10_08h36.10.282,ImageRatingTask_S4,2021.1.4,Win32,60.2300789,,,,,,,,,
,,,,,,,,,,,,0,5,5,5,1,sixth,6,21,Female,R,Donders,2021-07-10_08h36.10.282,ImageRatingTask_S4,2021.1.4,Win32,60.2300789,,,,,,,,,
,,,,,,,,,,,,0,6,6,6,1,seventh,6,21,Female,R,Donders,2021-07-10_08h36.10.282,ImageRatingTask_S4,2021.1.4,Win32,60.2300789,,,,,,,,,
,,,,,,,,,,,,0,7,7,7,1,last,6,21,Female,R,Donders,2021-07-10_08h36.10.282,ImageRatingTask_S4,2021.1.4,Win32,60.2300789,,,,,,,,,
,,,,,,,,,,,,,,,,,,6,21,Female,R,Donders,2021-07-10_08h36.10.282,ImageRatingTask_S4,2021.1.4,Win32,60.2300789,0,77,77,146,1,DreamStudyImages_rs1000x750g/Houses/Fire 5.jpg,,,
,,8,1.7273,2,1.0709,6,1.8175,1,0.7073,3,0.4999,0,0,0,0,1,main,6,21,Female,R,Donders,2021-07-10_08h36.10.282,ImageRatingTask_S4,2021.1.4,Win32,60.2300789,,,,,,,,,
,,,,,,,,,,,,0,1,1,1,1,second,6,21,Female,R,Donders,2021-07-10_08h36.10.282,ImageRatingTask_S4,2021.1.4,Win32,60.2300789,,,,,,,,,
,,,,,,,,,,,,0,2,2,2,1,third,6,21,Female,R,Donders,2021-07-10_08h36.10.282,ImageRatingTask_S4,2021.1.4,Win32,60.2300789,,,,,,,,,
,,,,,,,,,,,,0,3,3,3,1,fourth,6,21,Female,R,Donders,2021-07-10_08h36.10.282,ImageRatingTask_S4,2021.1.4,Win32,60.2300789,,,,,,,,,
,,,,,,,,,,,,0,4,4,4,1,fifth,6,21,Female,R,Donders,2021-07-10_08h36.10.282,ImageRatingTask_S4,2021.1.4,Win32,60.2300789,,,,,,,,,
,,,,,,,,,,,,0,5,5,5,1,sixth,6,21,Female,R,Donders,2021-07-10_08h36.10.282,ImageRatingTask_S4,2021.1.4,Win32,60.2300789,,,,,,,,,
,,,,,,,,,,,,0,6,6,6,1,seventh,6,21,Female,R,Donders,2021-07-10_08h36.10.282,ImageRatingTask_S4,2021.1.4,Win32,60.2300789,,,,,,,,,
,,,,,,,,,,,,0,7,7,7,1,last,6,21,Female,R,Donders,2021-07-10_08h36.10.282,ImageRatingTask_S4,2021.1.4,Win32,60.2300789,,,,,,,,,
,,,,,,,,,,,,,,,,,,6,21,Female,R,Donders,2021-07-10_08h36.10.282,ImageRatingTask_S4,2021.1.4,Win32,60.2300789,0,78,78,9,1,DreamStudyImages_rs1000x750g/Mammals/IAPS1500_dog6.jpg,,,
,,4,2.468,5,2.3016,5,3.5448,1,2.1622,7,0.6755,0,0,0,0,1,main,6,21,Female,R,Donders,2021-07-10_08h36.10.282,ImageRatingTask_S4,2021.1.4,Win32,60.2300789,,,,,,,,,
,,,,,,,,,,,,0,1,1,1,1,second,6,21,Female,R,Donders,2021-07-10_08h36.10.282,ImageRatingTask_S4,2021.1.4,Win32,60.2300789,,,,,,,,,
,,,,,,,,,,,,0,2,2,2,1,third,6,21,Female,R,Donders,2021-07-10_08h36.10.282,ImageRatingTask_S4,2021.1.4,Win32,60.2300789,,,,,,,,,
,,,,,,,,,,,,0,3,3,3,1,fourth,6,21,Female,R,Donders,2021-07-10_08h36.10.282,ImageRatingTask_S4,2021.1.4,Win32,60.2300789,,,,,,,,,
,,,,,,,,,,,,0,4,4,4,1,fifth,6,21,Female,R,Donders,2021-07-10_08h36.10.282,ImageRatingTask_S4,2021.1.4,Win32,60.2300789,,,,,,,,,
,,,,,,,,,,,,0,5,5,5,1,sixth,6,21,Female,R,Donders,2021-07-10_08h36.10.282,ImageRatingTask_S4,2021.1.4,Win32,60.2300789,,,,,,,,,
,,,,,,,,,,,,0,6,6,6,1,seventh,6,21,Female,R,Donders,2021-07-10_08h36.10.282,ImageRatingTask_S4,2021.1.4,Win32,60.2300789,,,,,,,,,
,,,,,,,,,,,,0,7,7,7,1,last,6,21,Female,R,Donders,2021-07-10_08h36.10.282,ImageRatingTask_S4,2021.1.4,Win32,60.2300789,,,,,,,,,
,,,,,,,,,,,,,,,,,,6,21,Female,R,Donders,2021-07-10_08h36.10.282,ImageRatingTask_S4,2021.1.4,Win32,60.2300789,0,79,79,44,1,DreamStudyImages_rs1000x750g/Vehicles/People_012_h.jpg,,,
,,7,1.6587,3,1.8122,7,3.1773,1,0.7652,8,0.6595,0,0,0,0,1,main,6,21,Female,R,Donders,2021-07-10_08h36.10.282,ImageRatingTask_S4,2021.1.4,Win32,60.2300789,,,,,,,,,
