slider_pre.response,slider_pre.rt,key_val.keys,key_val.rt,key_aro.keys,key_aro.rt,key_qual.keys,key_qual.rt,key_ncat.keys,key_ncat.rt,key_cats.keys,key_cats.rt,ncat_order.thisRepN,ncat_order.thisTrialN,ncat_order.thisN,ncat_order.thisIndex,ncat_order.ran,cond_cat,participant,age,gender,handedness (L/R),site (IMT/Donders),date,expName,psychopyVersion,OS,frameRate,img_trials.thisRepN,img_trials.thisTrialN,img_trials.thisN,img_trials.thisIndex,img_trials.ran,filename,slider_post.response,slider_post.rt,textbox_openfb.text
6,3.1252,6,2.6381,1,0.6972,6,2.4275,1,0.8285,3,0.6435,0,0,0,0,1,main,9,21,male,R,Donders,2021-07-14_09h34.05.063,ImageRatingTask_S3,2021.1.4,Win32,60.0240096,,,,,,,,,
,,,,,,,,,,,,0,1,1,1,1,second,9,21,male,R,Donders,2021-07-14_09h34.05.063,ImageRatingTask_S3,2021.1.4,Win32,60.0240096,,,,,,,,,
,,,,,,,,,,,,0,2,2,2,1,third,9,21,male,R,Donders,2021-07-14_09h34.05.063,ImageRatingTask_S3,2021.1.4,Win32,60.0240096,,,,,,,,,
,,,,,,,,,,,,0,3,3,3,1,fourth,9,21,male,R,Donders,2021-07-14_09h34.05.063,ImageRatingTask_S3,2021.1.4,Win32,60.0240096,,,,,,,,,
,,,,,,,,,,,,0,4,4,4,1,fifth,9,21,male,R,Donders,2021-07-14_09h34.05.063,ImageRatingTask_S3,2021.1.4,Win32,60.0240096,,,,,,,,,
,,,,,,,,,,,,0,5,5,5,1,sixth,9,21,male,R,Donders,2021-07-14_09h34.05.063,ImageRatingTask_S3,2021.1.4,Win32,60.0240096,,,,,,,,,
,,,,,,,,,,,,0,6,6,6,1,seventh,9,21,male,R,Donders,2021-07-14_09h34.05.063,ImageRatingTask_S3,2021.1.4,Win32,60.0240096,,,,,,,,,
,,,,,,,,,,,,0,7,7,7,1,last,9,21,male,R,Donders,2021-07-14_09h34.05.063,ImageRatingTask_S3,2021.1.4,Win32,60.0240096,,,,,,,,,
,,,,,,,,,,,,,,,,,,9,21,male,R,Donders,2021-07-14_09h34.05.063,ImageRatingTask_S3,2021.1.4,Win32,60.0240096,0,0,0,86,1,DreamStudyImages_rs1000x750g/Mammals/Monkey 1.jpg,,,
,,3,3.3593,6,1.2566,1,0.6271,1,2.2527,3,0.1287,0,0,0,0,1,main,9,21,male,R,Donders,2021-07-14_09h34.05.063,ImageRatingTask_S3,2021.1.4,Win32,60.0240096,,,,,,,,,
,,,,,,,,,,,,0,1,1,1,1,second,9,21,male,R,Donders,2021-07-14_09h34.05.063,ImageRatingTask_S3,2021.1.4,Win32,60.0240096,,,,,,,,,
,,,,,,,,,,,,0,2,2,2,1,third,9,21,male,R,Donders,2021-07-14_09h34.05.063,ImageRatingTask_S3,2021.1.4,Win32,60.0240096,,,,,,,,,
,,,,,,,,,,,,0,3,3,3,1,fourth,9,21,male,R,Donders,2021-07-14_09h34.05.063,ImageRatingTask_S3,2021.1.4,Win32,60.0240096,,,,,,,,,
,,,,,,,,,,,,0,4,4,4,1,fifth,9,21,male,R,Donders,2021-07-14_09h34.05.063,ImageRatingTask_S3,2021.1.4,Win32,60.0240096,,,,,,,,,
,,,,,,,,,,,,0,5,5,5,1,sixth,9,21,male,R,Donders,2021-07-14_09h34.05.063,ImageRatingTask_S3,2021.1.4,Win32,60.0240096,,,,,,,,,
,,,,,,,,,,,,0,6,6,6,1,seventh,9,21,male,R,Donders,2021-07-14_09h34.05.063,ImageRatingTask_S3,2021.1.4,Win32,60.0240096,,,,,,,,,
,,,,,,,,,,,,0,7,7,7,1,last,9,21,male,R,Donders,2021-07-14_09h34.05.063,ImageRatingTask_S3,2021.1.4,Win32,60.0240096,,,,,,,,,
,,,,,,,,,,,,,,,,,,9,21,male,R,Donders,2021-07-14_09h34.05.063,ImageRatingTask_S3,2021.1.4,Win32,60.0240096,0,1,1,37,1,DreamStudyImages_rs1000x750g/Mammals/Animals_054_h_CHECK.jpg,,,
,,6,8.8226,1,1.183,4,1.1979,1,0.7876,2,0.1867,0,0,0,0,1,main,9,21,male,R,Donders,2021-07-14_09h34.05.063,ImageRatingTask_S3,2021.1.4,Win32,60.0240096,,,,,,,,,
,,,,,,,,,,,,0,1,1,1,1,second,9,21,male,R,Donders,2021-07-14_09h34.05.063,ImageRatingTask_S3,2021.1.4,Win32,60.0240096,,,,,,,,,
,,,,,,,,,,,,0,2,2,2,1,third,9,21,male,R,Donders,2021-07-14_09h34.05.063,ImageRatingTask_S3,2021.1.4,Win32,60.0240096,,,,,,,,,
,,,,,,,,,,,,0,3,3,3,1,fourth,9,21,male,R,Donders,2021-07-14_09h34.05.063,ImageRatingTask_S3,2021.1.4,Win32,60.0240096,,,,,,,,,
,,,,,,,,,,,,0,4,4,4,1,fifth,9,21,male,R,Donders,2021-07-14_09h34.05.063,ImageRatingTask_S3,2021.1.4,Win32,60.0240096,,,,,,,,,
,,,,,,,,,,,,0,5,5,5,1,sixth,9,21,male,R,Donders,2021-07-14_09h34.05.063,ImageRatingTask_S3,2021.1.4,Win32,60.0240096,,,,,,,,,
,,,,,,,,,,,,0,6,6,6,1,seventh,9,21,male,R,Donders,2021-07-14_09h34.05.063,ImageRatingTask_S3,2021.1.4,Win32,60.0240096,,,,,,,,,
,,,,,,,,,,,,0,7,7,7,1,last,9,21,male,R,Donders,2021-07-14_09h34.05.063,ImageRatingTask_S3,2021.1.4,Win32,60.0240096,,,,,,,,,
,,,,,,,,,,,,,,,,,,9,21,male,R,Donders,2021-07-14_09h34.05.063,ImageRatingTask_S3,2021.1.4,Win32,60.0240096,0,2,2,64,1,DreamStudyImages_rs1000x750g/Children/Faces_069_h.jpg,,,
,,7,13.3383,1,0.7049,4,1.7385,1,1.8087,3,0.0647,0,0,0,0,1,main,9,21,male,R,Donders,2021-07-14_09h34.05.063,ImageRatingTask_S3,2021.1.4,Win32,60.0240096,,,,,,,,,
,,,,,,,,,,,,0,1,1,1,1,second,9,21,male,R,Donders,2021-07-14_09h34.05.063,ImageRatingTask_S3,2021.1.4,Win32,60.0240096,,,,,,,,,
,,,,,,,,,,,,0,2,2,2,1,third,9,21,male,R,Donders,2021-07-14_09h34.05.063,ImageRatingTask_S3,2021.1.4,Win32,60.0240096,,,,,,,,,
,,,,,,,,,,,,0,3,3,3,1,fourth,9,21,male,R,Donders,2021-07-14_09h34.05.063,ImageRatingTask_S3,2021.1.4,Win32,60.0240096,,,,,,,,,
,,,,,,,,,,,,0,4,4,4,1,fifth,9,21,male,R,Donders,2021-07-14_09h34.05.063,ImageRatingTask_S3,2021.1.4,Win32,60.0240096,,,,,,,,,
,,,,,,,,,,,,0,5,5,5,1,sixth,9,21,male,R,Donders,2021-07-14_09h34.05.063,ImageRatingTask_S3,2021.1.4,Win32,60.0240096,,,,,,,,,
,,,,,,,,,,,,0,6,6,6,1,seventh,9,21,male,R,Donders,2021-07-14_09h34.05.063,ImageRatingTask_S3,2021.1.4,Win32,60.0240096,,,,,,,,,
,,,,,,,,,,,,0,7,7,7,1,last,9,21,male,R,Donders,2021-07-14_09h34.05.063,ImageRatingTask_S3,2021.1.4,Win32,60.0240096,,,,,,,,,
,,,,,,,,,,,,,,,,,,9,21,male,R,Donders,2021-07-14_09h34.05.063,ImageRatingTask_S3,2021.1.4,Win32,60.0240096,0,3,3,52,1,DreamStudyImages_rs1000x750g/Mammals/Zebra 1.jpg,,,
,,6,4.5615,1,0.6648,3,1.4537,1,1.2954,5,0.1982,0,0,0,0,1,main,9,21,male,R,Donders,2021-07-14_09h34.05.063,ImageRatingTask_S3,2021.1.4,Win32,60.0240096,,,,,,,,,
,,,,,,,,,,,,0,1,1,1,1,second,9,21,male,R,Donders,2021-07-14_09h34.05.063,ImageRatingTask_S3,2021.1.4,Win32,60.0240096,,,,,,,,,
,,,,,,,,,,,,0,2,2,2,1,third,9,21,male,R,Donders,2021-07-14_09h34.05.063,ImageRatingTask_S3,2021.1.4,Win32,60.0240096,,,,,,,,,
,,,,,,,,,,,,0,3,3,3,1,fourth,9,21,male,R,Donders,2021-07-14_09h34.05.063,ImageRatingTask_S3,2021.1.4,Win32,60.0240096,,,,,,,,,
,,,,,,,,,,,,0,4,4,4,1,fifth,9,21,male,R,Donders,2021-07-14_09h34.05.063,ImageRatingTask_S3,2021.1.4,Win32,60.0240096,,,,,,,,,
,,,,,,,,,,,,0,5,5,5,1,sixth,9,21,male,R,Donders,2021-07-14_09h34.05.063,ImageRatingTask_S3,2021.1.4,Win32,60.0240096,,,,,,,,,
,,,,,,,,,,,,0,6,6,6,1,seventh,9,21,male,R,Donders,2021-07-14_09h34.05.063,ImageRatingTask_S3,2021.1.4,Win32,60.0240096,,,,,,,,,
,,,,,,,,,,,,0,7,7,7,1,last,9,21,male,R,Donders,2021-07-14_09h34.05.063,ImageRatingTask_S3,2021.1.4,Win32,60.0240096,,,,,,,,,
,,,,,,,,,,,,,,,,,,9,21,male,R,Donders,2021-07-14_09h34.05.063,ImageRatingTask_S3,2021.1.4,Win32,60.0240096,0,4,4,152,1,DreamStudyImages_rs1000x750g/Food/Objects_063_v.jpg,,,
,,7,18.5755,1,0.6502,3,0.9708,1,1.0348,2,0.233,0,0,0,0,1,main,9,21,male,R,Donders,2021-07-14_09h34.05.063,ImageRatingTask_S3,2021.1.4,Win32,60.0240096,,,,,,,,,
,,,,,,,,,,,,0,1,1,1,1,second,9,21,male,R,Donders,2021-07-14_09h34.05.063,ImageRatingTask_S3,2021.1.4,Win32,60.0240096,,,,,,,,,
,,,,,,,,,,,,0,2,2,2,1,third,9,21,male,R,Donders,2021-07-14_09h34.05.063,ImageRatingTask_S3,2021.1.4,Win32,60.0240096,,,,,,,,,
,,,,,,,,,,,,0,3,3,3,1,fourth,9,21,male,R,Donders,2021-07-14_09h34.05.063,ImageRatingTask_S3,2021.1.4,Win32,60.0240096,,,,,,,,,
,,,,,,,,,,,,0,4,4,4,1,fifth,9,21,male,R,Donders,2021-07-14_09h34.05.063,ImageRatingTask_S3,2021.1.4,Win32,60.0240096,,,,,,,,,
,,,,,,,,,,,,0,5,5,5,1,sixth,9,21,male,R,Donders,2021-07-14_09h34.05.063,ImageRatingTask_S3,2021.1.4,Win32,60.0240096,,,,,,,,,
,,,,,,,,,,,,0,6,6,6,1,seventh,9,21,male,R,Donders,2021-07-14_09h34.05.063,ImageRatingTask_S3,2021.1.4,Win32,60.0240096,,,,,,,,,
,,,,,,,,,,,,0,7,7,7,1,last,9,21,male,R,Donders,2021-07-14_09h34.05.063,ImageRatingTask_S3,2021.1.4,Win32,60.0240096,,,,,,,,,
,,,,,,,,,,,,,,,,,,9,21,male,R,Donders,2021-07-14_09h34.05.063,ImageRatingTask_S3,2021.1.4,Win32,60.0240096,0,5,5,130,1,DreamStudyImages_rs1000x750g/Children/IAPS2224_children5.jpg,,,
,,7,24.65,1,1.0365,6,1.4171,1,1.2691,8,1.2042,0,0,0,0,1,main,9,21,male,R,Donders,2021-07-14_09h34.05.063,ImageRatingTask_S3,2021.1.4,Win32,60.0240096,,,,,,,,,
,,,,,,,,,,,,0,1,1,1,1,second,9,21,male,R,Donders,2021-07-14_09h34.05.063,ImageRatingTask_S3,2021.1.4,Win32,60.0240096,,,,,,,,,
,,,,,,,,,,,,0,2,2,2,1,third,9,21,male,R,Donders,2021-07-14_09h34.05.063,ImageRatingTask_S3,2021.1.4,Win32,60.0240096,,,,,,,,,
,,,,,,,,,,,,0,3,3,3,1,fourth,9,21,male,R,Donders,2021-07-14_09h34.05.063,ImageRatingTask_S3,2021.1.4,Win32,60.0240096,,,,,,,,,
,,,,,,,,,,,,0,4,4,4,1,fifth,9,21,male,R,Donders,2021-07-14_09h34.05.063,ImageRatingTask_S3,2021.1.4,Win32,60.0240096,,,,,,,,,
,,,,,,,,,,,,0,5,5,5,1,sixth,9,21,male,R,Donders,2021-07-14_09h34.05.063,ImageRatingTask_S3,2021.1.4,Win32,60.0240096,,,,,,,,,
,,,,,,,,,,,,0,6,6,6,1,seventh,9,21,male,R,Donders,2021-07-14_09h34.05.063,ImageRatingTask_S3,2021.1.4,Win32,60.0240096,,,,,,,,,
,,,,,,,,,,,,0,7,7,7,1,last,9,21,male,R,Donders,2021-07-14_09h34.05.063,ImageRatingTask_S3,2021.1.4,Win32,60.0240096,,,,,,,,,
,,,,,,,,,,,,,,,,,,9,21,male,R,Donders,2021-07-14_09h34.05.063,ImageRatingTask_S3,2021.1.4,Win32,60.0240096,0,6,6,59,1,DreamStudyImages_rs1000x750g/Water/Lake 7.jpg,,,
,,6,9.4632,1,0.6224,4,1.7484,1,1.5031,2,0.0448,0,0,0,0,1,main,9,21,male,R,Donders,2021-07-14_09h34.05.063,ImageRatingTask_S3,2021.1.4,Win32,60.0240096,,,,,,,,,
,,,,,,,,,,,,0,1,1,1,1,second,9,21,male,R,Donders,2021-07-14_09h34.05.063,ImageRatingTask_S3,2021.1.4,Win32,60.0240096,,,,,,,,,
,,,,,,,,,,,,0,2,2,2,1,third,9,21,male,R,Donders,2021-07-14_09h34.05.063,ImageRatingTask_S3,2021.1.4,Win32,60.0240096,,,,,,,,,
,,,,,,,,,,,,0,3,3,3,1,fourth,9,21,male,R,Donders,2021-07-14_09h34.05.063,ImageRatingTask_S3,2021.1.4,Win32,60.0240096,,,,,,,,,
,,,,,,,,,,,,0,4,4,4,1,fifth,9,21,male,R,Donders,2021-07-14_09h34.05.063,ImageRatingTask_S3,2021.1.4,Win32,60.0240096,,,,,,,,,
,,,,,,,,,,,,0,5,5,5,1,sixth,9,21,male,R,Donders,2021-07-14_09h34.05.063,ImageRatingTask_S3,2021.1.4,Win32,60.0240096,,,,,,,,,
,,,,,,,,,,,,0,6,6,6,1,seventh,9,21,male,R,Donders,2021-07-14_09h34.05.063,ImageRatingTask_S3,2021.1.4,Win32,60.0240096,,,,,,,,,
,,,,,,,,,,,,0,7,7,7,1,last,9,21,male,R,Donders,2021-07-14_09h34.05.063,ImageRatingTask_S3,2021.1.4,Win32,60.0240096,,,,,,,,,
,,,,,,,,,,,,,,,,,,9,21,male,R,Donders,2021-07-14_09h34.05.063,ImageRatingTask_S3,2021.1.4,Win32,60.0240096,0,7,7,153,1,DreamStudyImages_rs1000x750g/Children/Faces_105_h.jpg,,,
,,4,2.3102,1,1.0295,4,1.6201,1,2.0801,2,0.1434,0,0,0,0,1,main,9,21,male,R,Donders,2021-07-14_09h34.05.063,ImageRatingTask_S3,2021.1.4,Win32,60.0240096,,,,,,,,,
,,,,,,,,,,,,0,1,1,1,1,second,9,21,male,R,Donders,2021-07-14_09h34.05.063,ImageRatingTask_S3,2021.1.4,Win32,60.0240096,,,,,,,,,
,,,,,,,,,,,,0,2,2,2,1,third,9,21,male,R,Donders,2021-07-14_09h34.05.063,ImageRatingTask_S3,2021.1.4,Win32,60.0240096,,,,,,,,,
,,,,,,,,,,,,0,3,3,3,1,fourth,9,21,male,R,Donders,2021-07-14_09h34.05.063,ImageRatingTask_S3,2021.1.4,Win32,60.0240096,,,,,,,,,
,,,,,,,,,,,,0,4,4,4,1,fifth,9,21,male,R,Donders,2021-07-14_09h34.05.063,ImageRatingTask_S3,2021.1.4,Win32,60.0240096,,,,,,,,,
,,,,,,,,,,,,0,5,5,5,1,sixth,9,21,male,R,Donders,2021-07-14_09h34.05.063,ImageRatingTask_S3,2021.1.4,Win32,60.0240096,,,,,,,,,
,,,,,,,,,,,,0,6,6,6,1,seventh,9,21,male,R,Donders,2021-07-14_09h34.05.063,ImageRatingTask_S3,2021.1.4,Win32,60.0240096,,,,,,,,,
,,,,,,,,,,,,0,7,7,7,1,last,9,21,male,R,Donders,2021-07-14_09h34.05.063,ImageRatingTask_S3,2021.1.4,Win32,60.0240096,,,,,,,,,
,,,,,,,,,,,,,,,,,,9,21,male,R,Donders,2021-07-14_09h34.05.063,ImageRatingTask_S3,2021.1.4,Win32,60.0240096,0,8,8,132,1,DreamStudyImages_rs1000x750g/Children/Faces_119_v.jpg,,,
,,6,2.5211,1,0.6721,4,2.046,1,1.0955,2,0.0723,0,0,0,0,1,main,9,21,male,R,Donders,2021-07-14_09h34.05.063,ImageRatingTask_S3,2021.1.4,Win32,60.0240096,,,,,,,,,
,,,,,,,,,,,,0,1,1,1,1,second,9,21,male,R,Donders,2021-07-14_09h34.05.063,ImageRatingTask_S3,2021.1.4,Win32,60.0240096,,,,,,,,,
,,,,,,,,,,,,0,2,2,2,1,third,9,21,male,R,Donders,2021-07-14_09h34.05.063,ImageRatingTask_S3,2021.1.4,Win32,60.0240096,,,,,,,,,
,,,,,,,,,,,,0,3,3,3,1,fourth,9,21,male,R,Donders,2021-07-14_09h34.05.063,ImageRatingTask_S3,2021.1.4,Win32,60.0240096,,,,,,,,,
,,,,,,,,,,,,0,4,4,4,1,fifth,9,21,male,R,Donders,2021-07-14_09h34.05.063,ImageRatingTask_S3,2021.1.4,Win32,60.0240096,,,,,,,,,
,,,,,,,,,,,,0,5,5,5,1,sixth,9,21,male,R,Donders,2021-07-14_09h34.05.063,ImageRatingTask_S3,2021.1.4,Win32,60.0240096,,,,,,,,,
,,,,,,,,,,,,0,6,6,6,1,seventh,9,21,male,R,Donders,2021-07-14_09h34.05.063,ImageRatingTask_S3,2021.1.4,Win32,60.0240096,,,,,,,,,
,,,,,,,,,,,,0,7,7,7,1,last,9,21,male,R,Donders,2021-07-14_09h34.05.063,ImageRatingTask_S3,2021.1.4,Win32,60.0240096,,,,,,,,,
,,,,,,,,,,,,,,,,,,9,21,male,R,Donders,2021-07-14_09h34.05.063,ImageRatingTask_S3,2021.1.4,Win32,60.0240096,0,9,9,148,1,DreamStudyImages_rs1000x750g/Children/Surprise 2.jpg,,,
,,2,1.6115,6,0.4533,4,2.3349,1,3.7024,7,1.8019,0,0,0,0,1,main,9,21,male,R,Donders,2021-07-14_09h34.05.063,ImageRatingTask_S3,2021.1.4,Win32,60.0240096,,,,,,,,,
,,,,,,,,,,,,0,1,1,1,1,second,9,21,male,R,Donders,2021-07-14_09h34.05.063,ImageRatingTask_S3,2021.1.4,Win32,60.0240096,,,,,,,,,
,,,,,,,,,,,,0,2,2,2,1,third,9,21,male,R,Donders,2021-07-14_09h34.05.063,ImageRatingTask_S3,2021.1.4,Win32,60.0240096,,,,,,,,,
,,,,,,,,,,,,0,3,3,3,1,fourth,9,21,male,R,Donders,2021-07-14_09h34.05.063,ImageRatingTask_S3,2021.1.4,Win32,60.0240096,,,,,,,,,
,,,,,,,,,,,,0,4,4,4,1,fifth,9,21,male,R,Donders,2021-07-14_09h34.05.063,ImageRatingTask_S3,2021.1.4,Win32,60.0240096,,,,,,,,,
,,,,,,,,,,,,0,5,5,5,1,sixth,9,21,male,R,Donders,2021-07-14_09h34.05.063,ImageRatingTask_S3,2021.1.4,Win32,60.0240096,,,,,,,,,
,,,,,,,,,,,,0,6,6,6,1,seventh,9,21,male,R,Donders,2021-07-14_09h34.05.063,ImageRatingTask_S3,2021.1.4,Win32,60.0240096,,,,,,,,,
,,,,,,,,,,,,0,7,7,7,1,last,9,21,male,R,Donders,2021-07-14_09h34.05.063,ImageRatingTask_S3,2021.1.4,Win32,60.0240096,,,,,,,,,
,,,,,,,,,,,,,,,,,,9,21,male,R,Donders,2021-07-14_09h34.05.063,ImageRatingTask_S3,2021.1.4,Win32,60.0240096,0,10,10,4,1,DreamStudyImages_rs1000x750g/Vehicles/NDPS87_backtruck.jpg,,,
,,9,15.6662,4,1.0409,3,2.0082,1,1.1476,7,0.7102,0,0,0,0,1,main,9,21,male,R,Donders,2021-07-14_09h34.05.063,ImageRatingTask_S3,2021.1.4,Win32,60.0240096,,,,,,,,,
,,,,,,,,,,,,0,1,1,1,1,second,9,21,male,R,Donders,2021-07-14_09h34.05.063,ImageRatingTask_S3,2021.1.4,Win32,60.0240096,,,,,,,,,
,,,,,,,,,,,,0,2,2,2,1,third,9,21,male,R,Donders,2021-07-14_09h34.05.063,ImageRatingTask_S3,2021.1.4,Win32,60.0240096,,,,,,,,,
,,,,,,,,,,,,0,3,3,3,1,fourth,9,21,male,R,Donders,2021-07-14_09h34.05.063,ImageRatingTask_S3,2021.1.4,Win32,60.0240096,,,,,,,,,
,,,,,,,,,,,,0,4,4,4,1,fifth,9,21,male,R,Donders,2021-07-14_09h34.05.063,ImageRatingTask_S3,2021.1.4,Win32,60.0240096,,,,,,,,,
,,,,,,,,,,,,0,5,5,5,1,sixth,9,21,male,R,Donders,2021-07-14_09h34.05.063,ImageRatingTask_S3,2021.1.4,Win32,60.0240096,,,,,,,,,
,,,,,,,,,,,,0,6,6,6,1,seventh,9,21,male,R,Donders,2021-07-14_09h34.05.063,ImageRatingTask_S3,2021.1.4,Win32,60.0240096,,,,,,,,,
,,,,,,,,,,,,0,7,7,7,1,last,9,21,male,R,Donders,2021-07-14_09h34.05.063,ImageRatingTask_S3,2021.1.4,Win32,60.0240096,,,,,,,,,
,,,,,,,,,,,,,,,,,,9,21,male,R,Donders,2021-07-14_09h34.05.063,ImageRatingTask_S3,2021.1.4,Win32,60.0240096,0,11,11,61,1,DreamStudyImages_rs1000x750g/Vehicles/Car race 3.jpg,,,
,,6,15.363,1,0.5535,4,3.0597,1,0.9592,8,0.6295,0,0,0,0,1,main,9,21,male,R,Donders,2021-07-14_09h34.05.063,ImageRatingTask_S3,2021.1.4,Win32,60.0240096,,,,,,,,,
,,,,,,,,,,,,0,1,1,1,1,second,9,21,male,R,Donders,2021-07-14_09h34.05.063,ImageRatingTask_S3,2021.1.4,Win32,60.0240096,,,,,,,,,
,,,,,,,,,,,,0,2,2,2,1,third,9,21,male,R,Donders,2021-07-14_09h34.05.063,ImageRatingTask_S3,2021.1.4,Win32,60.0240096,,,,,,,,,
,,,,,,,,,,,,0,3,3,3,1,fourth,9,21,male,R,Donders,2021-07-14_09h34.05.063,ImageRatingTask_S3,2021.1.4,Win32,60.0240096,,,,,,,,,
,,,,,,,,,,,,0,4,4,4,1,fifth,9,21,male,R,Donders,2021-07-14_09h34.05.063,ImageRatingTask_S3,2021.1.4,Win32,60.0240096,,,,,,,,,
,,,,,,,,,,,,0,5,5,5,1,sixth,9,21,male,R,Donders,2021-07-14_09h34.05.063,ImageRatingTask_S3,2021.1.4,Win32,60.0240096,,,,,,,,,
,,,,,,,,,,,,0,6,6,6,1,seventh,9,21,male,R,Donders,2021-07-14_09h34.05.063,ImageRatingTask_S3,2021.1.4,Win32,60.0240096,,,,,,,,,
,,,,,,,,,,,,0,7,7,7,1,last,9,21,male,R,Donders,2021-07-14_09h34.05.063,ImageRatingTask_S3,2021.1.4,Win32,60.0240096,,,,,,,,,
,,,,,,,,,,,,,,,,,,9,21,male,R,Donders,2021-07-14_09h34.05.063,ImageRatingTask_S3,2021.1.4,Win32,60.0240096,0,12,12,22,1,DreamStudyImages_rs1000x750g/Water/Lake 4.jpg,,,
,,1,6.5241,7,0.9232,3,1.3947,2,3.1207,4,2.0287,0,0,0,0,1,main,9,21,male,R,Donders,2021-07-14_09h34.05.063,ImageRatingTask_S3,2021.1.4,Win32,60.0240096,,,,,,,,,
,,,,,,,,,,5,0.7338,0,1,1,1,1,second,9,21,male,R,Donders,2021-07-14_09h34.05.063,ImageRatingTask_S3,2021.1.4,Win32,60.0240096,,,,,,,,,
,,,,,,,,,,,,0,2,2,2,1,third,9,21,male,R,Donders,2021-07-14_09h34.05.063,ImageRatingTask_S3,2021.1.4,Win32,60.0240096,,,,,,,,,
,,,,,,,,,,,,0,3,3,3,1,fourth,9,21,male,R,Donders,2021-07-14_09h34.05.063,ImageRatingTask_S3,2021.1.4,Win32,60.0240096,,,,,,,,,
,,,,,,,,,,,,0,4,4,4,1,fifth,9,21,male,R,Donders,2021-07-14_09h34.05.063,ImageRatingTask_S3,2021.1.4,Win32,60.0240096,,,,,,,,,
,,,,,,,,,,,,0,5,5,5,1,sixth,9,21,male,R,Donders,2021-07-14_09h34.05.063,ImageRatingTask_S3,2021.1.4,Win32,60.0240096,,,,,,,,,
,,,,,,,,,,,,0,6,6,6,1,seventh,9,21,male,R,Donders,2021-07-14_09h34.05.063,ImageRatingTask_S3,2021.1.4,Win32,60.0240096,,,,,,,,,
,,,,,,,,,,,,0,7,7,7,1,last,9,21,male,R,Donders,2021-07-14_09h34.05.063,ImageRatingTask_S3,2021.1.4,Win32,60.0240096,,,,,,,,,
,,,,,,,,,,,,,,,,,,9,21,male,R,Donders,2021-07-14_09h34.05.063,ImageRatingTask_S3,2021.1.4,Win32,60.0240096,0,13,13,90,1,DreamStudyImages_rs1000x750g/Food/Objects_018_h.jpg,,,
,,4,14.7836,1,0.8421,5,3.61,0,1.3097,,,0,0,0,0,1,main,9,21,male,R,Donders,2021-07-14_09h34.05.063,ImageRatingTask_S3,2021.1.4,Win32,60.0240096,,,,,,,,,
,,,,,,,,,,,,0,1,1,1,1,second,9,21,male,R,Donders,2021-07-14_09h34.05.063,ImageRatingTask_S3,2021.1.4,Win32,60.0240096,,,,,,,,,
,,,,,,,,,,,,0,2,2,2,1,third,9,21,male,R,Donders,2021-07-14_09h34.05.063,ImageRatingTask_S3,2021.1.4,Win32,60.0240096,,,,,,,,,
,,,,,,,,,,,,0,3,3,3,1,fourth,9,21,male,R,Donders,2021-07-14_09h34.05.063,ImageRatingTask_S3,2021.1.4,Win32,60.0240096,,,,,,,,,
,,,,,,,,,,,,0,4,4,4,1,fifth,9,21,male,R,Donders,2021-07-14_09h34.05.063,ImageRatingTask_S3,2021.1.4,Win32,60.0240096,,,,,,,,,
,,,,,,,,,,,,0,5,5,5,1,sixth,9,21,male,R,Donders,2021-07-14_09h34.05.063,ImageRatingTask_S3,2021.1.4,Win32,60.0240096,,,,,,,,,
,,,,,,,,,,,,0,6,6,6,1,seventh,9,21,male,R,Donders,2021-07-14_09h34.05.063,ImageRatingTask_S3,2021.1.4,Win32,60.0240096,,,,,,,,,
,,,,,,,,,,,,0,7,7,7,1,last,9,21,male,R,Donders,2021-07-14_09h34.05.063,ImageRatingTask_S3,2021.1.4,Win32,60.0240096,,,,,,,,,
,,,,,,,,,,,,,,,,,,9,21,male,R,Donders,2021-07-14_09h34.05.063,ImageRatingTask_S3,2021.1.4,Win32,60.0240096,0,14,14,112,1,DreamStudyImages_rs1000x750g/Food/Objects_093_h.jpg,,,
,,7,2.2576,1,0.7413,7,1.8788,1,0.7661,2,0.1569,0,0,0,0,1,main,9,21,male,R,Donders,2021-07-14_09h34.05.063,ImageRatingTask_S3,2021.1.4,Win32,60.0240096,,,,,,,,,
,,,,,,,,,,,,0,1,1,1,1,second,9,21,male,R,Donders,2021-07-14_09h34.05.063,ImageRatingTask_S3,2021.1.4,Win32,60.0240096,,,,,,,,,
,,,,,,,,,,,,0,2,2,2,1,third,9,21,male,R,Donders,2021-07-14_09h34.05.063,ImageRatingTask_S3,2021.1.4,Win32,60.0240096,,,,,,,,,
,,,,,,,,,,,,0,3,3,3,1,fourth,9,21,male,R,Donders,2021-07-14_09h34.05.063,ImageRatingTask_S3,2021.1.4,Win32,60.0240096,,,,,,,,,
,,,,,,,,,,,,0,4,4,4,1,fifth,9,21,male,R,Donders,2021-07-14_09h34.05.063,ImageRatingTask_S3,2021.1.4,Win32,60.0240096,,,,,,,,,
,,,,,,,,,,,,0,5,5,5,1,sixth,9,21,male,R,Donders,2021-07-14_09h34.05.063,ImageRatingTask_S3,2021.1.4,Win32,60.0240096,,,,,,,,,
,,,,,,,,,,,,0,6,6,6,1,seventh,9,21,male,R,Donders,2021-07-14_09h34.05.063,ImageRatingTask_S3,2021.1.4,Win32,60.0240096,,,,,,,,,
,,,,,,,,,,,,0,7,7,7,1,last,9,21,male,R,Donders,2021-07-14_09h34.05.063,ImageRatingTask_S3,2021.1.4,Win32,60.0240096,,,,,,,,,
,,,,,,,,,,,,,,,,,,9,21,male,R,Donders,2021-07-14_09h34.05.063,ImageRatingTask_S3,2021.1.4,Win32,60.0240096,0,15,15,8,1,DreamStudyImages_rs1000x750g/Children/Baby 6.jpg,,,
,,6,4.3816,1,0.5468,6,1.5469,1,0.9743,5,0.1954,0,0,0,0,1,main,9,21,male,R,Donders,2021-07-14_09h34.05.063,ImageRatingTask_S3,2021.1.4,Win32,60.0240096,,,,,,,,,
,,,,,,,,,,,,0,1,1,1,1,second,9,21,male,R,Donders,2021-07-14_09h34.05.063,ImageRatingTask_S3,2021.1.4,Win32,60.0240096,,,,,,,,,
,,,,,,,,,,,,0,2,2,2,1,third,9,21,male,R,Donders,2021-07-14_09h34.05.063,ImageRatingTask_S3,2021.1.4,Win32,60.0240096,,,,,,,,,
,,,,,,,,,,,,0,3,3,3,1,fourth,9,21,male,R,Donders,2021-07-14_09h34.05.063,ImageRatingTask_S3,2021.1.4,Win32,60.0240096,,,,,,,,,
,,,,,,,,,,,,0,4,4,4,1,fifth,9,21,male,R,Donders,2021-07-14_09h34.05.063,ImageRatingTask_S3,2021.1.4,Win32,60.0240096,,,,,,,,,
,,,,,,,,,,,,0,5,5,5,1,sixth,9,21,male,R,Donders,2021-07-14_09h34.05.063,ImageRatingTask_S3,2021.1.4,Win32,60.0240096,,,,,,,,,
,,,,,,,,,,,,0,6,6,6,1,seventh,9,21,male,R,Donders,2021-07-14_09h34.05.063,ImageRatingTask_S3,2021.1.4,Win32,60.0240096,,,,,,,,,
,,,,,,,,,,,,0,7,7,7,1,last,9,21,male,R,Donders,2021-07-14_09h34.05.063,ImageRatingTask_S3,2021.1.4,Win32,60.0240096,,,,,,,,,
,,,,,,,,,,,,,,,,,,9,21,male,R,Donders,2021-07-14_09h34.05.063,ImageRatingTask_S3,2021.1.4,Win32,60.0240096,0,16,16,60,1,DreamStudyImages_rs1000x750g/Food/Objects_045_h.jpg,,,
,,6,10.0898,1,0.6594,7,3.1272,1,0.9509,7,0.7062,0,0,0,0,1,main,9,21,male,R,Donders,2021-07-14_09h34.05.063,ImageRatingTask_S3,2021.1.4,Win32,60.0240096,,,,,,,,,
,,,,,,,,,,,,0,1,1,1,1,second,9,21,male,R,Donders,2021-07-14_09h34.05.063,ImageRatingTask_S3,2021.1.4,Win32,60.0240096,,,,,,,,,
,,,,,,,,,,,,0,2,2,2,1,third,9,21,male,R,Donders,2021-07-14_09h34.05.063,ImageRatingTask_S3,2021.1.4,Win32,60.0240096,,,,,,,,,
,,,,,,,,,,,,0,3,3,3,1,fourth,9,21,male,R,Donders,2021-07-14_09h34.05.063,ImageRatingTask_S3,2021.1.4,Win32,60.0240096,,,,,,,,,
,,,,,,,,,,,,0,4,4,4,1,fifth,9,21,male,R,Donders,2021-07-14_09h34.05.063,ImageRatingTask_S3,2021.1.4,Win32,60.0240096,,,,,,,,,
,,,,,,,,,,,,0,5,5,5,1,sixth,9,21,male,R,Donders,2021-07-14_09h34.05.063,ImageRatingTask_S3,2021.1.4,Win32,60.0240096,,,,,,,,,
,,,,,,,,,,,,0,6,6,6,1,seventh,9,21,male,R,Donders,2021-07-14_09h34.05.063,ImageRatingTask_S3,2021.1.4,Win32,60.0240096,,,,,,,,,
,,,,,,,,,,,,0,7,7,7,1,last,9,21,male,R,Donders,2021-07-14_09h34.05.063,ImageRatingTask_S3,2021.1.4,Win32,60.0240096,,,,,,,,,
,,,,,,,,,,,,,,,,,,9,21,male,R,Donders,2021-07-14_09h34.05.063,ImageRatingTask_S3,2021.1.4,Win32,60.0240096,0,17,17,113,1,DreamStudyImages_rs1000x750g/Vehicles/Objects_288_h.jpg,,,
,,6,24.1292,1,0.6244,6,1.4806,1,1.3613,8,0.9513,0,0,0,0,1,main,9,21,male,R,Donders,2021-07-14_09h34.05.063,ImageRatingTask_S3,2021.1.4,Win32,60.0240096,,,,,,,,,
,,,,,,,,,,,,0,1,1,1,1,second,9,21,male,R,Donders,2021-07-14_09h34.05.063,ImageRatingTask_S3,2021.1.4,Win32,60.0240096,,,,,,,,,
,,,,,,,,,,,,0,2,2,2,1,third,9,21,male,R,Donders,2021-07-14_09h34.05.063,ImageRatingTask_S3,2021.1.4,Win32,60.0240096,,,,,,,,,
,,,,,,,,,,,,0,3,3,3,1,fourth,9,21,male,R,Donders,2021-07-14_09h34.05.063,ImageRatingTask_S3,2021.1.4,Win32,60.0240096,,,,,,,,,
,,,,,,,,,,,,0,4,4,4,1,fifth,9,21,male,R,Donders,2021-07-14_09h34.05.063,ImageRatingTask_S3,2021.1.4,Win32,60.0240096,,,,,,,,,
,,,,,,,,,,,,0,5,5,5,1,sixth,9,21,male,R,Donders,2021-07-14_09h34.05.063,ImageRatingTask_S3,2021.1.4,Win32,60.0240096,,,,,,,,,
,,,,,,,,,,,,0,6,6,6,1,seventh,9,21,male,R,Donders,2021-07-14_09h34.05.063,ImageRatingTask_S3,2021.1.4,Win32,60.0240096,,,,,,,,,
,,,,,,,,,,,,0,7,7,7,1,last,9,21,male,R,Donders,2021-07-14_09h34.05.063,ImageRatingTask_S3,2021.1.4,Win32,60.0240096,,,,,,,,,
,,,,,,,,,,,,,,,,,,9,21,male,R,Donders,2021-07-14_09h34.05.063,ImageRatingTask_S3,2021.1.4,Win32,60.0240096,0,18,18,106,1,DreamStudyImages_rs1000x750g/Water/waterneutral2.jpg,,,
,,7,2.456,1,0.6589,4,1.5825,1,1.4645,3,0.5651,0,0,0,0,1,main,9,21,male,R,Donders,2021-07-14_09h34.05.063,ImageRatingTask_S3,2021.1.4,Win32,60.0240096,,,,,,,,,
,,,,,,,,,,,,0,1,1,1,1,second,9,21,male,R,Donders,2021-07-14_09h34.05.063,ImageRatingTask_S3,2021.1.4,Win32,60.0240096,,,,,,,,,
,,,,,,,,,,,,0,2,2,2,1,third,9,21,male,R,Donders,2021-07-14_09h34.05.063,ImageRatingTask_S3,2021.1.4,Win32,60.0240096,,,,,,,,,
,,,,,,,,,,,,0,3,3,3,1,fourth,9,21,male,R,Donders,2021-07-14_09h34.05.063,ImageRatingTask_S3,2021.1.4,Win32,60.0240096,,,,,,,,,
,,,,,,,,,,,,0,4,4,4,1,fifth,9,21,male,R,Donders,2021-07-14_09h34.05.063,ImageRatingTask_S3,2021.1.4,Win32,60.0240096,,,,,,,,,
,,,,,,,,,,,,0,5,5,5,1,sixth,9,21,male,R,Donders,2021-07-14_09h34.05.063,ImageRatingTask_S3,2021.1.4,Win32,60.0240096,,,,,,,,,
,,,,,,,,,,,,0,6,6,6,1,seventh,9,21,male,R,Donders,2021-07-14_09h34.05.063,ImageRatingTask_S3,2021.1.4,Win32,60.0240096,,,,,,,,,
,,,,,,,,,,,,0,7,7,7,1,last,9,21,male,R,Donders,2021-07-14_09h34.05.063,ImageRatingTask_S3,2021.1.4,Win32,60.0240096,,,,,,,,,
,,,,,,,,,,,,,,,,,,9,21,male,R,Donders,2021-07-14_09h34.05.063,ImageRatingTask_S3,2021.1.4,Win32,60.0240096,0,19,19,135,1,DreamStudyImages_rs1000x750g/Mammals/Animals_210_v.jpg,,,
,,6,11.3444,1,0.7921,2,1.2066,1,2.7483,6,0.1992,0,0,0,0,1,main,9,21,male,R,Donders,2021-07-14_09h34.05.063,ImageRatingTask_S3,2021.1.4,Win32,60.0240096,,,,,,,,,
,,,,,,,,,,,,0,1,1,1,1,second,9,21,male,R,Donders,2021-07-14_09h34.05.063,ImageRatingTask_S3,2021.1.4,Win32,60.0240096,,,,,,,,,
,,,,,,,,,,,,0,2,2,2,1,third,9,21,male,R,Donders,2021-07-14_09h34.05.063,ImageRatingTask_S3,2021.1.4,Win32,60.0240096,,,,,,,,,
,,,,,,,,,,,,0,3,3,3,1,fourth,9,21,male,R,Donders,2021-07-14_09h34.05.063,ImageRatingTask_S3,2021.1.4,Win32,60.0240096,,,,,,,,,
,,,,,,,,,,,,0,4,4,4,1,fifth,9,21,male,R,Donders,2021-07-14_09h34.05.063,ImageRatingTask_S3,2021.1.4,Win32,60.0240096,,,,,,,,,
,,,,,,,,,,,,0,5,5,5,1,sixth,9,21,male,R,Donders,2021-07-14_09h34.05.063,ImageRatingTask_S3,2021.1.4,Win32,60.0240096,,,,,,,,,
,,,,,,,,,,,,0,6,6,6,1,seventh,9,21,male,R,Donders,2021-07-14_09h34.05.063,ImageRatingTask_S3,2021.1.4,Win32,60.0240096,,,,,,,,,
,,,,,,,,,,,,0,7,7,7,1,last,9,21,male,R,Donders,2021-07-14_09h34.05.063,ImageRatingTask_S3,2021.1.4,Win32,60.0240096,,,,,,,,,
,,,,,,,,,,,,,,,,,,9,21,male,R,Donders,2021-07-14_09h34.05.063,ImageRatingTask_S3,2021.1.4,Win32,60.0240096,0,20,20,139,1,DreamStudyImages_rs1000x750g/Houses/Skyscraper 2_CROPPED.jpg,,,
,,7,1.9756,1,1.2062,6,2.0275,1,0.6085,8,0.4657,0,0,0,0,1,main,9,21,male,R,Donders,2021-07-14_09h34.05.063,ImageRatingTask_S3,2021.1.4,Win32,60.0240096,,,,,,,,,
,,,,,,,,,,,,0,1,1,1,1,second,9,21,male,R,Donders,2021-07-14_09h34.05.063,ImageRatingTask_S3,2021.1.4,Win32,60.0240096,,,,,,,,,
,,,,,,,,,,,,0,2,2,2,1,third,9,21,male,R,Donders,2021-07-14_09h34.05.063,ImageRatingTask_S3,2021.1.4,Win32,60.0240096,,,,,,,,,
,,,,,,,,,,,,0,3,3,3,1,fourth,9,21,male,R,Donders,2021-07-14_09h34.05.063,ImageRatingTask_S3,2021.1.4,Win32,60.0240096,,,,,,,,,
,,,,,,,,,,,,0,4,4,4,1,fifth,9,21,male,R,Donders,2021-07-14_09h34.05.063,ImageRatingTask_S3,2021.1.4,Win32,60.0240096,,,,,,,,,
,,,,,,,,,,,,0,5,5,5,1,sixth,9,21,male,R,Donders,2021-07-14_09h34.05.063,ImageRatingTask_S3,2021.1.4,Win32,60.0240096,,,,,,,,,
,,,,,,,,,,,,0,6,6,6,1,seventh,9,21,male,R,Donders,2021-07-14_09h34.05.063,ImageRatingTask_S3,2021.1.4,Win32,60.0240096,,,,,,,,,
,,,,,,,,,,,,0,7,7,7,1,last,9,21,male,R,Donders,2021-07-14_09h34.05.063,ImageRatingTask_S3,2021.1.4,Win32,60.0240096,,,,,,,,,
,,,,,,,,,,,,,,,,,,9,21,male,R,Donders,2021-07-14_09h34.05.063,ImageRatingTask_S3,2021.1.4,Win32,60.0240096,0,21,21,105,1,DreamStudyImages_rs1000x750g/Water/Lake 2.jpg,,,
,,3,2.0712,1,0.8187,6,2.1145,2,2.4339,7,0.797,0,0,0,0,1,main,9,21,male,R,Donders,2021-07-14_09h34.05.063,ImageRatingTask_S3,2021.1.4,Win32,60.0240096,,,,,,,,,
,,,,,,,,,,8,0.1507,0,1,1,1,1,second,9,21,male,R,Donders,2021-07-14_09h34.05.063,ImageRatingTask_S3,2021.1.4,Win32,60.0240096,,,,,,,,,
,,,,,,,,,,,,0,2,2,2,1,third,9,21,male,R,Donders,2021-07-14_09h34.05.063,ImageRatingTask_S3,2021.1.4,Win32,60.0240096,,,,,,,,,
,,,,,,,,,,,,0,3,3,3,1,fourth,9,21,male,R,Donders,2021-07-14_09h34.05.063,ImageRatingTask_S3,2021.1.4,Win32,60.0240096,,,,,,,,,
,,,,,,,,,,,,0,4,4,4,1,fifth,9,21,male,R,Donders,2021-07-14_09h34.05.063,ImageRatingTask_S3,2021.1.4,Win32,60.0240096,,,,,,,,,
,,,,,,,,,,,,0,5,5,5,1,sixth,9,21,male,R,Donders,2021-07-14_09h34.05.063,ImageRatingTask_S3,2021.1.4,Win32,60.0240096,,,,,,,,,
,,,,,,,,,,,,0,6,6,6,1,seventh,9,21,male,R,Donders,2021-07-14_09h34.05.063,ImageRatingTask_S3,2021.1.4,Win32,60.0240096,,,,,,,,,
,,,,,,,,,,,,0,7,7,7,1,last,9,21,male,R,Donders,2021-07-14_09h34.05.063,ImageRatingTask_S3,2021.1.4,Win32,60.0240096,,,,,,,,,
,,,,,,,,,,,,,,,,,,9,21,male,R,Donders,2021-07-14_09h34.05.063,ImageRatingTask_S3,2021.1.4,Win32,60.0240096,0,22,22,140,1,DreamStudyImages_rs1000x750g/Vehicles/Thunderstorm 3.jpg,,,
,,2,31.8448,7,0.9184,4,1.2526,1,0.6809,8,0.6856,0,0,0,0,1,main,9,21,male,R,Donders,2021-07-14_09h34.05.063,ImageRatingTask_S3,2021.1.4,Win32,60.0240096,,,,,,,,,
,,,,,,,,,,,,0,1,1,1,1,second,9,21,male,R,Donders,2021-07-14_09h34.05.063,ImageRatingTask_S3,2021.1.4,Win32,60.0240096,,,,,,,,,
,,,,,,,,,,,,0,2,2,2,1,third,9,21,male,R,Donders,2021-07-14_09h34.05.063,ImageRatingTask_S3,2021.1.4,Win32,60.0240096,,,,,,,,,
,,,,,,,,,,,,0,3,3,3,1,fourth,9,21,male,R,Donders,2021-07-14_09h34.05.063,ImageRatingTask_S3,2021.1.4,Win32,60.0240096,,,,,,,,,
,,,,,,,,,,,,0,4,4,4,1,fifth,9,21,male,R,Donders,2021-07-14_09h34.05.063,ImageRatingTask_S3,2021.1.4,Win32,60.0240096,,,,,,,,,
,,,,,,,,,,,,0,5,5,5,1,sixth,9,21,male,R,Donders,2021-07-14_09h34.05.063,ImageRatingTask_S3,2021.1.4,Win32,60.0240096,,,,,,,,,
,,,,,,,,,,,,0,6,6,6,1,seventh,9,21,male,R,Donders,2021-07-14_09h34.05.063,ImageRatingTask_S3,2021.1.4,Win32,60.0240096,,,,,,,,,
,,,,,,,,,,,,0,7,7,7,1,last,9,21,male,R,Donders,2021-07-14_09h34.05.063,ImageRatingTask_S3,2021.1.4,Win32,60.0240096,,,,,,,,,
,,,,,,,,,,,,,,,,,,9,21,male,R,Donders,2021-07-14_09h34.05.063,ImageRatingTask_S3,2021.1.4,Win32,60.0240096,0,23,23,115,1,DreamStudyImages_rs1000x750g/Water/98.jpg,,,
,,6,2.1612,1,1.7594,7,1.06,2,1.6664,8,0.9805,0,0,0,0,1,main,9,21,male,R,Donders,2021-07-14_09h34.05.063,ImageRatingTask_S3,2021.1.4,Win32,60.0240096,,,,,,,,,
,,,,,,,,,,6,0.2842,0,1,1,1,1,second,9,21,male,R,Donders,2021-07-14_09h34.05.063,ImageRatingTask_S3,2021.1.4,Win32,60.0240096,,,,,,,,,
,,,,,,,,,,,,0,2,2,2,1,third,9,21,male,R,Donders,2021-07-14_09h34.05.063,ImageRatingTask_S3,2021.1.4,Win32,60.0240096,,,,,,,,,
,,,,,,,,,,,,0,3,3,3,1,fourth,9,21,male,R,Donders,2021-07-14_09h34.05.063,ImageRatingTask_S3,2021.1.4,Win32,60.0240096,,,,,,,,,
,,,,,,,,,,,,0,4,4,4,1,fifth,9,21,male,R,Donders,2021-07-14_09h34.05.063,ImageRatingTask_S3,2021.1.4,Win32,60.0240096,,,,,,,,,
,,,,,,,,,,,,0,5,5,5,1,sixth,9,21,male,R,Donders,2021-07-14_09h34.05.063,ImageRatingTask_S3,2021.1.4,Win32,60.0240096,,,,,,,,,
,,,,,,,,,,,,0,6,6,6,1,seventh,9,21,male,R,Donders,2021-07-14_09h34.05.063,ImageRatingTask_S3,2021.1.4,Win32,60.0240096,,,,,,,,,
,,,,,,,,,,,,0,7,7,7,1,last,9,21,male,R,Donders,2021-07-14_09h34.05.063,ImageRatingTask_S3,2021.1.4,Win32,60.0240096,,,,,,,,,
,,,,,,,,,,,,,,,,,,9,21,male,R,Donders,2021-07-14_09h34.05.063,ImageRatingTask_S3,2021.1.4,Win32,60.0240096,0,24,24,54,1,DreamStudyImages_rs1000x750g/Water/Landscapes_121_h.jpg,,,
,,6,2.0106,1,0.6017,4,1.3293,1,0.8571,7,2.0135,0,0,0,0,1,main,9,21,male,R,Donders,2021-07-14_09h34.05.063,ImageRatingTask_S3,2021.1.4,Win32,60.0240096,,,,,,,,,
,,,,,,,,,,,,0,1,1,1,1,second,9,21,male,R,Donders,2021-07-14_09h34.05.063,ImageRatingTask_S3,2021.1.4,Win32,60.0240096,,,,,,,,,
,,,,,,,,,,,,0,2,2,2,1,third,9,21,male,R,Donders,2021-07-14_09h34.05.063,ImageRatingTask_S3,2021.1.4,Win32,60.0240096,,,,,,,,,
,,,,,,,,,,,,0,3,3,3,1,fourth,9,21,male,R,Donders,2021-07-14_09h34.05.063,ImageRatingTask_S3,2021.1.4,Win32,60.0240096,,,,,,,,,
,,,,,,,,,,,,0,4,4,4,1,fifth,9,21,male,R,Donders,2021-07-14_09h34.05.063,ImageRatingTask_S3,2021.1.4,Win32,60.0240096,,,,,,,,,
,,,,,,,,,,,,0,5,5,5,1,sixth,9,21,male,R,Donders,2021-07-14_09h34.05.063,ImageRatingTask_S3,2021.1.4,Win32,60.0240096,,,,,,,,,
,,,,,,,,,,,,0,6,6,6,1,seventh,9,21,male,R,Donders,2021-07-14_09h34.05.063,ImageRatingTask_S3,2021.1.4,Win32,60.0240096,,,,,,,,,
,,,,,,,,,,,,0,7,7,7,1,last,9,21,male,R,Donders,2021-07-14_09h34.05.063,ImageRatingTask_S3,2021.1.4,Win32,60.0240096,,,,,,,,,
,,,,,,,,,,,,,,,,,,9,21,male,R,Donders,2021-07-14_09h34.05.063,ImageRatingTask_S3,2021.1.4,Win32,60.0240096,0,25,25,32,1,DreamStudyImages_rs1000x750g/Vehicles/toytruck.jpg,,,
,,7,2.6725,2,1.9648,3,1.4362,1,1.9177,5,0.2433,0,0,0,0,1,main,9,21,male,R,Donders,2021-07-14_09h34.05.063,ImageRatingTask_S3,2021.1.4,Win32,60.0240096,,,,,,,,,
,,,,,,,,,,,,0,1,1,1,1,second,9,21,male,R,Donders,2021-07-14_09h34.05.063,ImageRatingTask_S3,2021.1.4,Win32,60.0240096,,,,,,,,,
,,,,,,,,,,,,0,2,2,2,1,third,9,21,male,R,Donders,2021-07-14_09h34.05.063,ImageRatingTask_S3,2021.1.4,Win32,60.0240096,,,,,,,,,
,,,,,,,,,,,,0,3,3,3,1,fourth,9,21,male,R,Donders,2021-07-14_09h34.05.063,ImageRatingTask_S3,2021.1.4,Win32,60.0240096,,,,,,,,,
,,,,,,,,,,,,0,4,4,4,1,fifth,9,21,male,R,Donders,2021-07-14_09h34.05.063,ImageRatingTask_S3,2021.1.4,Win32,60.0240096,,,,,,,,,
,,,,,,,,,,,,0,5,5,5,1,sixth,9,21,male,R,Donders,2021-07-14_09h34.05.063,ImageRatingTask_S3,2021.1.4,Win32,60.0240096,,,,,,,,,
,,,,,,,,,,,,0,6,6,6,1,seventh,9,21,male,R,Donders,2021-07-14_09h34.05.063,ImageRatingTask_S3,2021.1.4,Win32,60.0240096,,,,,,,,,
,,,,,,,,,,,,0,7,7,7,1,last,9,21,male,R,Donders,2021-07-14_09h34.05.063,ImageRatingTask_S3,2021.1.4,Win32,60.0240096,,,,,,,,,
,,,,,,,,,,,,,,,,,,9,21,male,R,Donders,2021-07-14_09h34.05.063,ImageRatingTask_S3,2021.1.4,Win32,60.0240096,0,26,26,99,1,DreamStudyImages_rs1000x750g/Food/Objects_011_h.jpg,,,
,,6,2.2562,1,1.3941,4,2.9836,1,0.6848,5,0.2961,0,0,0,0,1,main,9,21,male,R,Donders,2021-07-14_09h34.05.063,ImageRatingTask_S3,2021.1.4,Win32,60.0240096,,,,,,,,,
,,,,,,,,,,,,0,1,1,1,1,second,9,21,male,R,Donders,2021-07-14_09h34.05.063,ImageRatingTask_S3,2021.1.4,Win32,60.0240096,,,,,,,,,
,,,,,,,,,,,,0,2,2,2,1,third,9,21,male,R,Donders,2021-07-14_09h34.05.063,ImageRatingTask_S3,2021.1.4,Win32,60.0240096,,,,,,,,,
,,,,,,,,,,,,0,3,3,3,1,fourth,9,21,male,R,Donders,2021-07-14_09h34.05.063,ImageRatingTask_S3,2021.1.4,Win32,60.0240096,,,,,,,,,
,,,,,,,,,,,,0,4,4,4,1,fifth,9,21,male,R,Donders,2021-07-14_09h34.05.063,ImageRatingTask_S3,2021.1.4,Win32,60.0240096,,,,,,,,,
,,,,,,,,,,,,0,5,5,5,1,sixth,9,21,male,R,Donders,2021-07-14_09h34.05.063,ImageRatingTask_S3,2021.1.4,Win32,60.0240096,,,,,,,,,
,,,,,,,,,,,,0,6,6,6,1,seventh,9,21,male,R,Donders,2021-07-14_09h34.05.063,ImageRatingTask_S3,2021.1.4,Win32,60.0240096,,,,,,,,,
,,,,,,,,,,,,0,7,7,7,1,last,9,21,male,R,Donders,2021-07-14_09h34.05.063,ImageRatingTask_S3,2021.1.4,Win32,60.0240096,,,,,,,,,
,,,,,,,,,,,,,,,,,,9,21,male,R,Donders,2021-07-14_09h34.05.063,ImageRatingTask_S3,2021.1.4,Win32,60.0240096,0,27,27,143,1,DreamStudyImages_rs1000x750g/Food/Objects_020_h.jpg,,,
,,6,9.2782,1,0.8204,4,2.1777,1,2.318,3,0.0147,0,0,0,0,1,main,9,21,male,R,Donders,2021-07-14_09h34.05.063,ImageRatingTask_S3,2021.1.4,Win32,60.0240096,,,,,,,,,
,,,,,,,,,,,,0,1,1,1,1,second,9,21,male,R,Donders,2021-07-14_09h34.05.063,ImageRatingTask_S3,2021.1.4,Win32,60.0240096,,,,,,,,,
,,,,,,,,,,,,0,2,2,2,1,third,9,21,male,R,Donders,2021-07-14_09h34.05.063,ImageRatingTask_S3,2021.1.4,Win32,60.0240096,,,,,,,,,
,,,,,,,,,,,,0,3,3,3,1,fourth,9,21,male,R,Donders,2021-07-14_09h34.05.063,ImageRatingTask_S3,2021.1.4,Win32,60.0240096,,,,,,,,,
,,,,,,,,,,,,0,4,4,4,1,fifth,9,21,male,R,Donders,2021-07-14_09h34.05.063,ImageRatingTask_S3,2021.1.4,Win32,60.0240096,,,,,,,,,
,,,,,,,,,,,,0,5,5,5,1,sixth,9,21,male,R,Donders,2021-07-14_09h34.05.063,ImageRatingTask_S3,2021.1.4,Win32,60.0240096,,,,,,,,,
,,,,,,,,,,,,0,6,6,6,1,seventh,9,21,male,R,Donders,2021-07-14_09h34.05.063,ImageRatingTask_S3,2021.1.4,Win32,60.0240096,,,,,,,,,
,,,,,,,,,,,,0,7,7,7,1,last,9,21,male,R,Donders,2021-07-14_09h34.05.063,ImageRatingTask_S3,2021.1.4,Win32,60.0240096,,,,,,,,,
,,,,,,,,,,,,,,,,,,9,21,male,R,Donders,2021-07-14_09h34.05.063,ImageRatingTask_S3,2021.1.4,Win32,60.0240096,0,28,28,39,1,DreamStudyImages_rs1000x750g/Mammals/Animals_002_v.jpg,,,
,,2,2.439,6,1.1078,3,1.8337,1,1.2279,7,1.1903,0,0,0,0,1,main,9,21,male,R,Donders,2021-07-14_09h34.05.063,ImageRatingTask_S3,2021.1.4,Win32,60.0240096,,,,,,,,,
,,,,,,,,,,,,0,1,1,1,1,second,9,21,male,R,Donders,2021-07-14_09h34.05.063,ImageRatingTask_S3,2021.1.4,Win32,60.0240096,,,,,,,,,
,,,,,,,,,,,,0,2,2,2,1,third,9,21,male,R,Donders,2021-07-14_09h34.05.063,ImageRatingTask_S3,2021.1.4,Win32,60.0240096,,,,,,,,,
,,,,,,,,,,,,0,3,3,3,1,fourth,9,21,male,R,Donders,2021-07-14_09h34.05.063,ImageRatingTask_S3,2021.1.4,Win32,60.0240096,,,,,,,,,
,,,,,,,,,,,,0,4,4,4,1,fifth,9,21,male,R,Donders,2021-07-14_09h34.05.063,ImageRatingTask_S3,2021.1.4,Win32,60.0240096,,,,,,,,,
,,,,,,,,,,,,0,5,5,5,1,sixth,9,21,male,R,Donders,2021-07-14_09h34.05.063,ImageRatingTask_S3,2021.1.4,Win32,60.0240096,,,,,,,,,
,,,,,,,,,,,,0,6,6,6,1,seventh,9,21,male,R,Donders,2021-07-14_09h34.05.063,ImageRatingTask_S3,2021.1.4,Win32,60.0240096,,,,,,,,,
,,,,,,,,,,,,0,7,7,7,1,last,9,21,male,R,Donders,2021-07-14_09h34.05.063,ImageRatingTask_S3,2021.1.4,Win32,60.0240096,,,,,,,,,
,,,,,,,,,,,,,,,,,,9,21,male,R,Donders,2021-07-14_09h34.05.063,ImageRatingTask_S3,2021.1.4,Win32,60.0240096,0,29,29,75,1,DreamStudyImages_rs1000x750g/Vehicles/6900.jpg,,,
,,6,21.8335,1,0.7086,3,1.3847,1,1.3102,6,0.6093,0,0,0,0,1,main,9,21,male,R,Donders,2021-07-14_09h34.05.063,ImageRatingTask_S3,2021.1.4,Win32,60.0240096,,,,,,,,,
,,,,,,,,,,,,0,1,1,1,1,second,9,21,male,R,Donders,2021-07-14_09h34.05.063,ImageRatingTask_S3,2021.1.4,Win32,60.0240096,,,,,,,,,
,,,,,,,,,,,,0,2,2,2,1,third,9,21,male,R,Donders,2021-07-14_09h34.05.063,ImageRatingTask_S3,2021.1.4,Win32,60.0240096,,,,,,,,,
,,,,,,,,,,,,0,3,3,3,1,fourth,9,21,male,R,Donders,2021-07-14_09h34.05.063,ImageRatingTask_S3,2021.1.4,Win32,60.0240096,,,,,,,,,
,,,,,,,,,,,,0,4,4,4,1,fifth,9,21,male,R,Donders,2021-07-14_09h34.05.063,ImageRatingTask_S3,2021.1.4,Win32,60.0240096,,,,,,,,,
,,,,,,,,,,,,0,5,5,5,1,sixth,9,21,male,R,Donders,2021-07-14_09h34.05.063,ImageRatingTask_S3,2021.1.4,Win32,60.0240096,,,,,,,,,
,,,,,,,,,,,,0,6,6,6,1,seventh,9,21,male,R,Donders,2021-07-14_09h34.05.063,ImageRatingTask_S3,2021.1.4,Win32,60.0240096,,,,,,,,,
,,,,,,,,,,,,0,7,7,7,1,last,9,21,male,R,Donders,2021-07-14_09h34.05.063,ImageRatingTask_S3,2021.1.4,Win32,60.0240096,,,,,,,,,
,,,,,,,,,,,,,,,,,,9,21,male,R,Donders,2021-07-14_09h34.05.063,ImageRatingTask_S3,2021.1.4,Win32,60.0240096,0,30,30,14,1,DreamStudyImages_rs1000x750g/Houses/redhouse.jpg,,,
,,6,1.7128,1,1.0761,4,1.1683,1,1.4551,2,0.0288,0,0,0,0,1,main,9,21,male,R,Donders,2021-07-14_09h34.05.063,ImageRatingTask_S3,2021.1.4,Win32,60.0240096,,,,,,,,,
,,,,,,,,,,,,0,1,1,1,1,second,9,21,male,R,Donders,2021-07-14_09h34.05.063,ImageRatingTask_S3,2021.1.4,Win32,60.0240096,,,,,,,,,
,,,,,,,,,,,,0,2,2,2,1,third,9,21,male,R,Donders,2021-07-14_09h34.05.063,ImageRatingTask_S3,2021.1.4,Win32,60.0240096,,,,,,,,,
,,,,,,,,,,,,0,3,3,3,1,fourth,9,21,male,R,Donders,2021-07-14_09h34.05.063,ImageRatingTask_S3,2021.1.4,Win32,60.0240096,,,,,,,,,
,,,,,,,,,,,,0,4,4,4,1,fifth,9,21,male,R,Donders,2021-07-14_09h34.05.063,ImageRatingTask_S3,2021.1.4,Win32,60.0240096,,,,,,,,,
,,,,,,,,,,,,0,5,5,5,1,sixth,9,21,male,R,Donders,2021-07-14_09h34.05.063,ImageRatingTask_S3,2021.1.4,Win32,60.0240096,,,,,,,,,
,,,,,,,,,,,,0,6,6,6,1,seventh,9,21,male,R,Donders,2021-07-14_09h34.05.063,ImageRatingTask_S3,2021.1.4,Win32,60.0240096,,,,,,,,,
,,,,,,,,,,,,0,7,7,7,1,last,9,21,male,R,Donders,2021-07-14_09h34.05.063,ImageRatingTask_S3,2021.1.4,Win32,60.0240096,,,,,,,,,
,,,,,,,,,,,,,,,,,,9,21,male,R,Donders,2021-07-14_09h34.05.063,ImageRatingTask_S3,2021.1.4,Win32,60.0240096,0,31,31,129,1,DreamStudyImages_rs1000x750g/Children/People_045_h.jpg,,,
,,1,3.0868,8,0.6208,2,1.2871,1,0.8113,2,0.1473,0,0,0,0,1,main,9,21,male,R,Donders,2021-07-14_09h34.05.063,ImageRatingTask_S3,2021.1.4,Win32,60.0240096,,,,,,,,,
,,,,,,,,,,,,0,1,1,1,1,second,9,21,male,R,Donders,2021-07-14_09h34.05.063,ImageRatingTask_S3,2021.1.4,Win32,60.0240096,,,,,,,,,
,,,,,,,,,,,,0,2,2,2,1,third,9,21,male,R,Donders,2021-07-14_09h34.05.063,ImageRatingTask_S3,2021.1.4,Win32,60.0240096,,,,,,,,,
,,,,,,,,,,,,0,3,3,3,1,fourth,9,21,male,R,Donders,2021-07-14_09h34.05.063,ImageRatingTask_S3,2021.1.4,Win32,60.0240096,,,,,,,,,
,,,,,,,,,,,,0,4,4,4,1,fifth,9,21,male,R,Donders,2021-07-14_09h34.05.063,ImageRatingTask_S3,2021.1.4,Win32,60.0240096,,,,,,,,,
,,,,,,,,,,,,0,5,5,5,1,sixth,9,21,male,R,Donders,2021-07-14_09h34.05.063,ImageRatingTask_S3,2021.1.4,Win32,60.0240096,,,,,,,,,
,,,,,,,,,,,,0,6,6,6,1,seventh,9,21,male,R,Donders,2021-07-14_09h34.05.063,ImageRatingTask_S3,2021.1.4,Win32,60.0240096,,,,,,,,,
,,,,,,,,,,,,0,7,7,7,1,last,9,21,male,R,Donders,2021-07-14_09h34.05.063,ImageRatingTask_S3,2021.1.4,Win32,60.0240096,,,,,,,,,
,,,,,,,,,,,,,,,,,,9,21,male,R,Donders,2021-07-14_09h34.05.063,ImageRatingTask_S3,2021.1.4,Win32,60.0240096,0,32,32,101,1,DreamStudyImages_rs1000x750g/Children/Miserable pose 3.jpg,,,
,,1,1.7916,8,0.5575,6,2.2186,2,2.9792,7,0.6454,0,0,0,0,1,main,9,21,male,R,Donders,2021-07-14_09h34.05.063,ImageRatingTask_S3,2021.1.4,Win32,60.0240096,,,,,,,,,
,,,,,,,,,,8,0.2197,0,1,1,1,1,second,9,21,male,R,Donders,2021-07-14_09h34.05.063,ImageRatingTask_S3,2021.1.4,Win32,60.0240096,,,,,,,,,
,,,,,,,,,,,,0,2,2,2,1,third,9,21,male,R,Donders,2021-07-14_09h34.05.063,ImageRatingTask_S3,2021.1.4,Win32,60.0240096,,,,,,,,,
,,,,,,,,,,,,0,3,3,3,1,fourth,9,21,male,R,Donders,2021-07-14_09h34.05.063,ImageRatingTask_S3,2021.1.4,Win32,60.0240096,,,,,,,,,
,,,,,,,,,,,,0,4,4,4,1,fifth,9,21,male,R,Donders,2021-07-14_09h34.05.063,ImageRatingTask_S3,2021.1.4,Win32,60.0240096,,,,,,,,,
,,,,,,,,,,,,0,5,5,5,1,sixth,9,21,male,R,Donders,2021-07-14_09h34.05.063,ImageRatingTask_S3,2021.1.4,Win32,60.0240096,,,,,,,,,
,,,,,,,,,,,,0,6,6,6,1,seventh,9,21,male,R,Donders,2021-07-14_09h34.05.063,ImageRatingTask_S3,2021.1.4,Win32,60.0240096,,,,,,,,,
,,,,,,,,,,,,0,7,7,7,1,last,9,21,male,R,Donders,2021-07-14_09h34.05.063,ImageRatingTask_S3,2021.1.4,Win32,60.0240096,,,,,,,,,
,,,,,,,,,,,,,,,,,,9,21,male,R,Donders,2021-07-14_09h34.05.063,ImageRatingTask_S3,2021.1.4,Win32,60.0240096,0,33,33,50,1,DreamStudyImages_rs1000x750g/Water/Weapon 1.jpg,,,
,,3,2.9268,1,0.606,7,1.7014,1,2.2705,3,0.8961,0,0,0,0,1,main,9,21,male,R,Donders,2021-07-14_09h34.05.063,ImageRatingTask_S3,2021.1.4,Win32,60.0240096,,,,,,,,,
,,,,,,,,,,,,0,1,1,1,1,second,9,21,male,R,Donders,2021-07-14_09h34.05.063,ImageRatingTask_S3,2021.1.4,Win32,60.0240096,,,,,,,,,
,,,,,,,,,,,,0,2,2,2,1,third,9,21,male,R,Donders,2021-07-14_09h34.05.063,ImageRatingTask_S3,2021.1.4,Win32,60.0240096,,,,,,,,,
,,,,,,,,,,,,0,3,3,3,1,fourth,9,21,male,R,Donders,2021-07-14_09h34.05.063,ImageRatingTask_S3,2021.1.4,Win32,60.0240096,,,,,,,,,
,,,,,,,,,,,,0,4,4,4,1,fifth,9,21,male,R,Donders,2021-07-14_09h34.05.063,ImageRatingTask_S3,2021.1.4,Win32,60.0240096,,,,,,,,,
,,,,,,,,,,,,0,5,5,5,1,sixth,9,21,male,R,Donders,2021-07-14_09h34.05.063,ImageRatingTask_S3,2021.1.4,Win32,60.0240096,,,,,,,,,
,,,,,,,,,,,,0,6,6,6,1,seventh,9,21,male,R,Donders,2021-07-14_09h34.05.063,ImageRatingTask_S3,2021.1.4,Win32,60.0240096,,,,,,,,,
,,,,,,,,,,,,0,7,7,7,1,last,9,21,male,R,Donders,2021-07-14_09h34.05.063,ImageRatingTask_S3,2021.1.4,Win32,60.0240096,,,,,,,,,
,,,,,,,,,,,,,,,,,,9,21,male,R,Donders,2021-07-14_09h34.05.063,ImageRatingTask_S3,2021.1.4,Win32,60.0240096,0,34,34,74,1,DreamStudyImages_rs1000x750g/Mammals/1350.jpg,,,
,,8,3.447,1,0.7463,5,1.6298,1,1.0836,5,0.4561,0,0,0,0,1,main,9,21,male,R,Donders,2021-07-14_09h34.05.063,ImageRatingTask_S3,2021.1.4,Win32,60.0240096,,,,,,,,,
,,,,,,,,,,,,0,1,1,1,1,second,9,21,male,R,Donders,2021-07-14_09h34.05.063,ImageRatingTask_S3,2021.1.4,Win32,60.0240096,,,,,,,,,
,,,,,,,,,,,,0,2,2,2,1,third,9,21,male,R,Donders,2021-07-14_09h34.05.063,ImageRatingTask_S3,2021.1.4,Win32,60.0240096,,,,,,,,,
,,,,,,,,,,,,0,3,3,3,1,fourth,9,21,male,R,Donders,2021-07-14_09h34.05.063,ImageRatingTask_S3,2021.1.4,Win32,60.0240096,,,,,,,,,
,,,,,,,,,,,,0,4,4,4,1,fifth,9,21,male,R,Donders,2021-07-14_09h34.05.063,ImageRatingTask_S3,2021.1.4,Win32,60.0240096,,,,,,,,,
,,,,,,,,,,,,0,5,5,5,1,sixth,9,21,male,R,Donders,2021-07-14_09h34.05.063,ImageRatingTask_S3,2021.1.4,Win32,60.0240096,,,,,,,,,
,,,,,,,,,,,,0,6,6,6,1,seventh,9,21,male,R,Donders,2021-07-14_09h34.05.063,ImageRatingTask_S3,2021.1.4,Win32,60.0240096,,,,,,,,,
,,,,,,,,,,,,0,7,7,7,1,last,9,21,male,R,Donders,2021-07-14_09h34.05.063,ImageRatingTask_S3,2021.1.4,Win32,60.0240096,,,,,,,,,
,,,,,,,,,,,,,,,,,,9,21,male,R,Donders,2021-07-14_09h34.05.063,ImageRatingTask_S3,2021.1.4,Win32,60.0240096,0,35,35,133,1,DreamStudyImages_rs1000x750g/Food/Dessert 6.jpg,,,
,,4,2.3951,3,1.4004,4,1.8787,2,0.956,3,4.5266,0,0,0,0,1,main,9,21,male,R,Donders,2021-07-14_09h34.05.063,ImageRatingTask_S3,2021.1.4,Win32,60.0240096,,,,,,,,,
,,,,,,,,,,1,0.1548,0,1,1,1,1,second,9,21,male,R,Donders,2021-07-14_09h34.05.063,ImageRatingTask_S3,2021.1.4,Win32,60.0240096,,,,,,,,,
,,,,,,,,,,,,0,2,2,2,1,third,9,21,male,R,Donders,2021-07-14_09h34.05.063,ImageRatingTask_S3,2021.1.4,Win32,60.0240096,,,,,,,,,
,,,,,,,,,,,,0,3,3,3,1,fourth,9,21,male,R,Donders,2021-07-14_09h34.05.063,ImageRatingTask_S3,2021.1.4,Win32,60.0240096,,,,,,,,,
,,,,,,,,,,,,0,4,4,4,1,fifth,9,21,male,R,Donders,2021-07-14_09h34.05.063,ImageRatingTask_S3,2021.1.4,Win32,60.0240096,,,,,,,,,
,,,,,,,,,,,,0,5,5,5,1,sixth,9,21,male,R,Donders,2021-07-14_09h34.05.063,ImageRatingTask_S3,2021.1.4,Win32,60.0240096,,,,,,,,,
,,,,,,,,,,,,0,6,6,6,1,seventh,9,21,male,R,Donders,2021-07-14_09h34.05.063,ImageRatingTask_S3,2021.1.4,Win32,60.0240096,,,,,,,,,
,,,,,,,,,,,,0,7,7,7,1,last,9,21,male,R,Donders,2021-07-14_09h34.05.063,ImageRatingTask_S3,2021.1.4,Win32,60.0240096,,,,,,,,,
,,,,,,,,,,,,,,,,,,9,21,male,R,Donders,2021-07-14_09h34.05.063,ImageRatingTask_S3,2021.1.4,Win32,60.0240096,0,36,36,127,1,DreamStudyImages_rs1000x750g/Mammals/Animals_211_h.jpg,,,
,,6,4.2318,1,1.2275,6,2.4843,1,2.8438,6,0.988,0,0,0,0,1,main,9,21,male,R,Donders,2021-07-14_09h34.05.063,ImageRatingTask_S3,2021.1.4,Win32,60.0240096,,,,,,,,,
,,,,,,,,,,,,0,1,1,1,1,second,9,21,male,R,Donders,2021-07-14_09h34.05.063,ImageRatingTask_S3,2021.1.4,Win32,60.0240096,,,,,,,,,
,,,,,,,,,,,,0,2,2,2,1,third,9,21,male,R,Donders,2021-07-14_09h34.05.063,ImageRatingTask_S3,2021.1.4,Win32,60.0240096,,,,,,,,,
,,,,,,,,,,,,0,3,3,3,1,fourth,9,21,male,R,Donders,2021-07-14_09h34.05.063,ImageRatingTask_S3,2021.1.4,Win32,60.0240096,,,,,,,,,
,,,,,,,,,,,,0,4,4,4,1,fifth,9,21,male,R,Donders,2021-07-14_09h34.05.063,ImageRatingTask_S3,2021.1.4,Win32,60.0240096,,,,,,,,,
,,,,,,,,,,,,0,5,5,5,1,sixth,9,21,male,R,Donders,2021-07-14_09h34.05.063,ImageRatingTask_S3,2021.1.4,Win32,60.0240096,,,,,,,,,
,,,,,,,,,,,,0,6,6,6,1,seventh,9,21,male,R,Donders,2021-07-14_09h34.05.063,ImageRatingTask_S3,2021.1.4,Win32,60.0240096,,,,,,,,,
,,,,,,,,,,,,0,7,7,7,1,last,9,21,male,R,Donders,2021-07-14_09h34.05.063,ImageRatingTask_S3,2021.1.4,Win32,60.0240096,,,,,,,,,
,,,,,,,,,,,,,,,,,,9,21,male,R,Donders,2021-07-14_09h34.05.063,ImageRatingTask_S3,2021.1.4,Win32,60.0240096,0,37,37,6,1,DreamStudyImages_rs1000x750g/Houses/Landscapes_117_h.jpg,,,
,,6,3.7446,3,1.8929,8,2.5962,1,1.2346,8,1.1576,0,0,0,0,1,main,9,21,male,R,Donders,2021-07-14_09h34.05.063,ImageRatingTask_S3,2021.1.4,Win32,60.0240096,,,,,,,,,
,,,,,,,,,,,,0,1,1,1,1,second,9,21,male,R,Donders,2021-07-14_09h34.05.063,ImageRatingTask_S3,2021.1.4,Win32,60.0240096,,,,,,,,,
,,,,,,,,,,,,0,2,2,2,1,third,9,21,male,R,Donders,2021-07-14_09h34.05.063,ImageRatingTask_S3,2021.1.4,Win32,60.0240096,,,,,,,,,
,,,,,,,,,,,,0,3,3,3,1,fourth,9,21,male,R,Donders,2021-07-14_09h34.05.063,ImageRatingTask_S3,2021.1.4,Win32,60.0240096,,,,,,,,,
,,,,,,,,,,,,0,4,4,4,1,fifth,9,21,male,R,Donders,2021-07-14_09h34.05.063,ImageRatingTask_S3,2021.1.4,Win32,60.0240096,,,,,,,,,
,,,,,,,,,,,,0,5,5,5,1,sixth,9,21,male,R,Donders,2021-07-14_09h34.05.063,ImageRatingTask_S3,2021.1.4,Win32,60.0240096,,,,,,,,,
,,,,,,,,,,,,0,6,6,6,1,seventh,9,21,male,R,Donders,2021-07-14_09h34.05.063,ImageRatingTask_S3,2021.1.4,Win32,60.0240096,,,,,,,,,
,,,,,,,,,,,,0,7,7,7,1,last,9,21,male,R,Donders,2021-07-14_09h34.05.063,ImageRatingTask_S3,2021.1.4,Win32,60.0240096,,,,,,,,,
,,,,,,,,,,,,,,,,,,9,21,male,R,Donders,2021-07-14_09h34.05.063,ImageRatingTask_S3,2021.1.4,Win32,60.0240096,0,38,38,155,1,DreamStudyImages_rs1000x750g/Water/NDPS123_mineralwaterformation.jpg,,,
,,3,2.2226,6,1.0152,3,2.0293,1,1.0858,2,0.9983,0,0,0,0,1,main,9,21,male,R,Donders,2021-07-14_09h34.05.063,ImageRatingTask_S3,2021.1.4,Win32,60.0240096,,,,,,,,,
,,,,,,,,,,,,0,1,1,1,1,second,9,21,male,R,Donders,2021-07-14_09h34.05.063,ImageRatingTask_S3,2021.1.4,Win32,60.0240096,,,,,,,,,
,,,,,,,,,,,,0,2,2,2,1,third,9,21,male,R,Donders,2021-07-14_09h34.05.063,ImageRatingTask_S3,2021.1.4,Win32,60.0240096,,,,,,,,,
,,,,,,,,,,,,0,3,3,3,1,fourth,9,21,male,R,Donders,2021-07-14_09h34.05.063,ImageRatingTask_S3,2021.1.4,Win32,60.0240096,,,,,,,,,
,,,,,,,,,,,,0,4,4,4,1,fifth,9,21,male,R,Donders,2021-07-14_09h34.05.063,ImageRatingTask_S3,2021.1.4,Win32,60.0240096,,,,,,,,,
,,,,,,,,,,,,0,5,5,5,1,sixth,9,21,male,R,Donders,2021-07-14_09h34.05.063,ImageRatingTask_S3,2021.1.4,Win32,60.0240096,,,,,,,,,
,,,,,,,,,,,,0,6,6,6,1,seventh,9,21,male,R,Donders,2021-07-14_09h34.05.063,ImageRatingTask_S3,2021.1.4,Win32,60.0240096,,,,,,,,,
,,,,,,,,,,,,0,7,7,7,1,last,9,21,male,R,Donders,2021-07-14_09h34.05.063,ImageRatingTask_S3,2021.1.4,Win32,60.0240096,,,,,,,,,
,,,,,,,,,,,,,,,,,,9,21,male,R,Donders,2021-07-14_09h34.05.063,ImageRatingTask_S3,2021.1.4,Win32,60.0240096,0,39,39,3,1,DreamStudyImages_rs1000x750g/Children/Faces_005_h.jpg,,,
,,6,4.1074,1,1.4953,4,2.4958,1,2.237,6,0.8691,0,0,0,0,1,main,9,21,male,R,Donders,2021-07-14_09h34.05.063,ImageRatingTask_S3,2021.1.4,Win32,60.0240096,,,,,,,,,
,,,,,,,,,,,,0,1,1,1,1,second,9,21,male,R,Donders,2021-07-14_09h34.05.063,ImageRatingTask_S3,2021.1.4,Win32,60.0240096,,,,,,,,,
,,,,,,,,,,,,0,2,2,2,1,third,9,21,male,R,Donders,2021-07-14_09h34.05.063,ImageRatingTask_S3,2021.1.4,Win32,60.0240096,,,,,,,,,
,,,,,,,,,,,,0,3,3,3,1,fourth,9,21,male,R,Donders,2021-07-14_09h34.05.063,ImageRatingTask_S3,2021.1.4,Win32,60.0240096,,,,,,,,,
,,,,,,,,,,,,0,4,4,4,1,fifth,9,21,male,R,Donders,2021-07-14_09h34.05.063,ImageRatingTask_S3,2021.1.4,Win32,60.0240096,,,,,,,,,
,,,,,,,,,,,,0,5,5,5,1,sixth,9,21,male,R,Donders,2021-07-14_09h34.05.063,ImageRatingTask_S3,2021.1.4,Win32,60.0240096,,,,,,,,,
,,,,,,,,,,,,0,6,6,6,1,seventh,9,21,male,R,Donders,2021-07-14_09h34.05.063,ImageRatingTask_S3,2021.1.4,Win32,60.0240096,,,,,,,,,
,,,,,,,,,,,,0,7,7,7,1,last,9,21,male,R,Donders,2021-07-14_09h34.05.063,ImageRatingTask_S3,2021.1.4,Win32,60.0240096,,,,,,,,,
,,,,,,,,,,,,,,,,,,9,21,male,R,Donders,2021-07-14_09h34.05.063,ImageRatingTask_S3,2021.1.4,Win32,60.0240096,0,40,40,150,1,DreamStudyImages_rs1000x750g/Houses/Landscapes_049_h.jpg,,,
,,6,1.8489,1,0.6515,3,1.7511,1,0.7132,2,0.1812,0,0,0,0,1,main,9,21,male,R,Donders,2021-07-14_09h34.05.063,ImageRatingTask_S3,2021.1.4,Win32,60.0240096,,,,,,,,,
,,,,,,,,,,,,0,1,1,1,1,second,9,21,male,R,Donders,2021-07-14_09h34.05.063,ImageRatingTask_S3,2021.1.4,Win32,60.0240096,,,,,,,,,
,,,,,,,,,,,,0,2,2,2,1,third,9,21,male,R,Donders,2021-07-14_09h34.05.063,ImageRatingTask_S3,2021.1.4,Win32,60.0240096,,,,,,,,,
,,,,,,,,,,,,0,3,3,3,1,fourth,9,21,male,R,Donders,2021-07-14_09h34.05.063,ImageRatingTask_S3,2021.1.4,Win32,60.0240096,,,,,,,,,
,,,,,,,,,,,,0,4,4,4,1,fifth,9,21,male,R,Donders,2021-07-14_09h34.05.063,ImageRatingTask_S3,2021.1.4,Win32,60.0240096,,,,,,,,,
,,,,,,,,,,,,0,5,5,5,1,sixth,9,21,male,R,Donders,2021-07-14_09h34.05.063,ImageRatingTask_S3,2021.1.4,Win32,60.0240096,,,,,,,,,
,,,,,,,,,,,,0,6,6,6,1,seventh,9,21,male,R,Donders,2021-07-14_09h34.05.063,ImageRatingTask_S3,2021.1.4,Win32,60.0240096,,,,,,,,,
,,,,,,,,,,,,0,7,7,7,1,last,9,21,male,R,Donders,2021-07-14_09h34.05.063,ImageRatingTask_S3,2021.1.4,Win32,60.0240096,,,,,,,,,
,,,,,,,,,,,,,,,,,,9,21,male,R,Donders,2021-07-14_09h34.05.063,ImageRatingTask_S3,2021.1.4,Win32,60.0240096,0,41,41,122,1,DreamStudyImages_rs1000x750g/Children/IAPS2442_child3.jpg,,,
,,6,2.4915,1,0.6485,7,2.2273,1,0.7139,6,0.7047,0,0,0,0,1,main,9,21,male,R,Donders,2021-07-14_09h34.05.063,ImageRatingTask_S3,2021.1.4,Win32,60.0240096,,,,,,,,,
,,,,,,,,,,,,0,1,1,1,1,second,9,21,male,R,Donders,2021-07-14_09h34.05.063,ImageRatingTask_S3,2021.1.4,Win32,60.0240096,,,,,,,,,
,,,,,,,,,,,,0,2,2,2,1,third,9,21,male,R,Donders,2021-07-14_09h34.05.063,ImageRatingTask_S3,2021.1.4,Win32,60.0240096,,,,,,,,,
,,,,,,,,,,,,0,3,3,3,1,fourth,9,21,male,R,Donders,2021-07-14_09h34.05.063,ImageRatingTask_S3,2021.1.4,Win32,60.0240096,,,,,,,,,
,,,,,,,,,,,,0,4,4,4,1,fifth,9,21,male,R,Donders,2021-07-14_09h34.05.063,ImageRatingTask_S3,2021.1.4,Win32,60.0240096,,,,,,,,,
,,,,,,,,,,,,0,5,5,5,1,sixth,9,21,male,R,Donders,2021-07-14_09h34.05.063,ImageRatingTask_S3,2021.1.4,Win32,60.0240096,,,,,,,,,
,,,,,,,,,,,,0,6,6,6,1,seventh,9,21,male,R,Donders,2021-07-14_09h34.05.063,ImageRatingTask_S3,2021.1.4,Win32,60.0240096,,,,,,,,,
,,,,,,,,,,,,0,7,7,7,1,last,9,21,male,R,Donders,2021-07-14_09h34.05.063,ImageRatingTask_S3,2021.1.4,Win32,60.0240096,,,,,,,,,
,,,,,,,,,,,,,,,,,,9,21,male,R,Donders,2021-07-14_09h34.05.063,ImageRatingTask_S3,2021.1.4,Win32,60.0240096,0,42,42,92,1,DreamStudyImages_rs1000x750g/Houses/Landscapes_035_v.jpg,,,
,,8,1.6723,1,0.6938,4,1.7517,1,1.4054,2,0.0637,0,0,0,0,1,main,9,21,male,R,Donders,2021-07-14_09h34.05.063,ImageRatingTask_S3,2021.1.4,Win32,60.0240096,,,,,,,,,
,,,,,,,,,,,,0,1,1,1,1,second,9,21,male,R,Donders,2021-07-14_09h34.05.063,ImageRatingTask_S3,2021.1.4,Win32,60.0240096,,,,,,,,,
,,,,,,,,,,,,0,2,2,2,1,third,9,21,male,R,Donders,2021-07-14_09h34.05.063,ImageRatingTask_S3,2021.1.4,Win32,60.0240096,,,,,,,,,
,,,,,,,,,,,,0,3,3,3,1,fourth,9,21,male,R,Donders,2021-07-14_09h34.05.063,ImageRatingTask_S3,2021.1.4,Win32,60.0240096,,,,,,,,,
,,,,,,,,,,,,0,4,4,4,1,fifth,9,21,male,R,Donders,2021-07-14_09h34.05.063,ImageRatingTask_S3,2021.1.4,Win32,60.0240096,,,,,,,,,
,,,,,,,,,,,,0,5,5,5,1,sixth,9,21,male,R,Donders,2021-07-14_09h34.05.063,ImageRatingTask_S3,2021.1.4,Win32,60.0240096,,,,,,,,,
,,,,,,,,,,,,0,6,6,6,1,seventh,9,21,male,R,Donders,2021-07-14_09h34.05.063,ImageRatingTask_S3,2021.1.4,Win32,60.0240096,,,,,,,,,
,,,,,,,,,,,,0,7,7,7,1,last,9,21,male,R,Donders,2021-07-14_09h34.05.063,ImageRatingTask_S3,2021.1.4,Win32,60.0240096,,,,,,,,,
,,,,,,,,,,,,,,,,,,9,21,male,R,Donders,2021-07-14_09h34.05.063,ImageRatingTask_S3,2021.1.4,Win32,60.0240096,0,43,43,47,1,DreamStudyImages_rs1000x750g/Children/Faces_136_v.jpg,,,
,,6,2.875,1,0.5598,4,0.776,1,0.551,5,0.942,0,0,0,0,1,main,9,21,male,R,Donders,2021-07-14_09h34.05.063,ImageRatingTask_S3,2021.1.4,Win32,60.0240096,,,,,,,,,
,,,,,,,,,,,,0,1,1,1,1,second,9,21,male,R,Donders,2021-07-14_09h34.05.063,ImageRatingTask_S3,2021.1.4,Win32,60.0240096,,,,,,,,,
,,,,,,,,,,,,0,2,2,2,1,third,9,21,male,R,Donders,2021-07-14_09h34.05.063,ImageRatingTask_S3,2021.1.4,Win32,60.0240096,,,,,,,,,
,,,,,,,,,,,,0,3,3,3,1,fourth,9,21,male,R,Donders,2021-07-14_09h34.05.063,ImageRatingTask_S3,2021.1.4,Win32,60.0240096,,,,,,,,,
,,,,,,,,,,,,0,4,4,4,1,fifth,9,21,male,R,Donders,2021-07-14_09h34.05.063,ImageRatingTask_S3,2021.1.4,Win32,60.0240096,,,,,,,,,
,,,,,,,,,,,,0,5,5,5,1,sixth,9,21,male,R,Donders,2021-07-14_09h34.05.063,ImageRatingTask_S3,2021.1.4,Win32,60.0240096,,,,,,,,,
,,,,,,,,,,,,0,6,6,6,1,seventh,9,21,male,R,Donders,2021-07-14_09h34.05.063,ImageRatingTask_S3,2021.1.4,Win32,60.0240096,,,,,,,,,
,,,,,,,,,,,,0,7,7,7,1,last,9,21,male,R,Donders,2021-07-14_09h34.05.063,ImageRatingTask_S3,2021.1.4,Win32,60.0240096,,,,,,,,,
,,,,,,,,,,,,,,,,,,9,21,male,R,Donders,2021-07-14_09h34.05.063,ImageRatingTask_S3,2021.1.4,Win32,60.0240096,0,44,44,40,1,DreamStudyImages_rs1000x750g/Food/IAPS7487_pastela.jpg,,,
,,7,1.6615,4,1.492,3,1.6099,1,0.7096,5,0.7172,0,0,0,0,1,main,9,21,male,R,Donders,2021-07-14_09h34.05.063,ImageRatingTask_S3,2021.1.4,Win32,60.0240096,,,,,,,,,
,,,,,,,,,,,,0,1,1,1,1,second,9,21,male,R,Donders,2021-07-14_09h34.05.063,ImageRatingTask_S3,2021.1.4,Win32,60.0240096,,,,,,,,,
,,,,,,,,,,,,0,2,2,2,1,third,9,21,male,R,Donders,2021-07-14_09h34.05.063,ImageRatingTask_S3,2021.1.4,Win32,60.0240096,,,,,,,,,
,,,,,,,,,,,,0,3,3,3,1,fourth,9,21,male,R,Donders,2021-07-14_09h34.05.063,ImageRatingTask_S3,2021.1.4,Win32,60.0240096,,,,,,,,,
,,,,,,,,,,,,0,4,4,4,1,fifth,9,21,male,R,Donders,2021-07-14_09h34.05.063,ImageRatingTask_S3,2021.1.4,Win32,60.0240096,,,,,,,,,
,,,,,,,,,,,,0,5,5,5,1,sixth,9,21,male,R,Donders,2021-07-14_09h34.05.063,ImageRatingTask_S3,2021.1.4,Win32,60.0240096,,,,,,,,,
,,,,,,,,,,,,0,6,6,6,1,seventh,9,21,male,R,Donders,2021-07-14_09h34.05.063,ImageRatingTask_S3,2021.1.4,Win32,60.0240096,,,,,,,,,
,,,,,,,,,,,,0,7,7,7,1,last,9,21,male,R,Donders,2021-07-14_09h34.05.063,ImageRatingTask_S3,2021.1.4,Win32,60.0240096,,,,,,,,,
,,,,,,,,,,,,,,,,,,9,21,male,R,Donders,2021-07-14_09h34.05.063,ImageRatingTask_S3,2021.1.4,Win32,60.0240096,0,45,45,1,1,DreamStudyImages_rs1000x750g/Food/IAPS7450_burger.jpg,,,
,,6,1.7283,1,1.0903,4,1.651,1,0.7222,6,1.4387,0,0,0,0,1,main,9,21,male,R,Donders,2021-07-14_09h34.05.063,ImageRatingTask_S3,2021.1.4,Win32,60.0240096,,,,,,,,,
,,,,,,,,,,,,0,1,1,1,1,second,9,21,male,R,Donders,2021-07-14_09h34.05.063,ImageRatingTask_S3,2021.1.4,Win32,60.0240096,,,,,,,,,
,,,,,,,,,,,,0,2,2,2,1,third,9,21,male,R,Donders,2021-07-14_09h34.05.063,ImageRatingTask_S3,2021.1.4,Win32,60.0240096,,,,,,,,,
,,,,,,,,,,,,0,3,3,3,1,fourth,9,21,male,R,Donders,2021-07-14_09h34.05.063,ImageRatingTask_S3,2021.1.4,Win32,60.0240096,,,,,,,,,
,,,,,,,,,,,,0,4,4,4,1,fifth,9,21,male,R,Donders,2021-07-14_09h34.05.063,ImageRatingTask_S3,2021.1.4,Win32,60.0240096,,,,,,,,,
,,,,,,,,,,,,0,5,5,5,1,sixth,9,21,male,R,Donders,2021-07-14_09h34.05.063,ImageRatingTask_S3,2021.1.4,Win32,60.0240096,,,,,,,,,
,,,,,,,,,,,,0,6,6,6,1,seventh,9,21,male,R,Donders,2021-07-14_09h34.05.063,ImageRatingTask_S3,2021.1.4,Win32,60.0240096,,,,,,,,,
,,,,,,,,,,,,0,7,7,7,1,last,9,21,male,R,Donders,2021-07-14_09h34.05.063,ImageRatingTask_S3,2021.1.4,Win32,60.0240096,,,,,,,,,
,,,,,,,,,,,,,,,,,,9,21,male,R,Donders,2021-07-14_09h34.05.063,ImageRatingTask_S3,2021.1.4,Win32,60.0240096,0,46,46,20,1,DreamStudyImages_rs1000x750g/Houses/Landscapes_033_h_CROPPED.jpg,,,
,,2,2.2415,6,1.624,7,1.8056,2,4,4,1.2373,0,0,0,0,1,main,9,21,male,R,Donders,2021-07-14_09h34.05.063,ImageRatingTask_S3,2021.1.4,Win32,60.0240096,,,,,,,,,
,,,,,,,,,,5,1.2171,0,1,1,1,1,second,9,21,male,R,Donders,2021-07-14_09h34.05.063,ImageRatingTask_S3,2021.1.4,Win32,60.0240096,,,,,,,,,
,,,,,,,,,,,,0,2,2,2,1,third,9,21,male,R,Donders,2021-07-14_09h34.05.063,ImageRatingTask_S3,2021.1.4,Win32,60.0240096,,,,,,,,,
,,,,,,,,,,,,0,3,3,3,1,fourth,9,21,male,R,Donders,2021-07-14_09h34.05.063,ImageRatingTask_S3,2021.1.4,Win32,60.0240096,,,,,,,,,
,,,,,,,,,,,,0,4,4,4,1,fifth,9,21,male,R,Donders,2021-07-14_09h34.05.063,ImageRatingTask_S3,2021.1.4,Win32,60.0240096,,,,,,,,,
,,,,,,,,,,,,0,5,5,5,1,sixth,9,21,male,R,Donders,2021-07-14_09h34.05.063,ImageRatingTask_S3,2021.1.4,Win32,60.0240096,,,,,,,,,
,,,,,,,,,,,,0,6,6,6,1,seventh,9,21,male,R,Donders,2021-07-14_09h34.05.063,ImageRatingTask_S3,2021.1.4,Win32,60.0240096,,,,,,,,,
,,,,,,,,,,,,0,7,7,7,1,last,9,21,male,R,Donders,2021-07-14_09h34.05.063,ImageRatingTask_S3,2021.1.4,Win32,60.0240096,,,,,,,,,
,,,,,,,,,,,,,,,,,,9,21,male,R,Donders,2021-07-14_09h34.05.063,ImageRatingTask_S3,2021.1.4,Win32,60.0240096,0,47,47,12,1,DreamStudyImages_rs1000x750g/Food/food_neg.jpg,,,
,,7,1.7122,1,0.8093,4,3.1119,1,1.1231,5,0.5889,0,0,0,0,1,main,9,21,male,R,Donders,2021-07-14_09h34.05.063,ImageRatingTask_S3,2021.1.4,Win32,60.0240096,,,,,,,,,
,,,,,,,,,,,,0,1,1,1,1,second,9,21,male,R,Donders,2021-07-14_09h34.05.063,ImageRatingTask_S3,2021.1.4,Win32,60.0240096,,,,,,,,,
,,,,,,,,,,,,0,2,2,2,1,third,9,21,male,R,Donders,2021-07-14_09h34.05.063,ImageRatingTask_S3,2021.1.4,Win32,60.0240096,,,,,,,,,
,,,,,,,,,,,,0,3,3,3,1,fourth,9,21,male,R,Donders,2021-07-14_09h34.05.063,ImageRatingTask_S3,2021.1.4,Win32,60.0240096,,,,,,,,,
,,,,,,,,,,,,0,4,4,4,1,fifth,9,21,male,R,Donders,2021-07-14_09h34.05.063,ImageRatingTask_S3,2021.1.4,Win32,60.0240096,,,,,,,,,
,,,,,,,,,,,,0,5,5,5,1,sixth,9,21,male,R,Donders,2021-07-14_09h34.05.063,ImageRatingTask_S3,2021.1.4,Win32,60.0240096,,,,,,,,,
,,,,,,,,,,,,0,6,6,6,1,seventh,9,21,male,R,Donders,2021-07-14_09h34.05.063,ImageRatingTask_S3,2021.1.4,Win32,60.0240096,,,,,,,,,
,,,,,,,,,,,,0,7,7,7,1,last,9,21,male,R,Donders,2021-07-14_09h34.05.063,ImageRatingTask_S3,2021.1.4,Win32,60.0240096,,,,,,,,,
,,,,,,,,,,,,,,,,,,9,21,male,R,Donders,2021-07-14_09h34.05.063,ImageRatingTask_S3,2021.1.4,Win32,60.0240096,0,48,48,156,1,DreamStudyImages_rs1000x750g/Food/IAPS7460_fries.jpg,,,
,,6,2.1635,1,1.378,7,4.415,8,0.0009,5,3.78,0,0,0,0,1,main,9,21,male,R,Donders,2021-07-14_09h34.05.063,ImageRatingTask_S3,2021.1.4,Win32,60.0240096,,,,,,,,,
,,,,,,,,,,5,0.3856,0,1,1,1,1,second,9,21,male,R,Donders,2021-07-14_09h34.05.063,ImageRatingTask_S3,2021.1.4,Win32,60.0240096,,,,,,,,,
,,,,,,,,,,5,0.1344,0,2,2,2,1,third,9,21,male,R,Donders,2021-07-14_09h34.05.063,ImageRatingTask_S3,2021.1.4,Win32,60.0240096,,,,,,,,,
,,,,,,,,,,5,0.1058,0,3,3,3,1,fourth,9,21,male,R,Donders,2021-07-14_09h34.05.063,ImageRatingTask_S3,2021.1.4,Win32,60.0240096,,,,,,,,,
,,,,,,,,,,5,0.102,0,4,4,4,1,fifth,9,21,male,R,Donders,2021-07-14_09h34.05.063,ImageRatingTask_S3,2021.1.4,Win32,60.0240096,,,,,,,,,
,,,,,,,,,,5,0.1363,0,5,5,5,1,sixth,9,21,male,R,Donders,2021-07-14_09h34.05.063,ImageRatingTask_S3,2021.1.4,Win32,60.0240096,,,,,,,,,
,,,,,,,,,,5,0.1154,0,6,6,6,1,seventh,9,21,male,R,Donders,2021-07-14_09h34.05.063,ImageRatingTask_S3,2021.1.4,Win32,60.0240096,,,,,,,,,
,,,,,,,,,,5,0.1514,0,7,7,7,1,last,9,21,male,R,Donders,2021-07-14_09h34.05.063,ImageRatingTask_S3,2021.1.4,Win32,60.0240096,,,,,,,,,
,,,,,,,,,,,,,,,,,,9,21,male,R,Donders,2021-07-14_09h34.05.063,ImageRatingTask_S3,2021.1.4,Win32,60.0240096,0,49,49,19,1,DreamStudyImages_rs1000x750g/Food/Objects_097_h.jpg,,,
,,8,3.8215,1,0.6998,6,3.2177,1,1.9815,3,0.6706,0,0,0,0,1,main,9,21,male,R,Donders,2021-07-14_09h34.05.063,ImageRatingTask_S3,2021.1.4,Win32,60.0240096,,,,,,,,,
,,,,,,,,,,,,0,1,1,1,1,second,9,21,male,R,Donders,2021-07-14_09h34.05.063,ImageRatingTask_S3,2021.1.4,Win32,60.0240096,,,,,,,,,
,,,,,,,,,,,,0,2,2,2,1,third,9,21,male,R,Donders,2021-07-14_09h34.05.063,ImageRatingTask_S3,2021.1.4,Win32,60.0240096,,,,,,,,,
,,,,,,,,,,,,0,3,3,3,1,fourth,9,21,male,R,Donders,2021-07-14_09h34.05.063,ImageRatingTask_S3,2021.1.4,Win32,60.0240096,,,,,,,,,
,,,,,,,,,,,,0,4,4,4,1,fifth,9,21,male,R,Donders,2021-07-14_09h34.05.063,ImageRatingTask_S3,2021.1.4,Win32,60.0240096,,,,,,,,,
,,,,,,,,,,,,0,5,5,5,1,sixth,9,21,male,R,Donders,2021-07-14_09h34.05.063,ImageRatingTask_S3,2021.1.4,Win32,60.0240096,,,,,,,,,
,,,,,,,,,,,,0,6,6,6,1,seventh,9,21,male,R,Donders,2021-07-14_09h34.05.063,ImageRatingTask_S3,2021.1.4,Win32,60.0240096,,,,,,,,,
,,,,,,,,,,,,0,7,7,7,1,last,9,21,male,R,Donders,2021-07-14_09h34.05.063,ImageRatingTask_S3,2021.1.4,Win32,60.0240096,,,,,,,,,
,,,,,,,,,,,,,,,,,,9,21,male,R,Donders,2021-07-14_09h34.05.063,ImageRatingTask_S3,2021.1.4,Win32,60.0240096,0,50,50,89,1,DreamStudyImages_rs1000x750g/Mammals/Animals_133_h.jpg,,,
,,4,3.9591,1,0.4825,4,2.9715,1,0.7764,7,0.6855,0,0,0,0,1,main,9,21,male,R,Donders,2021-07-14_09h34.05.063,ImageRatingTask_S3,2021.1.4,Win32,60.0240096,,,,,,,,,
,,,,,,,,,,,,0,1,1,1,1,second,9,21,male,R,Donders,2021-07-14_09h34.05.063,ImageRatingTask_S3,2021.1.4,Win32,60.0240096,,,,,,,,,
,,,,,,,,,,,,0,2,2,2,1,third,9,21,male,R,Donders,2021-07-14_09h34.05.063,ImageRatingTask_S3,2021.1.4,Win32,60.0240096,,,,,,,,,
,,,,,,,,,,,,0,3,3,3,1,fourth,9,21,male,R,Donders,2021-07-14_09h34.05.063,ImageRatingTask_S3,2021.1.4,Win32,60.0240096,,,,,,,,,
,,,,,,,,,,,,0,4,4,4,1,fifth,9,21,male,R,Donders,2021-07-14_09h34.05.063,ImageRatingTask_S3,2021.1.4,Win32,60.0240096,,,,,,,,,
,,,,,,,,,,,,0,5,5,5,1,sixth,9,21,male,R,Donders,2021-07-14_09h34.05.063,ImageRatingTask_S3,2021.1.4,Win32,60.0240096,,,,,,,,,
,,,,,,,,,,,,0,6,6,6,1,seventh,9,21,male,R,Donders,2021-07-14_09h34.05.063,ImageRatingTask_S3,2021.1.4,Win32,60.0240096,,,,,,,,,
,,,,,,,,,,,,0,7,7,7,1,last,9,21,male,R,Donders,2021-07-14_09h34.05.063,ImageRatingTask_S3,2021.1.4,Win32,60.0240096,,,,,,,,,
,,,,,,,,,,,,,,,,,,9,21,male,R,Donders,2021-07-14_09h34.05.063,ImageRatingTask_S3,2021.1.4,Win32,60.0240096,0,51,51,51,1,DreamStudyImages_rs1000x750g/Vehicles/Objects_314_h.jpg,,,
,,4,3.5941,1,0.7407,6,4.3611,1,0.9364,3,0.0936,0,0,0,0,1,main,9,21,male,R,Donders,2021-07-14_09h34.05.063,ImageRatingTask_S3,2021.1.4,Win32,60.0240096,,,,,,,,,
,,,,,,,,,,,,0,1,1,1,1,second,9,21,male,R,Donders,2021-07-14_09h34.05.063,ImageRatingTask_S3,2021.1.4,Win32,60.0240096,,,,,,,,,
,,,,,,,,,,,,0,2,2,2,1,third,9,21,male,R,Donders,2021-07-14_09h34.05.063,ImageRatingTask_S3,2021.1.4,Win32,60.0240096,,,,,,,,,
,,,,,,,,,,,,0,3,3,3,1,fourth,9,21,male,R,Donders,2021-07-14_09h34.05.063,ImageRatingTask_S3,2021.1.4,Win32,60.0240096,,,,,,,,,
,,,,,,,,,,,,0,4,4,4,1,fifth,9,21,male,R,Donders,2021-07-14_09h34.05.063,ImageRatingTask_S3,2021.1.4,Win32,60.0240096,,,,,,,,,
,,,,,,,,,,,,0,5,5,5,1,sixth,9,21,male,R,Donders,2021-07-14_09h34.05.063,ImageRatingTask_S3,2021.1.4,Win32,60.0240096,,,,,,,,,
,,,,,,,,,,,,0,6,6,6,1,seventh,9,21,male,R,Donders,2021-07-14_09h34.05.063,ImageRatingTask_S3,2021.1.4,Win32,60.0240096,,,,,,,,,
,,,,,,,,,,,,0,7,7,7,1,last,9,21,male,R,Donders,2021-07-14_09h34.05.063,ImageRatingTask_S3,2021.1.4,Win32,60.0240096,,,,,,,,,
,,,,,,,,,,,,,,,,,,9,21,male,R,Donders,2021-07-14_09h34.05.063,ImageRatingTask_S3,2021.1.4,Win32,60.0240096,0,52,52,147,1,DreamStudyImages_rs1000x750g/Mammals/Pig 2.jpg,,,
,,6,2.0872,1,5.155,3,1.868,1,3.4515,5,0.3075,0,0,0,0,1,main,9,21,male,R,Donders,2021-07-14_09h34.05.063,ImageRatingTask_S3,2021.1.4,Win32,60.0240096,,,,,,,,,
,,,,,,,,,,,,0,1,1,1,1,second,9,21,male,R,Donders,2021-07-14_09h34.05.063,ImageRatingTask_S3,2021.1.4,Win32,60.0240096,,,,,,,,,
,,,,,,,,,,,,0,2,2,2,1,third,9,21,male,R,Donders,2021-07-14_09h34.05.063,ImageRatingTask_S3,2021.1.4,Win32,60.0240096,,,,,,,,,
,,,,,,,,,,,,0,3,3,3,1,fourth,9,21,male,R,Donders,2021-07-14_09h34.05.063,ImageRatingTask_S3,2021.1.4,Win32,60.0240096,,,,,,,,,
,,,,,,,,,,,,0,4,4,4,1,fifth,9,21,male,R,Donders,2021-07-14_09h34.05.063,ImageRatingTask_S3,2021.1.4,Win32,60.0240096,,,,,,,,,
,,,,,,,,,,,,0,5,5,5,1,sixth,9,21,male,R,Donders,2021-07-14_09h34.05.063,ImageRatingTask_S3,2021.1.4,Win32,60.0240096,,,,,,,,,
,,,,,,,,,,,,0,6,6,6,1,seventh,9,21,male,R,Donders,2021-07-14_09h34.05.063,ImageRatingTask_S3,2021.1.4,Win32,60.0240096,,,,,,,,,
,,,,,,,,,,,,0,7,7,7,1,last,9,21,male,R,Donders,2021-07-14_09h34.05.063,ImageRatingTask_S3,2021.1.4,Win32,60.0240096,,,,,,,,,
,,,,,,,,,,,,,,,,,,9,21,male,R,Donders,2021-07-14_09h34.05.063,ImageRatingTask_S3,2021.1.4,Win32,60.0240096,0,53,53,49,1,DreamStudyImages_rs1000x750g/Food/food_neg_5.jpg,,,
,,5,2.0884,1,0.6787,2,1.5701,1,1.2676,2,0.1188,0,0,0,0,1,main,9,21,male,R,Donders,2021-07-14_09h34.05.063,ImageRatingTask_S3,2021.1.4,Win32,60.0240096,,,,,,,,,
,,,,,,,,,,,,0,1,1,1,1,second,9,21,male,R,Donders,2021-07-14_09h34.05.063,ImageRatingTask_S3,2021.1.4,Win32,60.0240096,,,,,,,,,
,,,,,,,,,,,,0,2,2,2,1,third,9,21,male,R,Donders,2021-07-14_09h34.05.063,ImageRatingTask_S3,2021.1.4,Win32,60.0240096,,,,,,,,,
,,,,,,,,,,,,0,3,3,3,1,fourth,9,21,male,R,Donders,2021-07-14_09h34.05.063,ImageRatingTask_S3,2021.1.4,Win32,60.0240096,,,,,,,,,
,,,,,,,,,,,,0,4,4,4,1,fifth,9,21,male,R,Donders,2021-07-14_09h34.05.063,ImageRatingTask_S3,2021.1.4,Win32,60.0240096,,,,,,,,,
,,,,,,,,,,,,0,5,5,5,1,sixth,9,21,male,R,Donders,2021-07-14_09h34.05.063,ImageRatingTask_S3,2021.1.4,Win32,60.0240096,,,,,,,,,
,,,,,,,,,,,,0,6,6,6,1,seventh,9,21,male,R,Donders,2021-07-14_09h34.05.063,ImageRatingTask_S3,2021.1.4,Win32,60.0240096,,,,,,,,,
,,,,,,,,,,,,0,7,7,7,1,last,9,21,male,R,Donders,2021-07-14_09h34.05.063,ImageRatingTask_S3,2021.1.4,Win32,60.0240096,,,,,,,,,
,,,,,,,,,,,,,,,,,,9,21,male,R,Donders,2021-07-14_09h34.05.063,ImageRatingTask_S3,2021.1.4,Win32,60.0240096,0,54,54,27,1,DreamStudyImages_rs1000x750g/Children/Sad face 5.jpg,,,
,,6,4.56,1,0.8165,4,3.3479,1,0.9232,6,0.6966,0,0,0,0,1,main,9,21,male,R,Donders,2021-07-14_09h34.05.063,ImageRatingTask_S3,2021.1.4,Win32,60.0240096,,,,,,,,,
,,,,,,,,,,,,0,1,1,1,1,second,9,21,male,R,Donders,2021-07-14_09h34.05.063,ImageRatingTask_S3,2021.1.4,Win32,60.0240096,,,,,,,,,
,,,,,,,,,,,,0,2,2,2,1,third,9,21,male,R,Donders,2021-07-14_09h34.05.063,ImageRatingTask_S3,2021.1.4,Win32,60.0240096,,,,,,,,,
,,,,,,,,,,,,0,3,3,3,1,fourth,9,21,male,R,Donders,2021-07-14_09h34.05.063,ImageRatingTask_S3,2021.1.4,Win32,60.0240096,,,,,,,,,
,,,,,,,,,,,,0,4,4,4,1,fifth,9,21,male,R,Donders,2021-07-14_09h34.05.063,ImageRatingTask_S3,2021.1.4,Win32,60.0240096,,,,,,,,,
,,,,,,,,,,,,0,5,5,5,1,sixth,9,21,male,R,Donders,2021-07-14_09h34.05.063,ImageRatingTask_S3,2021.1.4,Win32,60.0240096,,,,,,,,,
,,,,,,,,,,,,0,6,6,6,1,seventh,9,21,male,R,Donders,2021-07-14_09h34.05.063,ImageRatingTask_S3,2021.1.4,Win32,60.0240096,,,,,,,,,
,,,,,,,,,,,,0,7,7,7,1,last,9,21,male,R,Donders,2021-07-14_09h34.05.063,ImageRatingTask_S3,2021.1.4,Win32,60.0240096,,,,,,,,,
,,,,,,,,,,,,,,,,,,9,21,male,R,Donders,2021-07-14_09h34.05.063,ImageRatingTask_S3,2021.1.4,Win32,60.0240096,0,55,55,68,1,DreamStudyImages_rs1000x750g/Houses/Landscapes_034_h.jpg,,,
,,8,2.1262,1,0.6502,3,1.7313,1,1.1636,5,0.4218,0,0,0,0,1,main,9,21,male,R,Donders,2021-07-14_09h34.05.063,ImageRatingTask_S3,2021.1.4,Win32,60.0240096,,,,,,,,,
,,,,,,,,,,,,0,1,1,1,1,second,9,21,male,R,Donders,2021-07-14_09h34.05.063,ImageRatingTask_S3,2021.1.4,Win32,60.0240096,,,,,,,,,
,,,,,,,,,,,,0,2,2,2,1,third,9,21,male,R,Donders,2021-07-14_09h34.05.063,ImageRatingTask_S3,2021.1.4,Win32,60.0240096,,,,,,,,,
,,,,,,,,,,,,0,3,3,3,1,fourth,9,21,male,R,Donders,2021-07-14_09h34.05.063,ImageRatingTask_S3,2021.1.4,Win32,60.0240096,,,,,,,,,
,,,,,,,,,,,,0,4,4,4,1,fifth,9,21,male,R,Donders,2021-07-14_09h34.05.063,ImageRatingTask_S3,2021.1.4,Win32,60.0240096,,,,,,,,,
,,,,,,,,,,,,0,5,5,5,1,sixth,9,21,male,R,Donders,2021-07-14_09h34.05.063,ImageRatingTask_S3,2021.1.4,Win32,60.0240096,,,,,,,,,
,,,,,,,,,,,,0,6,6,6,1,seventh,9,21,male,R,Donders,2021-07-14_09h34.05.063,ImageRatingTask_S3,2021.1.4,Win32,60.0240096,,,,,,,,,
,,,,,,,,,,,,0,7,7,7,1,last,9,21,male,R,Donders,2021-07-14_09h34.05.063,ImageRatingTask_S3,2021.1.4,Win32,60.0240096,,,,,,,,,
,,,,,,,,,,,,,,,,,,9,21,male,R,Donders,2021-07-14_09h34.05.063,ImageRatingTask_S3,2021.1.4,Win32,60.0240096,0,56,56,73,1,DreamStudyImages_rs1000x750g/Food/IAPS7350_pizza.jpg,,,
,,6,2.4115,2,1.4301,8,3.2196,1,0.9288,7,0.468,0,0,0,0,1,main,9,21,male,R,Donders,2021-07-14_09h34.05.063,ImageRatingTask_S3,2021.1.4,Win32,60.0240096,,,,,,,,,
,,,,,,,,,,,,0,1,1,1,1,second,9,21,male,R,Donders,2021-07-14_09h34.05.063,ImageRatingTask_S3,2021.1.4,Win32,60.0240096,,,,,,,,,
,,,,,,,,,,,,0,2,2,2,1,third,9,21,male,R,Donders,2021-07-14_09h34.05.063,ImageRatingTask_S3,2021.1.4,Win32,60.0240096,,,,,,,,,
,,,,,,,,,,,,0,3,3,3,1,fourth,9,21,male,R,Donders,2021-07-14_09h34.05.063,ImageRatingTask_S3,2021.1.4,Win32,60.0240096,,,,,,,,,
,,,,,,,,,,,,0,4,4,4,1,fifth,9,21,male,R,Donders,2021-07-14_09h34.05.063,ImageRatingTask_S3,2021.1.4,Win32,60.0240096,,,,,,,,,
,,,,,,,,,,,,0,5,5,5,1,sixth,9,21,male,R,Donders,2021-07-14_09h34.05.063,ImageRatingTask_S3,2021.1.4,Win32,60.0240096,,,,,,,,,
,,,,,,,,,,,,0,6,6,6,1,seventh,9,21,male,R,Donders,2021-07-14_09h34.05.063,ImageRatingTask_S3,2021.1.4,Win32,60.0240096,,,,,,,,,
,,,,,,,,,,,,0,7,7,7,1,last,9,21,male,R,Donders,2021-07-14_09h34.05.063,ImageRatingTask_S3,2021.1.4,Win32,60.0240096,,,,,,,,,
,,,,,,,,,,,,,,,,,,9,21,male,R,Donders,2021-07-14_09h34.05.063,ImageRatingTask_S3,2021.1.4,Win32,60.0240096,0,57,57,83,1,DreamStudyImages_rs1000x750g/Vehicles/Objects_305_h.jpg,,,
,,6,2.8998,1,0.4114,6,3.4813,1,1.1199,5,0.2768,0,0,0,0,1,main,9,21,male,R,Donders,2021-07-14_09h34.05.063,ImageRatingTask_S3,2021.1.4,Win32,60.0240096,,,,,,,,,
,,,,,,,,,,,,0,1,1,1,1,second,9,21,male,R,Donders,2021-07-14_09h34.05.063,ImageRatingTask_S3,2021.1.4,Win32,60.0240096,,,,,,,,,
,,,,,,,,,,,,0,2,2,2,1,third,9,21,male,R,Donders,2021-07-14_09h34.05.063,ImageRatingTask_S3,2021.1.4,Win32,60.0240096,,,,,,,,,
,,,,,,,,,,,,0,3,3,3,1,fourth,9,21,male,R,Donders,2021-07-14_09h34.05.063,ImageRatingTask_S3,2021.1.4,Win32,60.0240096,,,,,,,,,
,,,,,,,,,,,,0,4,4,4,1,fifth,9,21,male,R,Donders,2021-07-14_09h34.05.063,ImageRatingTask_S3,2021.1.4,Win32,60.0240096,,,,,,,,,
,,,,,,,,,,,,0,5,5,5,1,sixth,9,21,male,R,Donders,2021-07-14_09h34.05.063,ImageRatingTask_S3,2021.1.4,Win32,60.0240096,,,,,,,,,
,,,,,,,,,,,,0,6,6,6,1,seventh,9,21,male,R,Donders,2021-07-14_09h34.05.063,ImageRatingTask_S3,2021.1.4,Win32,60.0240096,,,,,,,,,
,,,,,,,,,,,,0,7,7,7,1,last,9,21,male,R,Donders,2021-07-14_09h34.05.063,ImageRatingTask_S3,2021.1.4,Win32,60.0240096,,,,,,,,,
,,,,,,,,,,,,,,,,,,9,21,male,R,Donders,2021-07-14_09h34.05.063,ImageRatingTask_S3,2021.1.4,Win32,60.0240096,0,58,58,95,1,DreamStudyImages_rs1000x750g/Food/Objects_067_h.jpg,,,
,,6,8.5606,1,0.7637,7,9.2297,1,1.3792,7,0.6868,0,0,0,0,1,main,9,21,male,R,Donders,2021-07-14_09h34.05.063,ImageRatingTask_S3,2021.1.4,Win32,60.0240096,,,,,,,,,
,,,,,,,,,,,,0,1,1,1,1,second,9,21,male,R,Donders,2021-07-14_09h34.05.063,ImageRatingTask_S3,2021.1.4,Win32,60.0240096,,,,,,,,,
,,,,,,,,,,,,0,2,2,2,1,third,9,21,male,R,Donders,2021-07-14_09h34.05.063,ImageRatingTask_S3,2021.1.4,Win32,60.0240096,,,,,,,,,
,,,,,,,,,,,,0,3,3,3,1,fourth,9,21,male,R,Donders,2021-07-14_09h34.05.063,ImageRatingTask_S3,2021.1.4,Win32,60.0240096,,,,,,,,,
,,,,,,,,,,,,0,4,4,4,1,fifth,9,21,male,R,Donders,2021-07-14_09h34.05.063,ImageRatingTask_S3,2021.1.4,Win32,60.0240096,,,,,,,,,
,,,,,,,,,,,,0,5,5,5,1,sixth,9,21,male,R,Donders,2021-07-14_09h34.05.063,ImageRatingTask_S3,2021.1.4,Win32,60.0240096,,,,,,,,,
,,,,,,,,,,,,0,6,6,6,1,seventh,9,21,male,R,Donders,2021-07-14_09h34.05.063,ImageRatingTask_S3,2021.1.4,Win32,60.0240096,,,,,,,,,
,,,,,,,,,,,,0,7,7,7,1,last,9,21,male,R,Donders,2021-07-14_09h34.05.063,ImageRatingTask_S3,2021.1.4,Win32,60.0240096,,,,,,,,,
,,,,,,,,,,,,,,,,,,9,21,male,R,Donders,2021-07-14_09h34.05.063,ImageRatingTask_S3,2021.1.4,Win32,60.0240096,0,59,59,100,1,DreamStudyImages_rs1000x750g/Vehicles/quad.jpg,,,
,,8,8.1267,1,1.009,7,2.3716,1,3.3059,8,0.3625,0,0,0,0,1,main,9,21,male,R,Donders,2021-07-14_09h34.05.063,ImageRatingTask_S3,2021.1.4,Win32,60.0240096,,,,,,,,,
,,,,,,,,,,,,0,1,1,1,1,second,9,21,male,R,Donders,2021-07-14_09h34.05.063,ImageRatingTask_S3,2021.1.4,Win32,60.0240096,,,,,,,,,
,,,,,,,,,,,,0,2,2,2,1,third,9,21,male,R,Donders,2021-07-14_09h34.05.063,ImageRatingTask_S3,2021.1.4,Win32,60.0240096,,,,,,,,,
,,,,,,,,,,,,0,3,3,3,1,fourth,9,21,male,R,Donders,2021-07-14_09h34.05.063,ImageRatingTask_S3,2021.1.4,Win32,60.0240096,,,,,,,,,
,,,,,,,,,,,,0,4,4,4,1,fifth,9,21,male,R,Donders,2021-07-14_09h34.05.063,ImageRatingTask_S3,2021.1.4,Win32,60.0240096,,,,,,,,,
,,,,,,,,,,,,0,5,5,5,1,sixth,9,21,male,R,Donders,2021-07-14_09h34.05.063,ImageRatingTask_S3,2021.1.4,Win32,60.0240096,,,,,,,,,
,,,,,,,,,,,,0,6,6,6,1,seventh,9,21,male,R,Donders,2021-07-14_09h34.05.063,ImageRatingTask_S3,2021.1.4,Win32,60.0240096,,,,,,,,,
,,,,,,,,,,,,0,7,7,7,1,last,9,21,male,R,Donders,2021-07-14_09h34.05.063,ImageRatingTask_S3,2021.1.4,Win32,60.0240096,,,,,,,,,
,,,,,,,,,,,,,,,,,,9,21,male,R,Donders,2021-07-14_09h34.05.063,ImageRatingTask_S3,2021.1.4,Win32,60.0240096,0,60,60,56,1,DreamStudyImages_rs1000x750g/Water/Sunset 6.jpg,,,
,,7,1.7445,1,2.8018,8,3.894,1,1.1182,3,0.5522,0,0,0,0,1,main,9,21,male,R,Donders,2021-07-14_09h34.05.063,ImageRatingTask_S3,2021.1.4,Win32,60.0240096,,,,,,,,,
,,,,,,,,,,,,0,1,1,1,1,second,9,21,male,R,Donders,2021-07-14_09h34.05.063,ImageRatingTask_S3,2021.1.4,Win32,60.0240096,,,,,,,,,
,,,,,,,,,,,,0,2,2,2,1,third,9,21,male,R,Donders,2021-07-14_09h34.05.063,ImageRatingTask_S3,2021.1.4,Win32,60.0240096,,,,,,,,,
,,,,,,,,,,,,0,3,3,3,1,fourth,9,21,male,R,Donders,2021-07-14_09h34.05.063,ImageRatingTask_S3,2021.1.4,Win32,60.0240096,,,,,,,,,
,,,,,,,,,,,,0,4,4,4,1,fifth,9,21,male,R,Donders,2021-07-14_09h34.05.063,ImageRatingTask_S3,2021.1.4,Win32,60.0240096,,,,,,,,,
,,,,,,,,,,,,0,5,5,5,1,sixth,9,21,male,R,Donders,2021-07-14_09h34.05.063,ImageRatingTask_S3,2021.1.4,Win32,60.0240096,,,,,,,,,
,,,,,,,,,,,,0,6,6,6,1,seventh,9,21,male,R,Donders,2021-07-14_09h34.05.063,ImageRatingTask_S3,2021.1.4,Win32,60.0240096,,,,,,,,,
,,,,,,,,,,,,0,7,7,7,1,last,9,21,male,R,Donders,2021-07-14_09h34.05.063,ImageRatingTask_S3,2021.1.4,Win32,60.0240096,,,,,,,,,
,,,,,,,,,,,,,,,,,,9,21,male,R,Donders,2021-07-14_09h34.05.063,ImageRatingTask_S3,2021.1.4,Win32,60.0240096,0,61,61,65,1,DreamStudyImages_rs1000x750g/Mammals/Animals_167_h.jpg,,,
,,7,2.6053,4,0.5394,7,1.4451,1,0.6131,3,0.7527,0,0,0,0,1,main,9,21,male,R,Donders,2021-07-14_09h34.05.063,ImageRatingTask_S3,2021.1.4,Win32,60.0240096,,,,,,,,,
,,,,,,,,,,,,0,1,1,1,1,second,9,21,male,R,Donders,2021-07-14_09h34.05.063,ImageRatingTask_S3,2021.1.4,Win32,60.0240096,,,,,,,,,
,,,,,,,,,,,,0,2,2,2,1,third,9,21,male,R,Donders,2021-07-14_09h34.05.063,ImageRatingTask_S3,2021.1.4,Win32,60.0240096,,,,,,,,,
,,,,,,,,,,,,0,3,3,3,1,fourth,9,21,male,R,Donders,2021-07-14_09h34.05.063,ImageRatingTask_S3,2021.1.4,Win32,60.0240096,,,,,,,,,
,,,,,,,,,,,,0,4,4,4,1,fifth,9,21,male,R,Donders,2021-07-14_09h34.05.063,ImageRatingTask_S3,2021.1.4,Win32,60.0240096,,,,,,,,,
,,,,,,,,,,,,0,5,5,5,1,sixth,9,21,male,R,Donders,2021-07-14_09h34.05.063,ImageRatingTask_S3,2021.1.4,Win32,60.0240096,,,,,,,,,
,,,,,,,,,,,,0,6,6,6,1,seventh,9,21,male,R,Donders,2021-07-14_09h34.05.063,ImageRatingTask_S3,2021.1.4,Win32,60.0240096,,,,,,,,,
,,,,,,,,,,,,0,7,7,7,1,last,9,21,male,R,Donders,2021-07-14_09h34.05.063,ImageRatingTask_S3,2021.1.4,Win32,60.0240096,,,,,,,,,
,,,,,,,,,,,,,,,,,,9,21,male,R,Donders,2021-07-14_09h34.05.063,ImageRatingTask_S3,2021.1.4,Win32,60.0240096,0,62,62,85,1,DreamStudyImages_rs1000x750g/Mammals/Couple 5.jpg,,,
,,8,2.8686,3,1.2342,6,3.0793,1,3.0713,2,1.2451,0,0,0,0,1,main,9,21,male,R,Donders,2021-07-14_09h34.05.063,ImageRatingTask_S3,2021.1.4,Win32,60.0240096,,,,,,,,,
,,,,,,,,,,,,0,1,1,1,1,second,9,21,male,R,Donders,2021-07-14_09h34.05.063,ImageRatingTask_S3,2021.1.4,Win32,60.0240096,,,,,,,,,
,,,,,,,,,,,,0,2,2,2,1,third,9,21,male,R,Donders,2021-07-14_09h34.05.063,ImageRatingTask_S3,2021.1.4,Win32,60.0240096,,,,,,,,,
,,,,,,,,,,,,0,3,3,3,1,fourth,9,21,male,R,Donders,2021-07-14_09h34.05.063,ImageRatingTask_S3,2021.1.4,Win32,60.0240096,,,,,,,,,
,,,,,,,,,,,,0,4,4,4,1,fifth,9,21,male,R,Donders,2021-07-14_09h34.05.063,ImageRatingTask_S3,2021.1.4,Win32,60.0240096,,,,,,,,,
,,,,,,,,,,,,0,5,5,5,1,sixth,9,21,male,R,Donders,2021-07-14_09h34.05.063,ImageRatingTask_S3,2021.1.4,Win32,60.0240096,,,,,,,,,
,,,,,,,,,,,,0,6,6,6,1,seventh,9,21,male,R,Donders,2021-07-14_09h34.05.063,ImageRatingTask_S3,2021.1.4,Win32,60.0240096,,,,,,,,,
,,,,,,,,,,,,0,7,7,7,1,last,9,21,male,R,Donders,2021-07-14_09h34.05.063,ImageRatingTask_S3,2021.1.4,Win32,60.0240096,,,,,,,,,
,,,,,,,,,,,,,,,,,,9,21,male,R,Donders,2021-07-14_09h34.05.063,ImageRatingTask_S3,2021.1.4,Win32,60.0240096,0,63,63,157,1,DreamStudyImages_rs1000x750g/Children/Gazing 6.jpg,,,
,,8,3.3473,1,0.7215,3,0.6014,1,0.9838,5,0.4164,0,0,0,0,1,main,9,21,male,R,Donders,2021-07-14_09h34.05.063,ImageRatingTask_S3,2021.1.4,Win32,60.0240096,,,,,,,,,
,,,,,,,,,,,,0,1,1,1,1,second,9,21,male,R,Donders,2021-07-14_09h34.05.063,ImageRatingTask_S3,2021.1.4,Win32,60.0240096,,,,,,,,,
,,,,,,,,,,,,0,2,2,2,1,third,9,21,male,R,Donders,2021-07-14_09h34.05.063,ImageRatingTask_S3,2021.1.4,Win32,60.0240096,,,,,,,,,
,,,,,,,,,,,,0,3,3,3,1,fourth,9,21,male,R,Donders,2021-07-14_09h34.05.063,ImageRatingTask_S3,2021.1.4,Win32,60.0240096,,,,,,,,,
,,,,,,,,,,,,0,4,4,4,1,fifth,9,21,male,R,Donders,2021-07-14_09h34.05.063,ImageRatingTask_S3,2021.1.4,Win32,60.0240096,,,,,,,,,
,,,,,,,,,,,,0,5,5,5,1,sixth,9,21,male,R,Donders,2021-07-14_09h34.05.063,ImageRatingTask_S3,2021.1.4,Win32,60.0240096,,,,,,,,,
,,,,,,,,,,,,0,6,6,6,1,seventh,9,21,male,R,Donders,2021-07-14_09h34.05.063,ImageRatingTask_S3,2021.1.4,Win32,60.0240096,,,,,,,,,
,,,,,,,,,,,,0,7,7,7,1,last,9,21,male,R,Donders,2021-07-14_09h34.05.063,ImageRatingTask_S3,2021.1.4,Win32,60.0240096,,,,,,,,,
,,,,,,,,,,,,,,,,,,9,21,male,R,Donders,2021-07-14_09h34.05.063,ImageRatingTask_S3,2021.1.4,Win32,60.0240096,0,64,64,72,1,DreamStudyImages_rs1000x750g/Food/Objects_072_v.jpg,,,
,,6,2.6182,7,0.0009,6,5.5861,1,2.0114,3,0.1033,0,0,0,0,1,main,9,21,male,R,Donders,2021-07-14_09h34.05.063,ImageRatingTask_S3,2021.1.4,Win32,60.0240096,,,,,,,,,
,,,,,,,,,,,,0,1,1,1,1,second,9,21,male,R,Donders,2021-07-14_09h34.05.063,ImageRatingTask_S3,2021.1.4,Win32,60.0240096,,,,,,,,,
,,,,,,,,,,,,0,2,2,2,1,third,9,21,male,R,Donders,2021-07-14_09h34.05.063,ImageRatingTask_S3,2021.1.4,Win32,60.0240096,,,,,,,,,
,,,,,,,,,,,,0,3,3,3,1,fourth,9,21,male,R,Donders,2021-07-14_09h34.05.063,ImageRatingTask_S3,2021.1.4,Win32,60.0240096,,,,,,,,,
,,,,,,,,,,,,0,4,4,4,1,fifth,9,21,male,R,Donders,2021-07-14_09h34.05.063,ImageRatingTask_S3,2021.1.4,Win32,60.0240096,,,,,,,,,
,,,,,,,,,,,,0,5,5,5,1,sixth,9,21,male,R,Donders,2021-07-14_09h34.05.063,ImageRatingTask_S3,2021.1.4,Win32,60.0240096,,,,,,,,,
,,,,,,,,,,,,0,6,6,6,1,seventh,9,21,male,R,Donders,2021-07-14_09h34.05.063,ImageRatingTask_S3,2021.1.4,Win32,60.0240096,,,,,,,,,
,,,,,,,,,,,,0,7,7,7,1,last,9,21,male,R,Donders,2021-07-14_09h34.05.063,ImageRatingTask_S3,2021.1.4,Win32,60.0240096,,,,,,,,,
,,,,,,,,,,,,,,,,,,9,21,male,R,Donders,2021-07-14_09h34.05.063,ImageRatingTask_S3,2021.1.4,Win32,60.0240096,0,65,65,116,1,DreamStudyImages_rs1000x750g/Mammals/Animals_171_h.jpg,,,
,,6,3.7237,1,1.0144,5,6.3117,1,1.0012,5,0.4009,0,0,0,0,1,main,9,21,male,R,Donders,2021-07-14_09h34.05.063,ImageRatingTask_S3,2021.1.4,Win32,60.0240096,,,,,,,,,
,,,,,,,,,,,,0,1,1,1,1,second,9,21,male,R,Donders,2021-07-14_09h34.05.063,ImageRatingTask_S3,2021.1.4,Win32,60.0240096,,,,,,,,,
,,,,,,,,,,,,0,2,2,2,1,third,9,21,male,R,Donders,2021-07-14_09h34.05.063,ImageRatingTask_S3,2021.1.4,Win32,60.0240096,,,,,,,,,
,,,,,,,,,,,,0,3,3,3,1,fourth,9,21,male,R,Donders,2021-07-14_09h34.05.063,ImageRatingTask_S3,2021.1.4,Win32,60.0240096,,,,,,,,,
,,,,,,,,,,,,0,4,4,4,1,fifth,9,21,male,R,Donders,2021-07-14_09h34.05.063,ImageRatingTask_S3,2021.1.4,Win32,60.0240096,,,,,,,,,
,,,,,,,,,,,,0,5,5,5,1,sixth,9,21,male,R,Donders,2021-07-14_09h34.05.063,ImageRatingTask_S3,2021.1.4,Win32,60.0240096,,,,,,,,,
,,,,,,,,,,,,0,6,6,6,1,seventh,9,21,male,R,Donders,2021-07-14_09h34.05.063,ImageRatingTask_S3,2021.1.4,Win32,60.0240096,,,,,,,,,
,,,,,,,,,,,,0,7,7,7,1,last,9,21,male,R,Donders,2021-07-14_09h34.05.063,ImageRatingTask_S3,2021.1.4,Win32,60.0240096,,,,,,,,,
,,,,,,,,,,,,,,,,,,9,21,male,R,Donders,2021-07-14_09h34.05.063,ImageRatingTask_S3,2021.1.4,Win32,60.0240096,0,66,66,35,1,DreamStudyImages_rs1000x750g/Food/Objects_037_h.jpg,,,
,,4,2.6593,1,0.7024,3,2.3366,1,2.3504,8,0.4644,0,0,0,0,1,main,9,21,male,R,Donders,2021-07-14_09h34.05.063,ImageRatingTask_S3,2021.1.4,Win32,60.0240096,,,,,,,,,
,,,,,,,,,,,,0,1,1,1,1,second,9,21,male,R,Donders,2021-07-14_09h34.05.063,ImageRatingTask_S3,2021.1.4,Win32,60.0240096,,,,,,,,,
,,,,,,,,,,,,0,2,2,2,1,third,9,21,male,R,Donders,2021-07-14_09h34.05.063,ImageRatingTask_S3,2021.1.4,Win32,60.0240096,,,,,,,,,
,,,,,,,,,,,,0,3,3,3,1,fourth,9,21,male,R,Donders,2021-07-14_09h34.05.063,ImageRatingTask_S3,2021.1.4,Win32,60.0240096,,,,,,,,,
,,,,,,,,,,,,0,4,4,4,1,fifth,9,21,male,R,Donders,2021-07-14_09h34.05.063,ImageRatingTask_S3,2021.1.4,Win32,60.0240096,,,,,,,,,
,,,,,,,,,,,,0,5,5,5,1,sixth,9,21,male,R,Donders,2021-07-14_09h34.05.063,ImageRatingTask_S3,2021.1.4,Win32,60.0240096,,,,,,,,,
,,,,,,,,,,,,0,6,6,6,1,seventh,9,21,male,R,Donders,2021-07-14_09h34.05.063,ImageRatingTask_S3,2021.1.4,Win32,60.0240096,,,,,,,,,
,,,,,,,,,,,,0,7,7,7,1,last,9,21,male,R,Donders,2021-07-14_09h34.05.063,ImageRatingTask_S3,2021.1.4,Win32,60.0240096,,,,,,,,,
,,,,,,,,,,,,,,,,,,9,21,male,R,Donders,2021-07-14_09h34.05.063,ImageRatingTask_S3,2021.1.4,Win32,60.0240096,0,67,67,87,1,DreamStudyImages_rs1000x750g/Water/landscapes_181_h_EDITED.jpg,,,
,,1,2.0449,9,0.5947,3,2.084,1,1.0437,2,0.1643,0,0,0,0,1,main,9,21,male,R,Donders,2021-07-14_09h34.05.063,ImageRatingTask_S3,2021.1.4,Win32,60.0240096,,,,,,,,,
,,,,,,,,,,,,0,1,1,1,1,second,9,21,male,R,Donders,2021-07-14_09h34.05.063,ImageRatingTask_S3,2021.1.4,Win32,60.0240096,,,,,,,,,
,,,,,,,,,,,,0,2,2,2,1,third,9,21,male,R,Donders,2021-07-14_09h34.05.063,ImageRatingTask_S3,2021.1.4,Win32,60.0240096,,,,,,,,,
,,,,,,,,,,,,0,3,3,3,1,fourth,9,21,male,R,Donders,2021-07-14_09h34.05.063,ImageRatingTask_S3,2021.1.4,Win32,60.0240096,,,,,,,,,
,,,,,,,,,,,,0,4,4,4,1,fifth,9,21,male,R,Donders,2021-07-14_09h34.05.063,ImageRatingTask_S3,2021.1.4,Win32,60.0240096,,,,,,,,,
,,,,,,,,,,,,0,5,5,5,1,sixth,9,21,male,R,Donders,2021-07-14_09h34.05.063,ImageRatingTask_S3,2021.1.4,Win32,60.0240096,,,,,,,,,
,,,,,,,,,,,,0,6,6,6,1,seventh,9,21,male,R,Donders,2021-07-14_09h34.05.063,ImageRatingTask_S3,2021.1.4,Win32,60.0240096,,,,,,,,,
,,,,,,,,,,,,0,7,7,7,1,last,9,21,male,R,Donders,2021-07-14_09h34.05.063,ImageRatingTask_S3,2021.1.4,Win32,60.0240096,,,,,,,,,
,,,,,,,,,,,,,,,,,,9,21,male,R,Donders,2021-07-14_09h34.05.063,ImageRatingTask_S3,2021.1.4,Win32,60.0240096,0,68,68,28,1,DreamStudyImages_rs1000x750g/Children/IAPS3350_baby28.jpg,,,
,,6,2.9028,3,0.9929,4,1.889,1,1.4743,8,0.6335,0,0,0,0,1,main,9,21,male,R,Donders,2021-07-14_09h34.05.063,ImageRatingTask_S3,2021.1.4,Win32,60.0240096,,,,,,,,,
,,,,,,,,,,,,0,1,1,1,1,second,9,21,male,R,Donders,2021-07-14_09h34.05.063,ImageRatingTask_S3,2021.1.4,Win32,60.0240096,,,,,,,,,
,,,,,,,,,,,,0,2,2,2,1,third,9,21,male,R,Donders,2021-07-14_09h34.05.063,ImageRatingTask_S3,2021.1.4,Win32,60.0240096,,,,,,,,,
,,,,,,,,,,,,0,3,3,3,1,fourth,9,21,male,R,Donders,2021-07-14_09h34.05.063,ImageRatingTask_S3,2021.1.4,Win32,60.0240096,,,,,,,,,
,,,,,,,,,,,,0,4,4,4,1,fifth,9,21,male,R,Donders,2021-07-14_09h34.05.063,ImageRatingTask_S3,2021.1.4,Win32,60.0240096,,,,,,,,,
,,,,,,,,,,,,0,5,5,5,1,sixth,9,21,male,R,Donders,2021-07-14_09h34.05.063,ImageRatingTask_S3,2021.1.4,Win32,60.0240096,,,,,,,,,
,,,,,,,,,,,,0,6,6,6,1,seventh,9,21,male,R,Donders,2021-07-14_09h34.05.063,ImageRatingTask_S3,2021.1.4,Win32,60.0240096,,,,,,,,,
,,,,,,,,,,,,0,7,7,7,1,last,9,21,male,R,Donders,2021-07-14_09h34.05.063,ImageRatingTask_S3,2021.1.4,Win32,60.0240096,,,,,,,,,
,,,,,,,,,,,,,,,,,,9,21,male,R,Donders,2021-07-14_09h34.05.063,ImageRatingTask_S3,2021.1.4,Win32,60.0240096,0,69,69,46,1,DreamStudyImages_rs1000x750g/Water/IAPS5814_tropicalbeach.jpg,,,
,,5,3.174,2,1.1815,6,1.9198,2,1.1358,6,1.7602,0,0,0,0,1,main,9,21,male,R,Donders,2021-07-14_09h34.05.063,ImageRatingTask_S3,2021.1.4,Win32,60.0240096,,,,,,,,,
,,,,,,,,,,8,0.1207,0,1,1,1,1,second,9,21,male,R,Donders,2021-07-14_09h34.05.063,ImageRatingTask_S3,2021.1.4,Win32,60.0240096,,,,,,,,,
,,,,,,,,,,,,0,2,2,2,1,third,9,21,male,R,Donders,2021-07-14_09h34.05.063,ImageRatingTask_S3,2021.1.4,Win32,60.0240096,,,,,,,,,
,,,,,,,,,,,,0,3,3,3,1,fourth,9,21,male,R,Donders,2021-07-14_09h34.05.063,ImageRatingTask_S3,2021.1.4,Win32,60.0240096,,,,,,,,,
,,,,,,,,,,,,0,4,4,4,1,fifth,9,21,male,R,Donders,2021-07-14_09h34.05.063,ImageRatingTask_S3,2021.1.4,Win32,60.0240096,,,,,,,,,
,,,,,,,,,,,,0,5,5,5,1,sixth,9,21,male,R,Donders,2021-07-14_09h34.05.063,ImageRatingTask_S3,2021.1.4,Win32,60.0240096,,,,,,,,,
,,,,,,,,,,,,0,6,6,6,1,seventh,9,21,male,R,Donders,2021-07-14_09h34.05.063,ImageRatingTask_S3,2021.1.4,Win32,60.0240096,,,,,,,,,
,,,,,,,,,,,,0,7,7,7,1,last,9,21,male,R,Donders,2021-07-14_09h34.05.063,ImageRatingTask_S3,2021.1.4,Win32,60.0240096,,,,,,,,,
,,,,,,,,,,,,,,,,,,9,21,male,R,Donders,2021-07-14_09h34.05.063,ImageRatingTask_S3,2021.1.4,Win32,60.0240096,0,70,70,33,1,DreamStudyImages_rs1000x750g/Houses/Landscapes_044_h.jpg,,,
,,5,1.9743,1,0.46,6,1.9988,1,3.4101,3,0.3977,0,0,0,0,1,main,9,21,male,R,Donders,2021-07-14_09h34.05.063,ImageRatingTask_S3,2021.1.4,Win32,60.0240096,,,,,,,,,
,,,,,,,,,,,,0,1,1,1,1,second,9,21,male,R,Donders,2021-07-14_09h34.05.063,ImageRatingTask_S3,2021.1.4,Win32,60.0240096,,,,,,,,,
,,,,,,,,,,,,0,2,2,2,1,third,9,21,male,R,Donders,2021-07-14_09h34.05.063,ImageRatingTask_S3,2021.1.4,Win32,60.0240096,,,,,,,,,
,,,,,,,,,,,,0,3,3,3,1,fourth,9,21,male,R,Donders,2021-07-14_09h34.05.063,ImageRatingTask_S3,2021.1.4,Win32,60.0240096,,,,,,,,,
,,,,,,,,,,,,0,4,4,4,1,fifth,9,21,male,R,Donders,2021-07-14_09h34.05.063,ImageRatingTask_S3,2021.1.4,Win32,60.0240096,,,,,,,,,
,,,,,,,,,,,,0,5,5,5,1,sixth,9,21,male,R,Donders,2021-07-14_09h34.05.063,ImageRatingTask_S3,2021.1.4,Win32,60.0240096,,,,,,,,,
,,,,,,,,,,,,0,6,6,6,1,seventh,9,21,male,R,Donders,2021-07-14_09h34.05.063,ImageRatingTask_S3,2021.1.4,Win32,60.0240096,,,,,,,,,
,,,,,,,,,,,,0,7,7,7,1,last,9,21,male,R,Donders,2021-07-14_09h34.05.063,ImageRatingTask_S3,2021.1.4,Win32,60.0240096,,,,,,,,,
,,,,,,,,,,,,,,,,,,9,21,male,R,Donders,2021-07-14_09h34.05.063,ImageRatingTask_S3,2021.1.4,Win32,60.0240096,0,71,71,70,1,DreamStudyImages_rs1000x750g/Mammals/Animals_192_h.jpg,,,
,,6,6.489,1,0.7984,6,2.3468,1,3.4778,5,0.2604,0,0,0,0,1,main,9,21,male,R,Donders,2021-07-14_09h34.05.063,ImageRatingTask_S3,2021.1.4,Win32,60.0240096,,,,,,,,,
,,,,,,,,,,,,0,1,1,1,1,second,9,21,male,R,Donders,2021-07-14_09h34.05.063,ImageRatingTask_S3,2021.1.4,Win32,60.0240096,,,,,,,,,
,,,,,,,,,,,,0,2,2,2,1,third,9,21,male,R,Donders,2021-07-14_09h34.05.063,ImageRatingTask_S3,2021.1.4,Win32,60.0240096,,,,,,,,,
,,,,,,,,,,,,0,3,3,3,1,fourth,9,21,male,R,Donders,2021-07-14_09h34.05.063,ImageRatingTask_S3,2021.1.4,Win32,60.0240096,,,,,,,,,
,,,,,,,,,,,,0,4,4,4,1,fifth,9,21,male,R,Donders,2021-07-14_09h34.05.063,ImageRatingTask_S3,2021.1.4,Win32,60.0240096,,,,,,,,,
,,,,,,,,,,,,0,5,5,5,1,sixth,9,21,male,R,Donders,2021-07-14_09h34.05.063,ImageRatingTask_S3,2021.1.4,Win32,60.0240096,,,,,,,,,
,,,,,,,,,,,,0,6,6,6,1,seventh,9,21,male,R,Donders,2021-07-14_09h34.05.063,ImageRatingTask_S3,2021.1.4,Win32,60.0240096,,,,,,,,,
,,,,,,,,,,,,0,7,7,7,1,last,9,21,male,R,Donders,2021-07-14_09h34.05.063,ImageRatingTask_S3,2021.1.4,Win32,60.0240096,,,,,,,,,
,,,,,,,,,,,,,,,,,,9,21,male,R,Donders,2021-07-14_09h34.05.063,ImageRatingTask_S3,2021.1.4,Win32,60.0240096,0,72,72,53,1,DreamStudyImages_rs1000x750g/Food/Objects_056_h.jpg,,,
,,7,2.7794,2,0.8542,4,1.3003,2,2.0648,2,0.3408,0,0,0,0,1,main,9,21,male,R,Donders,2021-07-14_09h34.05.063,ImageRatingTask_S3,2021.1.4,Win32,60.0240096,,,,,,,,,
,,,,,,,,,,1,0.0699,0,1,1,1,1,second,9,21,male,R,Donders,2021-07-14_09h34.05.063,ImageRatingTask_S3,2021.1.4,Win32,60.0240096,,,,,,,,,
,,,,,,,,,,,,0,2,2,2,1,third,9,21,male,R,Donders,2021-07-14_09h34.05.063,ImageRatingTask_S3,2021.1.4,Win32,60.0240096,,,,,,,,,
,,,,,,,,,,,,0,3,3,3,1,fourth,9,21,male,R,Donders,2021-07-14_09h34.05.063,ImageRatingTask_S3,2021.1.4,Win32,60.0240096,,,,,,,,,
,,,,,,,,,,,,0,4,4,4,1,fifth,9,21,male,R,Donders,2021-07-14_09h34.05.063,ImageRatingTask_S3,2021.1.4,Win32,60.0240096,,,,,,,,,
,,,,,,,,,,,,0,5,5,5,1,sixth,9,21,male,R,Donders,2021-07-14_09h34.05.063,ImageRatingTask_S3,2021.1.4,Win32,60.0240096,,,,,,,,,
,,,,,,,,,,,,0,6,6,6,1,seventh,9,21,male,R,Donders,2021-07-14_09h34.05.063,ImageRatingTask_S3,2021.1.4,Win32,60.0240096,,,,,,,,,
,,,,,,,,,,,,0,7,7,7,1,last,9,21,male,R,Donders,2021-07-14_09h34.05.063,ImageRatingTask_S3,2021.1.4,Win32,60.0240096,,,,,,,,,
,,,,,,,,,,,,,,,,,,9,21,male,R,Donders,2021-07-14_09h34.05.063,ImageRatingTask_S3,2021.1.4,Win32,60.0240096,0,73,73,42,1,DreamStudyImages_rs1000x750g/Children/People_049_h.jpg,,,
,,1,1.8894,8,0.525,4,1.1759,1,2.3765,2,0.1449,0,0,0,0,1,main,9,21,male,R,Donders,2021-07-14_09h34.05.063,ImageRatingTask_S3,2021.1.4,Win32,60.0240096,,,,,,,,,
,,,,,,,,,,,,0,1,1,1,1,second,9,21,male,R,Donders,2021-07-14_09h34.05.063,ImageRatingTask_S3,2021.1.4,Win32,60.0240096,,,,,,,,,
,,,,,,,,,,,,0,2,2,2,1,third,9,21,male,R,Donders,2021-07-14_09h34.05.063,ImageRatingTask_S3,2021.1.4,Win32,60.0240096,,,,,,,,,
,,,,,,,,,,,,0,3,3,3,1,fourth,9,21,male,R,Donders,2021-07-14_09h34.05.063,ImageRatingTask_S3,2021.1.4,Win32,60.0240096,,,,,,,,,
,,,,,,,,,,,,0,4,4,4,1,fifth,9,21,male,R,Donders,2021-07-14_09h34.05.063,ImageRatingTask_S3,2021.1.4,Win32,60.0240096,,,,,,,,,
,,,,,,,,,,,,0,5,5,5,1,sixth,9,21,male,R,Donders,2021-07-14_09h34.05.063,ImageRatingTask_S3,2021.1.4,Win32,60.0240096,,,,,,,,,
,,,,,,,,,,,,0,6,6,6,1,seventh,9,21,male,R,Donders,2021-07-14_09h34.05.063,ImageRatingTask_S3,2021.1.4,Win32,60.0240096,,,,,,,,,
,,,,,,,,,,,,0,7,7,7,1,last,9,21,male,R,Donders,2021-07-14_09h34.05.063,ImageRatingTask_S3,2021.1.4,Win32,60.0240096,,,,,,,,,
,,,,,,,,,,,,,,,,,,9,21,male,R,Donders,2021-07-14_09h34.05.063,ImageRatingTask_S3,2021.1.4,Win32,60.0240096,0,74,74,137,1,DreamStudyImages_rs1000x750g/Children/Faces_032_h.jpg,,,
,,3,2.2937,7,0.9545,4,1.4932,2,2.2929,4,1.0791,0,0,0,0,1,main,9,21,male,R,Donders,2021-07-14_09h34.05.063,ImageRatingTask_S3,2021.1.4,Win32,60.0240096,,,,,,,,,
,,,,,,,,,,5,0.1509,0,1,1,1,1,second,9,21,male,R,Donders,2021-07-14_09h34.05.063,ImageRatingTask_S3,2021.1.4,Win32,60.0240096,,,,,,,,,
,,,,,,,,,,,,0,2,2,2,1,third,9,21,male,R,Donders,2021-07-14_09h34.05.063,ImageRatingTask_S3,2021.1.4,Win32,60.0240096,,,,,,,,,
,,,,,,,,,,,,0,3,3,3,1,fourth,9,21,male,R,Donders,2021-07-14_09h34.05.063,ImageRatingTask_S3,2021.1.4,Win32,60.0240096,,,,,,,,,
,,,,,,,,,,,,0,4,4,4,1,fifth,9,21,male,R,Donders,2021-07-14_09h34.05.063,ImageRatingTask_S3,2021.1.4,Win32,60.0240096,,,,,,,,,
,,,,,,,,,,,,0,5,5,5,1,sixth,9,21,male,R,Donders,2021-07-14_09h34.05.063,ImageRatingTask_S3,2021.1.4,Win32,60.0240096,,,,,,,,,
,,,,,,,,,,,,0,6,6,6,1,seventh,9,21,male,R,Donders,2021-07-14_09h34.05.063,ImageRatingTask_S3,2021.1.4,Win32,60.0240096,,,,,,,,,
,,,,,,,,,,,,0,7,7,7,1,last,9,21,male,R,Donders,2021-07-14_09h34.05.063,ImageRatingTask_S3,2021.1.4,Win32,60.0240096,,,,,,,,,
,,,,,,,,,,,,,,,,,,9,21,male,R,Donders,2021-07-14_09h34.05.063,ImageRatingTask_S3,2021.1.4,Win32,60.0240096,0,75,75,2,1,DreamStudyImages_rs1000x750g/Food/Objects_006_h.jpg,,,
,,6,1.6384,1,0.9618,4,1.6341,1,2.0061,2,0.1372,0,0,0,0,1,main,9,21,male,R,Donders,2021-07-14_09h34.05.063,ImageRatingTask_S3,2021.1.4,Win32,60.0240096,,,,,,,,,
,,,,,,,,,,,,0,1,1,1,1,second,9,21,male,R,Donders,2021-07-14_09h34.05.063,ImageRatingTask_S3,2021.1.4,Win32,60.0240096,,,,,,,,,
,,,,,,,,,,,,0,2,2,2,1,third,9,21,male,R,Donders,2021-07-14_09h34.05.063,ImageRatingTask_S3,2021.1.4,Win32,60.0240096,,,,,,,,,
,,,,,,,,,,,,0,3,3,3,1,fourth,9,21,male,R,Donders,2021-07-14_09h34.05.063,ImageRatingTask_S3,2021.1.4,Win32,60.0240096,,,,,,,,,
,,,,,,,,,,,,0,4,4,4,1,fifth,9,21,male,R,Donders,2021-07-14_09h34.05.063,ImageRatingTask_S3,2021.1.4,Win32,60.0240096,,,,,,,,,
,,,,,,,,,,,,0,5,5,5,1,sixth,9,21,male,R,Donders,2021-07-14_09h34.05.063,ImageRatingTask_S3,2021.1.4,Win32,60.0240096,,,,,,,,,
,,,,,,,,,,,,0,6,6,6,1,seventh,9,21,male,R,Donders,2021-07-14_09h34.05.063,ImageRatingTask_S3,2021.1.4,Win32,60.0240096,,,,,,,,,
,,,,,,,,,,,,0,7,7,7,1,last,9,21,male,R,Donders,2021-07-14_09h34.05.063,ImageRatingTask_S3,2021.1.4,Win32,60.0240096,,,,,,,,,
,,,,,,,,,,,,,,,,,,9,21,male,R,Donders,2021-07-14_09h34.05.063,ImageRatingTask_S3,2021.1.4,Win32,60.0240096,0,76,76,58,1,DreamStudyImages_rs1000x750g/Children/2045.jpg,,,
,,7,3.878,2,2.9761,7,1.3591,2,0.8986,8,0.9141,0,0,0,0,1,main,9,21,male,R,Donders,2021-07-14_09h34.05.063,ImageRatingTask_S3,2021.1.4,Win32,60.0240096,,,,,,,,,
,,,,,,,,,,6,0.9513,0,1,1,1,1,second,9,21,male,R,Donders,2021-07-14_09h34.05.063,ImageRatingTask_S3,2021.1.4,Win32,60.0240096,,,,,,,,,
,,,,,,,,,,,,0,2,2,2,1,third,9,21,male,R,Donders,2021-07-14_09h34.05.063,ImageRatingTask_S3,2021.1.4,Win32,60.0240096,,,,,,,,,
,,,,,,,,,,,,0,3,3,3,1,fourth,9,21,male,R,Donders,2021-07-14_09h34.05.063,ImageRatingTask_S3,2021.1.4,Win32,60.0240096,,,,,,,,,
,,,,,,,,,,,,0,4,4,4,1,fifth,9,21,male,R,Donders,2021-07-14_09h34.05.063,ImageRatingTask_S3,2021.1.4,Win32,60.0240096,,,,,,,,,
,,,,,,,,,,,,0,5,5,5,1,sixth,9,21,male,R,Donders,2021-07-14_09h34.05.063,ImageRatingTask_S3,2021.1.4,Win32,60.0240096,,,,,,,,,
,,,,,,,,,,,,0,6,6,6,1,seventh,9,21,male,R,Donders,2021-07-14_09h34.05.063,ImageRatingTask_S3,2021.1.4,Win32,60.0240096,,,,,,,,,
,,,,,,,,,,,,0,7,7,7,1,last,9,21,male,R,Donders,2021-07-14_09h34.05.063,ImageRatingTask_S3,2021.1.4,Win32,60.0240096,,,,,,,,,
,,,,,,,,,,,,,,,,,,9,21,male,R,Donders,2021-07-14_09h34.05.063,ImageRatingTask_S3,2021.1.4,Win32,60.0240096,0,77,77,17,1,DreamStudyImages_rs1000x750g/Water/seacliffbridge.jpg,,,
,,7,1.5092,1,0.7991,5,1.6287,1,0.913,2,0.2773,0,0,0,0,1,main,9,21,male,R,Donders,2021-07-14_09h34.05.063,ImageRatingTask_S3,2021.1.4,Win32,60.0240096,,,,,,,,,
,,,,,,,,,,,,0,1,1,1,1,second,9,21,male,R,Donders,2021-07-14_09h34.05.063,ImageRatingTask_S3,2021.1.4,Win32,60.0240096,,,,,,,,,
,,,,,,,,,,,,0,2,2,2,1,third,9,21,male,R,Donders,2021-07-14_09h34.05.063,ImageRatingTask_S3,2021.1.4,Win32,60.0240096,,,,,,,,,
,,,,,,,,,,,,0,3,3,3,1,fourth,9,21,male,R,Donders,2021-07-14_09h34.05.063,ImageRatingTask_S3,2021.1.4,Win32,60.0240096,,,,,,,,,
,,,,,,,,,,,,0,4,4,4,1,fifth,9,21,male,R,Donders,2021-07-14_09h34.05.063,ImageRatingTask_S3,2021.1.4,Win32,60.0240096,,,,,,,,,
,,,,,,,,,,,,0,5,5,5,1,sixth,9,21,male,R,Donders,2021-07-14_09h34.05.063,ImageRatingTask_S3,2021.1.4,Win32,60.0240096,,,,,,,,,
,,,,,,,,,,,,0,6,6,6,1,seventh,9,21,male,R,Donders,2021-07-14_09h34.05.063,ImageRatingTask_S3,2021.1.4,Win32,60.0240096,,,,,,,,,
,,,,,,,,,,,,0,7,7,7,1,last,9,21,male,R,Donders,2021-07-14_09h34.05.063,ImageRatingTask_S3,2021.1.4,Win32,60.0240096,,,,,,,,,
,,,,,,,,,,,,,,,,,,9,21,male,R,Donders,2021-07-14_09h34.05.063,ImageRatingTask_S3,2021.1.4,Win32,60.0240096,0,78,78,57,1,DreamStudyImages_rs1000x750g/Children/IAPS2314_girl8.jpg,,,
,,6,4.8087,1,0.7894,4,1.8041,1,0.9127,3,0.3969,0,0,0,0,1,main,9,21,male,R,Donders,2021-07-14_09h34.05.063,ImageRatingTask_S3,2021.1.4,Win32,60.0240096,,,,,,,,,
,,,,,,,,,,,,0,1,1,1,1,second,9,21,male,R,Donders,2021-07-14_09h34.05.063,ImageRatingTask_S3,2021.1.4,Win32,60.0240096,,,,,,,,,
,,,,,,,,,,,,0,2,2,2,1,third,9,21,male,R,Donders,2021-07-14_09h34.05.063,ImageRatingTask_S3,2021.1.4,Win32,60.0240096,,,,,,,,,
,,,,,,,,,,,,0,3,3,3,1,fourth,9,21,male,R,Donders,2021-07-14_09h34.05.063,ImageRatingTask_S3,2021.1.4,Win32,60.0240096,,,,,,,,,
,,,,,,,,,,,,0,4,4,4,1,fifth,9,21,male,R,Donders,2021-07-14_09h34.05.063,ImageRatingTask_S3,2021.1.4,Win32,60.0240096,,,,,,,,,
,,,,,,,,,,,,0,5,5,5,1,sixth,9,21,male,R,Donders,2021-07-14_09h34.05.063,ImageRatingTask_S3,2021.1.4,Win32,60.0240096,,,,,,,,,
,,,,,,,,,,,,0,6,6,6,1,seventh,9,21,male,R,Donders,2021-07-14_09h34.05.063,ImageRatingTask_S3,2021.1.4,Win32,60.0240096,,,,,,,,,
,,,,,,,,,,,,0,7,7,7,1,last,9,21,male,R,Donders,2021-07-14_09h34.05.063,ImageRatingTask_S3,2021.1.4,Win32,60.0240096,,,,,,,,,
,,,,,,,,,,,,,,,,,,9,21,male,R,Donders,2021-07-14_09h34.05.063,ImageRatingTask_S3,2021.1.4,Win32,60.0240096,0,79,79,91,1,DreamStudyImages_rs1000x750g/Mammals/Animals_214_h.jpg,,,
,,4,4.4264,2,0.4602,3,2.062,1,5.6238,5,0.4612,0,0,0,0,1,main,9,21,male,R,Donders,2021-07-14_09h34.05.063,ImageRatingTask_S3,2021.1.4,Win32,60.0240096,,,,,,,,,
,,,,,,,,,,,,0,1,1,1,1,second,9,21,male,R,Donders,2021-07-14_09h34.05.063,ImageRatingTask_S3,2021.1.4,Win32,60.0240096,,,,,,,,,
,,,,,,,,,,,,0,2,2,2,1,third,9,21,male,R,Donders,2021-07-14_09h34.05.063,ImageRatingTask_S3,2021.1.4,Win32,60.0240096,,,,,,,,,
,,,,,,,,,,,,0,3,3,3,1,fourth,9,21,male,R,Donders,2021-07-14_09h34.05.063,ImageRatingTask_S3,2021.1.4,Win32,60.0240096,,,,,,,,,
,,,,,,,,,,,,0,4,4,4,1,fifth,9,21,male,R,Donders,2021-07-14_09h34.05.063,ImageRatingTask_S3,2021.1.4,Win32,60.0240096,,,,,,,,,
,,,,,,,,,,,,0,5,5,5,1,sixth,9,21,male,R,Donders,2021-07-14_09h34.05.063,ImageRatingTask_S3,2021.1.4,Win32,60.0240096,,,,,,,,,
,,,,,,,,,,,,0,6,6,6,1,seventh,9,21,male,R,Donders,2021-07-14_09h34.05.063,ImageRatingTask_S3,2021.1.4,Win32,60.0240096,,,,,,,,,
,,,,,,,,,,,,0,7,7,7,1,last,9,21,male,R,Donders,2021-07-14_09h34.05.063,ImageRatingTask_S3,2021.1.4,Win32,60.0240096,,,,,,,,,
,,,,,,,,,,,,,,,,,,9,21,male,R,Donders,2021-07-14_09h34.05.063,ImageRatingTask_S3,2021.1.4,Win32,60.0240096,0,80,80,26,1,DreamStudyImages_rs1000x750g/Food/Objects_133_h.jpg,,,
,,3,2.1932,6,0.7842,4,2.727,1,0.491,2,0.345,0,0,0,0,1,main,9,21,male,R,Donders,2021-07-14_09h34.05.063,ImageRatingTask_S3,2021.1.4,Win32,60.0240096,,,,,,,,,
,,,,,,,,,,,,0,1,1,1,1,second,9,21,male,R,Donders,2021-07-14_09h34.05.063,ImageRatingTask_S3,2021.1.4,Win32,60.0240096,,,,,,,,,
,,,,,,,,,,,,0,2,2,2,1,third,9,21,male,R,Donders,2021-07-14_09h34.05.063,ImageRatingTask_S3,2021.1.4,Win32,60.0240096,,,,,,,,,
