test_key_val.keys,test_key_val.rt,test_key_aro.keys,test_key_aro.rt,test_key_qual.keys,test_key_qual.rt,test_key_ncat.keys,test_key_ncat.rt,test_key_cats.keys,test_key_cats.rt,test_ncat_order.thisRepN,test_ncat_order.thisTrialN,test_ncat_order.thisN,test_ncat_order.thisIndex,test_ncat_order.ran,cond_cat,participant,age,gender,handedness (L/R),site (IMT/Donders),date,expName,psychopyVersion,OS,frameRate,test_trials.thisRepN,test_trials.thisTrialN,test_trials.thisN,test_trials.thisIndex,test_trials.ran,test_filename,link,copyright,slider_pre.response,slider_pre.rt,key_val.keys,key_val.rt,key_aro.keys,key_aro.rt,key_qual.keys,key_qual.rt,key_ncat.keys,key_ncat.rt,key_cats.keys,key_cats.rt,ncat_order.thisRepN,ncat_order.thisTrialN,ncat_order.thisN,ncat_order.thisIndex,ncat_order.ran,img_trials.thisRepN,img_trials.thisTrialN,img_trials.thisN,img_trials.thisIndex,img_trials.ran,filename,slider_post.response,slider_post.rt,textbox_openfb.text
4,4.2963,2,2.0922,7,2.4891,1,5.2778,7,1.1872,0,0,0,0,1,main,9,21,Male,R,Donders,2021-07-13_22h57.58.266,ImageRatingTask_S1,2021.1.4,Win32,59.91970759,,,,,,,,,,,,,,,,,,,,,,,,,,,,,,,,,,
,,,,,,,,,,0,1,1,1,1,second,9,21,Male,R,Donders,2021-07-13_22h57.58.266,ImageRatingTask_S1,2021.1.4,Win32,59.91970759,,,,,,,,,,,,,,,,,,,,,,,,,,,,,,,,,,
,,,,,,,,,,0,2,2,2,1,third,9,21,Male,R,Donders,2021-07-13_22h57.58.266,ImageRatingTask_S1,2021.1.4,Win32,59.91970759,,,,,,,,,,,,,,,,,,,,,,,,,,,,,,,,,,
,,,,,,,,,,0,3,3,3,1,fourth,9,21,Male,R,Donders,2021-07-13_22h57.58.266,ImageRatingTask_S1,2021.1.4,Win32,59.91970759,,,,,,,,,,,,,,,,,,,,,,,,,,,,,,,,,,
,,,,,,,,,,0,4,4,4,1,fifth,9,21,Male,R,Donders,2021-07-13_22h57.58.266,ImageRatingTask_S1,2021.1.4,Win32,59.91970759,,,,,,,,,,,,,,,,,,,,,,,,,,,,,,,,,,
,,,,,,,,,,0,5,5,5,1,sixth,9,21,Male,R,Donders,2021-07-13_22h57.58.266,ImageRatingTask_S1,2021.1.4,Win32,59.91970759,,,,,,,,,,,,,,,,,,,,,,,,,,,,,,,,,,
,,,,,,,,,,0,6,6,6,1,seventh,9,21,Male,R,Donders,2021-07-13_22h57.58.266,ImageRatingTask_S1,2021.1.4,Win32,59.91970759,,,,,,,,,,,,,,,,,,,,,,,,,,,,,,,,,,
,,,,,,,,,,0,7,7,7,1,last,9,21,Male,R,Donders,2021-07-13_22h57.58.266,ImageRatingTask_S1,2021.1.4,Win32,59.91970759,,,,,,,,,,,,,,,,,,,,,,,,,,,,,,,,,,
,,,,,,,,,,,,,,,,9,21,Male,R,Donders,2021-07-13_22h57.58.266,ImageRatingTask_S1,2021.1.4,Win32,59.91970759,0,0,0,3,1,test4.jpg,https://www.flickr.com/photos/8782469@N05/33550256294/in/photolist-T7HQjJ-6bL62X-gQ2ptt-eARbhf-dbgLvQ-uKUpgG-e6GNPD-e6iDuV-RwYJie-Ur28At-u6Dvwk-fwts3x-CgqS5E-dgJSNE-fwHPg9-bFQoWv-9qgCN-TQZT7E-475QF-v3ZBG9-v5TFQL-aQVeNV-49XCzE-e5Va7j-v3WosE-5jvzS-cBxjA5-fwJ2P3-TP86kq-eREpVC-rMTQZx-Um3k-ajziHj-CgqSzN-dgP2Ci-e6putY-652ZqG-eARzQm-6ikz1-vrGjvh-Chgvpm-pFFnYq-8bKoVw-eAsukg-daANXC-MwMMfW-5ArWsa-GMcDmn-bLo6CH-9KgagR,CC BY 2.0,,,,,,,,,,,,,,,,,,,,,,,,,,
7,4.0882,2,1.856,8,2.8806,0,9.0953,,,0,0,0,0,1,main,9,21,Male,R,Donders,2021-07-13_22h57.58.266,ImageRatingTask_S1,2021.1.4,Win32,59.91970759,,,,,,,,,,,,,,,,,,,,,,,,,,,,,,,,,,
,,,,,,,,,,0,1,1,1,1,second,9,21,Male,R,Donders,2021-07-13_22h57.58.266,ImageRatingTask_S1,2021.1.4,Win32,59.91970759,,,,,,,,,,,,,,,,,,,,,,,,,,,,,,,,,,
,,,,,,,,,,0,2,2,2,1,third,9,21,Male,R,Donders,2021-07-13_22h57.58.266,ImageRatingTask_S1,2021.1.4,Win32,59.91970759,,,,,,,,,,,,,,,,,,,,,,,,,,,,,,,,,,
,,,,,,,,,,0,3,3,3,1,fourth,9,21,Male,R,Donders,2021-07-13_22h57.58.266,ImageRatingTask_S1,2021.1.4,Win32,59.91970759,,,,,,,,,,,,,,,,,,,,,,,,,,,,,,,,,,
,,,,,,,,,,0,4,4,4,1,fifth,9,21,Male,R,Donders,2021-07-13_22h57.58.266,ImageRatingTask_S1,2021.1.4,Win32,59.91970759,,,,,,,,,,,,,,,,,,,,,,,,,,,,,,,,,,
,,,,,,,,,,0,5,5,5,1,sixth,9,21,Male,R,Donders,2021-07-13_22h57.58.266,ImageRatingTask_S1,2021.1.4,Win32,59.91970759,,,,,,,,,,,,,,,,,,,,,,,,,,,,,,,,,,
,,,,,,,,,,0,6,6,6,1,seventh,9,21,Male,R,Donders,2021-07-13_22h57.58.266,ImageRatingTask_S1,2021.1.4,Win32,59.91970759,,,,,,,,,,,,,,,,,,,,,,,,,,,,,,,,,,
,,,,,,,,,,0,7,7,7,1,last,9,21,Male,R,Donders,2021-07-13_22h57.58.266,ImageRatingTask_S1,2021.1.4,Win32,59.91970759,,,,,,,,,,,,,,,,,,,,,,,,,,,,,,,,,,
,,,,,,,,,,,,,,,,9,21,Male,R,Donders,2021-07-13_22h57.58.266,ImageRatingTask_S1,2021.1.4,Win32,59.91970759,0,1,1,4,1,test5.jpg,https://www.flickr.com/photos/silkebaron/2778692021/in/photolist-5exwk8-CeHF3S-5gg796-95cM2x-LGUrp7-oFgB6-2k7B5QN-aufKzz-hn8Di-8A3htc-8EagiU-4Hvk3Y-2b7s1f8-KSEPr-KSseq-KSrU3-KSu4o-KSsS3-Tp6nDS-KSCUM-VpC5Br-4j8meK-bdrepT-7GRM78-e6Zw96-8cCPed-9ANgBi-oFg73-2GGRxm-5dcivP-7sa8oG-2GGRzW-7CFUnh-3giGx-5Bz4op-3gTuGh-5cSvq6-pUnXj-hwTpWT-48n3iY-e5zg7q-7u7zP8-49195x-3iQDe9-aL7cWX-5exvLk-48n2Yy-toytsg-rw5VR-78NSA2,CC BY 2.0,,,,,,,,,,,,,,,,,,,,,,,,,,
8,6.143,4,1.907,8,3.1093,3,8.4281,1,1.0677,0,0,0,0,1,main,9,21,Male,R,Donders,2021-07-13_22h57.58.266,ImageRatingTask_S1,2021.1.4,Win32,59.91970759,,,,,,,,,,,,,,,,,,,,,,,,,,,,,,,,,,
,,,,,,,,3,0.5484,0,1,1,1,1,second,9,21,Male,R,Donders,2021-07-13_22h57.58.266,ImageRatingTask_S1,2021.1.4,Win32,59.91970759,,,,,,,,,,,,,,,,,,,,,,,,,,,,,,,,,,
,,,,,,,,7,0.8895,0,2,2,2,1,third,9,21,Male,R,Donders,2021-07-13_22h57.58.266,ImageRatingTask_S1,2021.1.4,Win32,59.91970759,,,,,,,,,,,,,,,,,,,,,,,,,,,,,,,,,,
,,,,,,,,,,0,3,3,3,1,fourth,9,21,Male,R,Donders,2021-07-13_22h57.58.266,ImageRatingTask_S1,2021.1.4,Win32,59.91970759,,,,,,,,,,,,,,,,,,,,,,,,,,,,,,,,,,
,,,,,,,,,,0,4,4,4,1,fifth,9,21,Male,R,Donders,2021-07-13_22h57.58.266,ImageRatingTask_S1,2021.1.4,Win32,59.91970759,,,,,,,,,,,,,,,,,,,,,,,,,,,,,,,,,,
,,,,,,,,,,0,5,5,5,1,sixth,9,21,Male,R,Donders,2021-07-13_22h57.58.266,ImageRatingTask_S1,2021.1.4,Win32,59.91970759,,,,,,,,,,,,,,,,,,,,,,,,,,,,,,,,,,
,,,,,,,,,,0,6,6,6,1,seventh,9,21,Male,R,Donders,2021-07-13_22h57.58.266,ImageRatingTask_S1,2021.1.4,Win32,59.91970759,,,,,,,,,,,,,,,,,,,,,,,,,,,,,,,,,,
,,,,,,,,,,0,7,7,7,1,last,9,21,Male,R,Donders,2021-07-13_22h57.58.266,ImageRatingTask_S1,2021.1.4,Win32,59.91970759,,,,,,,,,,,,,,,,,,,,,,,,,,,,,,,,,,
,,,,,,,,,,,,,,,,9,21,Male,R,Donders,2021-07-13_22h57.58.266,ImageRatingTask_S1,2021.1.4,Win32,59.91970759,0,2,2,2,1,test3.jpg,https://www.flickr.com/photos/7487886@N04/35810127921/in/photolist-WyqgqD-DQSoP-6SrFCE-39ywib-39Bezs-9gt8aT-9gt83Z-eEgA9B-KnLx9-9gt8dK-HXwdie-2b6FA2g-4ekt5k-9ECfRg-2Zr5GQ-2Zr5mC-2Zr6kW-2Zr5Xu-2Zmyac-98TgbK-7U5XRj-am4oXb-98ThEB-2Bw3gh-vXo6D-Wt9U8o-DGiErb-DGiEqE-2m3CpV6-6E2aGG-6DXgqc-4PC3pQ-6HwMbx-dHYvkg-a2ycs-JLvMv-7k6DhM-bA81AL-8zwPFe-5nMrZu-3Ep2da-nhhd2L-DvDkr-81RkjZ-E1HXA-GzGH8Z-83vZYf-9krgXK-5nMxuU-DGiEqu,CC BY-NC 2.0,,,,,,,,,,,,,,,,,,,,,,,,,,
7,3.4504,1,1.6258,6,2.392,3,6.6455,8,1.0482,0,0,0,0,1,main,9,21,Male,R,Donders,2021-07-13_22h57.58.266,ImageRatingTask_S1,2021.1.4,Win32,59.91970759,,,,,,,,,,,,,,,,,,,,,,,,,,,,,,,,,,
,,,,,,,,1,0.6187,0,1,1,1,1,second,9,21,Male,R,Donders,2021-07-13_22h57.58.266,ImageRatingTask_S1,2021.1.4,Win32,59.91970759,,,,,,,,,,,,,,,,,,,,,,,,,,,,,,,,,,
,,,,,,,,2,0.1853,0,2,2,2,1,third,9,21,Male,R,Donders,2021-07-13_22h57.58.266,ImageRatingTask_S1,2021.1.4,Win32,59.91970759,,,,,,,,,,,,,,,,,,,,,,,,,,,,,,,,,,
,,,,,,,,,,0,3,3,3,1,fourth,9,21,Male,R,Donders,2021-07-13_22h57.58.266,ImageRatingTask_S1,2021.1.4,Win32,59.91970759,,,,,,,,,,,,,,,,,,,,,,,,,,,,,,,,,,
,,,,,,,,,,0,4,4,4,1,fifth,9,21,Male,R,Donders,2021-07-13_22h57.58.266,ImageRatingTask_S1,2021.1.4,Win32,59.91970759,,,,,,,,,,,,,,,,,,,,,,,,,,,,,,,,,,
,,,,,,,,,,0,5,5,5,1,sixth,9,21,Male,R,Donders,2021-07-13_22h57.58.266,ImageRatingTask_S1,2021.1.4,Win32,59.91970759,,,,,,,,,,,,,,,,,,,,,,,,,,,,,,,,,,
,,,,,,,,,,0,6,6,6,1,seventh,9,21,Male,R,Donders,2021-07-13_22h57.58.266,ImageRatingTask_S1,2021.1.4,Win32,59.91970759,,,,,,,,,,,,,,,,,,,,,,,,,,,,,,,,,,
,,,,,,,,,,0,7,7,7,1,last,9,21,Male,R,Donders,2021-07-13_22h57.58.266,ImageRatingTask_S1,2021.1.4,Win32,59.91970759,,,,,,,,,,,,,,,,,,,,,,,,,,,,,,,,,,
,,,,,,,,,,,,,,,,9,21,Male,R,Donders,2021-07-13_22h57.58.266,ImageRatingTask_S1,2021.1.4,Win32,59.91970759,0,3,3,0,1,test1.jpg,https://www.flickr.com/photos/julzyax1/8713189147/in/photolist-egXnz6-Kg97g6-paYQjg-cDWcvy-e84vQU-fyRQKZ-dzuwVL-nzCPJw-dzp3r6-SXXSvw-aEgXGF-dzp1D8-aEgZ6F-prcoQG-aEgYd8-dt9EJ8-qTHZUL-dX8ut3-6eqh7x-aEkMyA-avjf71-6eqgKg-pNpDbJ-6euqa5-bo2EMC-q8hCLb-od8yyX-daaz4w-26cjVxB-CXaGmV-C7hSHf-aqmunq-9ek8a1-YcbBUe-apPWHB-HnB8rt-pHQLfh-8YgHaC-aqHteN-d5THbj-5dgTxP-afp2aV-8hNoSm-qhSjJS-d5TqoA-98WoKM-cjnSxo-9b4u7a-d5Tnzf-f7AETL,CC BY-NC 2.0,,,,,,,,,,,,,,,,,,,,,,,,,,
9,3.445,5,1.9248,6,2.0583,2,5.6054,2,0.831,0,0,0,0,1,main,9,21,Male,R,Donders,2021-07-13_22h57.58.266,ImageRatingTask_S1,2021.1.4,Win32,59.91970759,,,,,,,,,,,,,,,,,,,,,,,,,,,,,,,,,,
,,,,,,,,5,1.3362,0,1,1,1,1,second,9,21,Male,R,Donders,2021-07-13_22h57.58.266,ImageRatingTask_S1,2021.1.4,Win32,59.91970759,,,,,,,,,,,,,,,,,,,,,,,,,,,,,,,,,,
,,,,,,,,,,0,2,2,2,1,third,9,21,Male,R,Donders,2021-07-13_22h57.58.266,ImageRatingTask_S1,2021.1.4,Win32,59.91970759,,,,,,,,,,,,,,,,,,,,,,,,,,,,,,,,,,
,,,,,,,,,,0,3,3,3,1,fourth,9,21,Male,R,Donders,2021-07-13_22h57.58.266,ImageRatingTask_S1,2021.1.4,Win32,59.91970759,,,,,,,,,,,,,,,,,,,,,,,,,,,,,,,,,,
,,,,,,,,,,0,4,4,4,1,fifth,9,21,Male,R,Donders,2021-07-13_22h57.58.266,ImageRatingTask_S1,2021.1.4,Win32,59.91970759,,,,,,,,,,,,,,,,,,,,,,,,,,,,,,,,,,
,,,,,,,,,,0,5,5,5,1,sixth,9,21,Male,R,Donders,2021-07-13_22h57.58.266,ImageRatingTask_S1,2021.1.4,Win32,59.91970759,,,,,,,,,,,,,,,,,,,,,,,,,,,,,,,,,,
,,,,,,,,,,0,6,6,6,1,seventh,9,21,Male,R,Donders,2021-07-13_22h57.58.266,ImageRatingTask_S1,2021.1.4,Win32,59.91970759,,,,,,,,,,,,,,,,,,,,,,,,,,,,,,,,,,
,,,,,,,,,,0,7,7,7,1,last,9,21,Male,R,Donders,2021-07-13_22h57.58.266,ImageRatingTask_S1,2021.1.4,Win32,59.91970759,,,,,,,,,,,,,,,,,,,,,,,,,,,,,,,,,,
,,,,,,,,,,,,,,,,9,21,Male,R,Donders,2021-07-13_22h57.58.266,ImageRatingTask_S1,2021.1.4,Win32,59.91970759,0,4,4,1,1,test2.jpg,https://www.flickr.com/photos/cavalier92/16036265548/,CC BY-NC-ND 2.0,,,,,,,,,,,,,,,,,,,,,,,,,,
,,,,,,,,,,,,,,,main,9,21,Male,R,Donders,2021-07-13_22h57.58.266,ImageRatingTask_S1,2021.1.4,Win32,59.91970759,,,,,,,,,6,10.4222,7,2.6447,2,1.5471,7,3.2762,1,2.807,2,0.3931,0,0,0,0,1,,,,,,,,,
,,,,,,,,,,,,,,,second,9,21,Male,R,Donders,2021-07-13_22h57.58.266,ImageRatingTask_S1,2021.1.4,Win32,59.91970759,,,,,,,,,,,,,,,,,,,,,0,1,1,1,1,,,,,,,,,
,,,,,,,,,,,,,,,third,9,21,Male,R,Donders,2021-07-13_22h57.58.266,ImageRatingTask_S1,2021.1.4,Win32,59.91970759,,,,,,,,,,,,,,,,,,,,,0,2,2,2,1,,,,,,,,,
,,,,,,,,,,,,,,,fourth,9,21,Male,R,Donders,2021-07-13_22h57.58.266,ImageRatingTask_S1,2021.1.4,Win32,59.91970759,,,,,,,,,,,,,,,,,,,,,0,3,3,3,1,,,,,,,,,
,,,,,,,,,,,,,,,fifth,9,21,Male,R,Donders,2021-07-13_22h57.58.266,ImageRatingTask_S1,2021.1.4,Win32,59.91970759,,,,,,,,,,,,,,,,,,,,,0,4,4,4,1,,,,,,,,,
,,,,,,,,,,,,,,,sixth,9,21,Male,R,Donders,2021-07-13_22h57.58.266,ImageRatingTask_S1,2021.1.4,Win32,59.91970759,,,,,,,,,,,,,,,,,,,,,0,5,5,5,1,,,,,,,,,
,,,,,,,,,,,,,,,seventh,9,21,Male,R,Donders,2021-07-13_22h57.58.266,ImageRatingTask_S1,2021.1.4,Win32,59.91970759,,,,,,,,,,,,,,,,,,,,,0,6,6,6,1,,,,,,,,,
,,,,,,,,,,,,,,,last,9,21,Male,R,Donders,2021-07-13_22h57.58.266,ImageRatingTask_S1,2021.1.4,Win32,59.91970759,,,,,,,,,,,,,,,,,,,,,0,7,7,7,1,,,,,,,,,
,,,,,,,,,,,,,,,,9,21,Male,R,Donders,2021-07-13_22h57.58.266,ImageRatingTask_S1,2021.1.4,Win32,59.91970759,,,,,,,,,,,,,,,,,,,,,,,,,,0,0,0,109,1,DreamStudyImages_rs1000x750g/Children/Baby 2.jpg,,,
,,,,,,,,,,,,,,,main,9,21,Male,R,Donders,2021-07-13_22h57.58.266,ImageRatingTask_S1,2021.1.4,Win32,59.91970759,,,,,,,,,,,1,2.3827,1,2.3019,7,1.5227,1,2.6051,7,0.7434,0,0,0,0,1,,,,,,,,,
,,,,,,,,,,,,,,,second,9,21,Male,R,Donders,2021-07-13_22h57.58.266,ImageRatingTask_S1,2021.1.4,Win32,59.91970759,,,,,,,,,,,,,,,,,,,,,0,1,1,1,1,,,,,,,,,
,,,,,,,,,,,,,,,third,9,21,Male,R,Donders,2021-07-13_22h57.58.266,ImageRatingTask_S1,2021.1.4,Win32,59.91970759,,,,,,,,,,,,,,,,,,,,,0,2,2,2,1,,,,,,,,,
,,,,,,,,,,,,,,,fourth,9,21,Male,R,Donders,2021-07-13_22h57.58.266,ImageRatingTask_S1,2021.1.4,Win32,59.91970759,,,,,,,,,,,,,,,,,,,,,0,3,3,3,1,,,,,,,,,
,,,,,,,,,,,,,,,fifth,9,21,Male,R,Donders,2021-07-13_22h57.58.266,ImageRatingTask_S1,2021.1.4,Win32,59.91970759,,,,,,,,,,,,,,,,,,,,,0,4,4,4,1,,,,,,,,,
,,,,,,,,,,,,,,,sixth,9,21,Male,R,Donders,2021-07-13_22h57.58.266,ImageRatingTask_S1,2021.1.4,Win32,59.91970759,,,,,,,,,,,,,,,,,,,,,0,5,5,5,1,,,,,,,,,
,,,,,,,,,,,,,,,seventh,9,21,Male,R,Donders,2021-07-13_22h57.58.266,ImageRatingTask_S1,2021.1.4,Win32,59.91970759,,,,,,,,,,,,,,,,,,,,,0,6,6,6,1,,,,,,,,,
,,,,,,,,,,,,,,,last,9,21,Male,R,Donders,2021-07-13_22h57.58.266,ImageRatingTask_S1,2021.1.4,Win32,59.91970759,,,,,,,,,,,,,,,,,,,,,0,7,7,7,1,,,,,,,,,
,,,,,,,,,,,,,,,,9,21,Male,R,Donders,2021-07-13_22h57.58.266,ImageRatingTask_S1,2021.1.4,Win32,59.91970759,,,,,,,,,,,,,,,,,,,,,,,,,,0,1,1,76,1,DreamStudyImages_rs1000x750g/Vehicles/Objects_320_h.jpg,,,
,,,,,,,,,,,,,,,main,9,21,Male,R,Donders,2021-07-13_22h57.58.266,ImageRatingTask_S1,2021.1.4,Win32,59.91970759,,,,,,,,,,,7,3.506,3,1.2538,5,1.4589,1,9.9817,8,0.9496,0,0,0,0,1,,,,,,,,,
,,,,,,,,,,,,,,,second,9,21,Male,R,Donders,2021-07-13_22h57.58.266,ImageRatingTask_S1,2021.1.4,Win32,59.91970759,,,,,,,,,,,,,,,,,,,,,0,1,1,1,1,,,,,,,,,
,,,,,,,,,,,,,,,third,9,21,Male,R,Donders,2021-07-13_22h57.58.266,ImageRatingTask_S1,2021.1.4,Win32,59.91970759,,,,,,,,,,,,,,,,,,,,,0,2,2,2,1,,,,,,,,,
,,,,,,,,,,,,,,,fourth,9,21,Male,R,Donders,2021-07-13_22h57.58.266,ImageRatingTask_S1,2021.1.4,Win32,59.91970759,,,,,,,,,,,,,,,,,,,,,0,3,3,3,1,,,,,,,,,
,,,,,,,,,,,,,,,fifth,9,21,Male,R,Donders,2021-07-13_22h57.58.266,ImageRatingTask_S1,2021.1.4,Win32,59.91970759,,,,,,,,,,,,,,,,,,,,,0,4,4,4,1,,,,,,,,,
,,,,,,,,,,,,,,,sixth,9,21,Male,R,Donders,2021-07-13_22h57.58.266,ImageRatingTask_S1,2021.1.4,Win32,59.91970759,,,,,,,,,,,,,,,,,,,,,0,5,5,5,1,,,,,,,,,
,,,,,,,,,,,,,,,seventh,9,21,Male,R,Donders,2021-07-13_22h57.58.266,ImageRatingTask_S1,2021.1.4,Win32,59.91970759,,,,,,,,,,,,,,,,,,,,,0,6,6,6,1,,,,,,,,,
,,,,,,,,,,,,,,,last,9,21,Male,R,Donders,2021-07-13_22h57.58.266,ImageRatingTask_S1,2021.1.4,Win32,59.91970759,,,,,,,,,,,,,,,,,,,,,0,7,7,7,1,,,,,,,,,
,,,,,,,,,,,,,,,,9,21,Male,R,Donders,2021-07-13_22h57.58.266,ImageRatingTask_S1,2021.1.4,Win32,59.91970759,,,,,,,,,,,,,,,,,,,,,,,,,,0,2,2,126,1,DreamStudyImages_rs1000x750g/Water/Landscapes_179_h.jpg,,,
,,,,,,,,,,,,,,,main,9,21,Male,R,Donders,2021-07-13_22h57.58.266,ImageRatingTask_S1,2021.1.4,Win32,59.91970759,,,,,,,,,,,8,3.7239,5,2.0825,6,5.371,1,17.1219,3,0.8782,0,0,0,0,1,,,,,,,,,
,,,,,,,,,,,,,,,second,9,21,Male,R,Donders,2021-07-13_22h57.58.266,ImageRatingTask_S1,2021.1.4,Win32,59.91970759,,,,,,,,,,,,,,,,,,,,,0,1,1,1,1,,,,,,,,,
,,,,,,,,,,,,,,,third,9,21,Male,R,Donders,2021-07-13_22h57.58.266,ImageRatingTask_S1,2021.1.4,Win32,59.91970759,,,,,,,,,,,,,,,,,,,,,0,2,2,2,1,,,,,,,,,
,,,,,,,,,,,,,,,fourth,9,21,Male,R,Donders,2021-07-13_22h57.58.266,ImageRatingTask_S1,2021.1.4,Win32,59.91970759,,,,,,,,,,,,,,,,,,,,,0,3,3,3,1,,,,,,,,,
,,,,,,,,,,,,,,,fifth,9,21,Male,R,Donders,2021-07-13_22h57.58.266,ImageRatingTask_S1,2021.1.4,Win32,59.91970759,,,,,,,,,,,,,,,,,,,,,0,4,4,4,1,,,,,,,,,
,,,,,,,,,,,,,,,sixth,9,21,Male,R,Donders,2021-07-13_22h57.58.266,ImageRatingTask_S1,2021.1.4,Win32,59.91970759,,,,,,,,,,,,,,,,,,,,,0,5,5,5,1,,,,,,,,,
,,,,,,,,,,,,,,,seventh,9,21,Male,R,Donders,2021-07-13_22h57.58.266,ImageRatingTask_S1,2021.1.4,Win32,59.91970759,,,,,,,,,,,,,,,,,,,,,0,6,6,6,1,,,,,,,,,
,,,,,,,,,,,,,,,last,9,21,Male,R,Donders,2021-07-13_22h57.58.266,ImageRatingTask_S1,2021.1.4,Win32,59.91970759,,,,,,,,,,,,,,,,,,,,,0,7,7,7,1,,,,,,,,,
,,,,,,,,,,,,,,,,9,21,Male,R,Donders,2021-07-13_22h57.58.266,ImageRatingTask_S1,2021.1.4,Win32,59.91970759,,,,,,,,,,,,,,,,,,,,,,,,,,0,3,3,53,1,DreamStudyImages_rs1000x750g/Mammals/IAPS1722_leopardcubs.jpg,,,
,,,,,,,,,,,,,,,main,9,21,Male,R,Donders,2021-07-13_22h57.58.266,ImageRatingTask_S1,2021.1.4,Win32,59.91970759,,,,,,,,,,,4,2.5594,1,1.3271,6,4.2767,1,2.6317,7,0.7928,0,0,0,0,1,,,,,,,,,
,,,,,,,,,,,,,,,second,9,21,Male,R,Donders,2021-07-13_22h57.58.266,ImageRatingTask_S1,2021.1.4,Win32,59.91970759,,,,,,,,,,,,,,,,,,,,,0,1,1,1,1,,,,,,,,,
,,,,,,,,,,,,,,,third,9,21,Male,R,Donders,2021-07-13_22h57.58.266,ImageRatingTask_S1,2021.1.4,Win32,59.91970759,,,,,,,,,,,,,,,,,,,,,0,2,2,2,1,,,,,,,,,
,,,,,,,,,,,,,,,fourth,9,21,Male,R,Donders,2021-07-13_22h57.58.266,ImageRatingTask_S1,2021.1.4,Win32,59.91970759,,,,,,,,,,,,,,,,,,,,,0,3,3,3,1,,,,,,,,,
,,,,,,,,,,,,,,,fifth,9,21,Male,R,Donders,2021-07-13_22h57.58.266,ImageRatingTask_S1,2021.1.4,Win32,59.91970759,,,,,,,,,,,,,,,,,,,,,0,4,4,4,1,,,,,,,,,
,,,,,,,,,,,,,,,sixth,9,21,Male,R,Donders,2021-07-13_22h57.58.266,ImageRatingTask_S1,2021.1.4,Win32,59.91970759,,,,,,,,,,,,,,,,,,,,,0,5,5,5,1,,,,,,,,,
,,,,,,,,,,,,,,,seventh,9,21,Male,R,Donders,2021-07-13_22h57.58.266,ImageRatingTask_S1,2021.1.4,Win32,59.91970759,,,,,,,,,,,,,,,,,,,,,0,6,6,6,1,,,,,,,,,
,,,,,,,,,,,,,,,last,9,21,Male,R,Donders,2021-07-13_22h57.58.266,ImageRatingTask_S1,2021.1.4,Win32,59.91970759,,,,,,,,,,,,,,,,,,,,,0,7,7,7,1,,,,,,,,,
,,,,,,,,,,,,,,,,9,21,Male,R,Donders,2021-07-13_22h57.58.266,ImageRatingTask_S1,2021.1.4,Win32,59.91970759,,,,,,,,,,,,,,,,,,,,,,,,,,0,4,4,156,1,DreamStudyImages_rs1000x750g/Vehicles/Objects_309_h.jpg,,,
,,,,,,,,,,,,,,,main,9,21,Male,R,Donders,2021-07-13_22h57.58.266,ImageRatingTask_S1,2021.1.4,Win32,59.91970759,,,,,,,,,,,2,10.8693,3,1.2933,4,1.5773,0,5.0088,,,0,0,0,0,1,,,,,,,,,
,,,,,,,,,,,,,,,second,9,21,Male,R,Donders,2021-07-13_22h57.58.266,ImageRatingTask_S1,2021.1.4,Win32,59.91970759,,,,,,,,,,,,,,,,,,,,,0,1,1,1,1,,,,,,,,,
,,,,,,,,,,,,,,,third,9,21,Male,R,Donders,2021-07-13_22h57.58.266,ImageRatingTask_S1,2021.1.4,Win32,59.91970759,,,,,,,,,,,,,,,,,,,,,0,2,2,2,1,,,,,,,,,
,,,,,,,,,,,,,,,fourth,9,21,Male,R,Donders,2021-07-13_22h57.58.266,ImageRatingTask_S1,2021.1.4,Win32,59.91970759,,,,,,,,,,,,,,,,,,,,,0,3,3,3,1,,,,,,,,,
,,,,,,,,,,,,,,,fifth,9,21,Male,R,Donders,2021-07-13_22h57.58.266,ImageRatingTask_S1,2021.1.4,Win32,59.91970759,,,,,,,,,,,,,,,,,,,,,0,4,4,4,1,,,,,,,,,
,,,,,,,,,,,,,,,sixth,9,21,Male,R,Donders,2021-07-13_22h57.58.266,ImageRatingTask_S1,2021.1.4,Win32,59.91970759,,,,,,,,,,,,,,,,,,,,,0,5,5,5,1,,,,,,,,,
,,,,,,,,,,,,,,,seventh,9,21,Male,R,Donders,2021-07-13_22h57.58.266,ImageRatingTask_S1,2021.1.4,Win32,59.91970759,,,,,,,,,,,,,,,,,,,,,0,6,6,6,1,,,,,,,,,
,,,,,,,,,,,,,,,last,9,21,Male,R,Donders,2021-07-13_22h57.58.266,ImageRatingTask_S1,2021.1.4,Win32,59.91970759,,,,,,,,,,,,,,,,,,,,,0,7,7,7,1,,,,,,,,,
,,,,,,,,,,,,,,,,9,21,Male,R,Donders,2021-07-13_22h57.58.266,ImageRatingTask_S1,2021.1.4,Win32,59.91970759,,,,,,,,,,,,,,,,,,,,,,,,,,0,5,5,106,1,DreamStudyImages_rs1000x750g/Food/Objects_151_h.jpg,,,
,,,,,,,,,,,,,,,main,9,21,Male,R,Donders,2021-07-13_22h57.58.266,ImageRatingTask_S1,2021.1.4,Win32,59.91970759,,,,,,,,,,,8,3.9167,1,4.3943,5,2.4558,1,3.631,8,0.3754,0,0,0,0,1,,,,,,,,,
,,,,,,,,,,,,,,,second,9,21,Male,R,Donders,2021-07-13_22h57.58.266,ImageRatingTask_S1,2021.1.4,Win32,59.91970759,,,,,,,,,,,,,,,,,,,,,0,1,1,1,1,,,,,,,,,
,,,,,,,,,,,,,,,third,9,21,Male,R,Donders,2021-07-13_22h57.58.266,ImageRatingTask_S1,2021.1.4,Win32,59.91970759,,,,,,,,,,,,,,,,,,,,,0,2,2,2,1,,,,,,,,,
,,,,,,,,,,,,,,,fourth,9,21,Male,R,Donders,2021-07-13_22h57.58.266,ImageRatingTask_S1,2021.1.4,Win32,59.91970759,,,,,,,,,,,,,,,,,,,,,0,3,3,3,1,,,,,,,,,
,,,,,,,,,,,,,,,fifth,9,21,Male,R,Donders,2021-07-13_22h57.58.266,ImageRatingTask_S1,2021.1.4,Win32,59.91970759,,,,,,,,,,,,,,,,,,,,,0,4,4,4,1,,,,,,,,,
,,,,,,,,,,,,,,,sixth,9,21,Male,R,Donders,2021-07-13_22h57.58.266,ImageRatingTask_S1,2021.1.4,Win32,59.91970759,,,,,,,,,,,,,,,,,,,,,0,5,5,5,1,,,,,,,,,
,,,,,,,,,,,,,,,seventh,9,21,Male,R,Donders,2021-07-13_22h57.58.266,ImageRatingTask_S1,2021.1.4,Win32,59.91970759,,,,,,,,,,,,,,,,,,,,,0,6,6,6,1,,,,,,,,,
,,,,,,,,,,,,,,,last,9,21,Male,R,Donders,2021-07-13_22h57.58.266,ImageRatingTask_S1,2021.1.4,Win32,59.91970759,,,,,,,,,,,,,,,,,,,,,0,7,7,7,1,,,,,,,,,
,,,,,,,,,,,,,,,,9,21,Male,R,Donders,2021-07-13_22h57.58.266,ImageRatingTask_S1,2021.1.4,Win32,59.91970759,,,,,,,,,,,,,,,,,,,,,,,,,,0,6,6,144,1,DreamStudyImages_rs1000x750g/Water/Sunset 3.jpg,,,
,,,,,,,,,,,,,,,main,9,21,Male,R,Donders,2021-07-13_22h57.58.266,ImageRatingTask_S1,2021.1.4,Win32,59.91970759,,,,,,,,,,,6,5.4045,2,2.8172,6,2.4006,1,5.2146,3,0.8016,0,0,0,0,1,,,,,,,,,
,,,,,,,,,,,,,,,second,9,21,Male,R,Donders,2021-07-13_22h57.58.266,ImageRatingTask_S1,2021.1.4,Win32,59.91970759,,,,,,,,,,,,,,,,,,,,,0,1,1,1,1,,,,,,,,,
,,,,,,,,,,,,,,,third,9,21,Male,R,Donders,2021-07-13_22h57.58.266,ImageRatingTask_S1,2021.1.4,Win32,59.91970759,,,,,,,,,,,,,,,,,,,,,0,2,2,2,1,,,,,,,,,
,,,,,,,,,,,,,,,fourth,9,21,Male,R,Donders,2021-07-13_22h57.58.266,ImageRatingTask_S1,2021.1.4,Win32,59.91970759,,,,,,,,,,,,,,,,,,,,,0,3,3,3,1,,,,,,,,,
,,,,,,,,,,,,,,,fifth,9,21,Male,R,Donders,2021-07-13_22h57.58.266,ImageRatingTask_S1,2021.1.4,Win32,59.91970759,,,,,,,,,,,,,,,,,,,,,0,4,4,4,1,,,,,,,,,
,,,,,,,,,,,,,,,sixth,9,21,Male,R,Donders,2021-07-13_22h57.58.266,ImageRatingTask_S1,2021.1.4,Win32,59.91970759,,,,,,,,,,,,,,,,,,,,,0,5,5,5,1,,,,,,,,,
,,,,,,,,,,,,,,,seventh,9,21,Male,R,Donders,2021-07-13_22h57.58.266,ImageRatingTask_S1,2021.1.4,Win32,59.91970759,,,,,,,,,,,,,,,,,,,,,0,6,6,6,1,,,,,,,,,
,,,,,,,,,,,,,,,last,9,21,Male,R,Donders,2021-07-13_22h57.58.266,ImageRatingTask_S1,2021.1.4,Win32,59.91970759,,,,,,,,,,,,,,,,,,,,,0,7,7,7,1,,,,,,,,,
,,,,,,,,,,,,,,,,9,21,Male,R,Donders,2021-07-13_22h57.58.266,ImageRatingTask_S1,2021.1.4,Win32,59.91970759,,,,,,,,,,,,,,,,,,,,,,,,,,0,7,7,90,1,DreamStudyImages_rs1000x750g/Mammals/Animals_097_h.jpg,,,
,,,,,,,,,,,,,,,main,9,21,Male,R,Donders,2021-07-13_22h57.58.266,ImageRatingTask_S1,2021.1.4,Win32,59.91970759,,,,,,,,,,,7,4.5228,2,1.3538,5,2.5126,1,3.5547,8,0.9343,0,0,0,0,1,,,,,,,,,
,,,,,,,,,,,,,,,second,9,21,Male,R,Donders,2021-07-13_22h57.58.266,ImageRatingTask_S1,2021.1.4,Win32,59.91970759,,,,,,,,,,,,,,,,,,,,,0,1,1,1,1,,,,,,,,,
,,,,,,,,,,,,,,,third,9,21,Male,R,Donders,2021-07-13_22h57.58.266,ImageRatingTask_S1,2021.1.4,Win32,59.91970759,,,,,,,,,,,,,,,,,,,,,0,2,2,2,1,,,,,,,,,
,,,,,,,,,,,,,,,fourth,9,21,Male,R,Donders,2021-07-13_22h57.58.266,ImageRatingTask_S1,2021.1.4,Win32,59.91970759,,,,,,,,,,,,,,,,,,,,,0,3,3,3,1,,,,,,,,,
,,,,,,,,,,,,,,,fifth,9,21,Male,R,Donders,2021-07-13_22h57.58.266,ImageRatingTask_S1,2021.1.4,Win32,59.91970759,,,,,,,,,,,,,,,,,,,,,0,4,4,4,1,,,,,,,,,
,,,,,,,,,,,,,,,sixth,9,21,Male,R,Donders,2021-07-13_22h57.58.266,ImageRatingTask_S1,2021.1.4,Win32,59.91970759,,,,,,,,,,,,,,,,,,,,,0,5,5,5,1,,,,,,,,,
,,,,,,,,,,,,,,,seventh,9,21,Male,R,Donders,2021-07-13_22h57.58.266,ImageRatingTask_S1,2021.1.4,Win32,59.91970759,,,,,,,,,,,,,,,,,,,,,0,6,6,6,1,,,,,,,,,
,,,,,,,,,,,,,,,last,9,21,Male,R,Donders,2021-07-13_22h57.58.266,ImageRatingTask_S1,2021.1.4,Win32,59.91970759,,,,,,,,,,,,,,,,,,,,,0,7,7,7,1,,,,,,,,,
,,,,,,,,,,,,,,,,9,21,Male,R,Donders,2021-07-13_22h57.58.266,ImageRatingTask_S1,2021.1.4,Win32,59.91970759,,,,,,,,,,,,,,,,,,,,,,,,,,0,8,8,32,1,DreamStudyImages_rs1000x750g/Water/Lake 12.jpg,,,
,,,,,,,,,,,,,,,main,9,21,Male,R,Donders,2021-07-13_22h57.58.266,ImageRatingTask_S1,2021.1.4,Win32,59.91970759,,,,,,,,,,,5,4.3507,1,1.2464,4,2.4944,1,3.8955,5,0.7781,0,0,0,0,1,,,,,,,,,
,,,,,,,,,,,,,,,second,9,21,Male,R,Donders,2021-07-13_22h57.58.266,ImageRatingTask_S1,2021.1.4,Win32,59.91970759,,,,,,,,,,,,,,,,,,,,,0,1,1,1,1,,,,,,,,,
,,,,,,,,,,,,,,,third,9,21,Male,R,Donders,2021-07-13_22h57.58.266,ImageRatingTask_S1,2021.1.4,Win32,59.91970759,,,,,,,,,,,,,,,,,,,,,0,2,2,2,1,,,,,,,,,
,,,,,,,,,,,,,,,fourth,9,21,Male,R,Donders,2021-07-13_22h57.58.266,ImageRatingTask_S1,2021.1.4,Win32,59.91970759,,,,,,,,,,,,,,,,,,,,,0,3,3,3,1,,,,,,,,,
,,,,,,,,,,,,,,,fifth,9,21,Male,R,Donders,2021-07-13_22h57.58.266,ImageRatingTask_S1,2021.1.4,Win32,59.91970759,,,,,,,,,,,,,,,,,,,,,0,4,4,4,1,,,,,,,,,
,,,,,,,,,,,,,,,sixth,9,21,Male,R,Donders,2021-07-13_22h57.58.266,ImageRatingTask_S1,2021.1.4,Win32,59.91970759,,,,,,,,,,,,,,,,,,,,,0,5,5,5,1,,,,,,,,,
,,,,,,,,,,,,,,,seventh,9,21,Male,R,Donders,2021-07-13_22h57.58.266,ImageRatingTask_S1,2021.1.4,Win32,59.91970759,,,,,,,,,,,,,,,,,,,,,0,6,6,6,1,,,,,,,,,
,,,,,,,,,,,,,,,last,9,21,Male,R,Donders,2021-07-13_22h57.58.266,ImageRatingTask_S1,2021.1.4,Win32,59.91970759,,,,,,,,,,,,,,,,,,,,,0,7,7,7,1,,,,,,,,,
,,,,,,,,,,,,,,,,9,21,Male,R,Donders,2021-07-13_22h57.58.266,ImageRatingTask_S1,2021.1.4,Win32,59.91970759,,,,,,,,,,,,,,,,,,,,,,,,,,0,9,9,99,1,DreamStudyImages_rs1000x750g/Food/Objects_052_h.jpg,,,
,,,,,,,,,,,,,,,main,9,21,Male,R,Donders,2021-07-13_22h57.58.266,ImageRatingTask_S1,2021.1.4,Win32,59.91970759,,,,,,,,,,,8,3.7743,3,1.7735,6,3.3924,1,3.6827,3,0.4365,0,0,0,0,1,,,,,,,,,
,,,,,,,,,,,,,,,second,9,21,Male,R,Donders,2021-07-13_22h57.58.266,ImageRatingTask_S1,2021.1.4,Win32,59.91970759,,,,,,,,,,,,,,,,,,,,,0,1,1,1,1,,,,,,,,,
,,,,,,,,,,,,,,,third,9,21,Male,R,Donders,2021-07-13_22h57.58.266,ImageRatingTask_S1,2021.1.4,Win32,59.91970759,,,,,,,,,,,,,,,,,,,,,0,2,2,2,1,,,,,,,,,
,,,,,,,,,,,,,,,fourth,9,21,Male,R,Donders,2021-07-13_22h57.58.266,ImageRatingTask_S1,2021.1.4,Win32,59.91970759,,,,,,,,,,,,,,,,,,,,,0,3,3,3,1,,,,,,,,,
,,,,,,,,,,,,,,,fifth,9,21,Male,R,Donders,2021-07-13_22h57.58.266,ImageRatingTask_S1,2021.1.4,Win32,59.91970759,,,,,,,,,,,,,,,,,,,,,0,4,4,4,1,,,,,,,,,
,,,,,,,,,,,,,,,sixth,9,21,Male,R,Donders,2021-07-13_22h57.58.266,ImageRatingTask_S1,2021.1.4,Win32,59.91970759,,,,,,,,,,,,,,,,,,,,,0,5,5,5,1,,,,,,,,,
,,,,,,,,,,,,,,,seventh,9,21,Male,R,Donders,2021-07-13_22h57.58.266,ImageRatingTask_S1,2021.1.4,Win32,59.91970759,,,,,,,,,,,,,,,,,,,,,0,6,6,6,1,,,,,,,,,
,,,,,,,,,,,,,,,last,9,21,Male,R,Donders,2021-07-13_22h57.58.266,ImageRatingTask_S1,2021.1.4,Win32,59.91970759,,,,,,,,,,,,,,,,,,,,,0,7,7,7,1,,,,,,,,,
,,,,,,,,,,,,,,,,9,21,Male,R,Donders,2021-07-13_22h57.58.266,ImageRatingTask_S1,2021.1.4,Win32,59.91970759,,,,,,,,,,,,,,,,,,,,,,,,,,0,10,10,22,1,DreamStudyImages_rs1000x750g/Mammals/IAPS1812_elephants.jpg,,,
,,,,,,,,,,,,,,,main,9,21,Male,R,Donders,2021-07-13_22h57.58.266,ImageRatingTask_S1,2021.1.4,Win32,59.91970759,,,,,,,,,,,6,5.2725,1,0.9945,7,1.4041,1,3.3858,8,0.8555,0,0,0,0,1,,,,,,,,,
,,,,,,,,,,,,,,,second,9,21,Male,R,Donders,2021-07-13_22h57.58.266,ImageRatingTask_S1,2021.1.4,Win32,59.91970759,,,,,,,,,,,,,,,,,,,,,0,1,1,1,1,,,,,,,,,
,,,,,,,,,,,,,,,third,9,21,Male,R,Donders,2021-07-13_22h57.58.266,ImageRatingTask_S1,2021.1.4,Win32,59.91970759,,,,,,,,,,,,,,,,,,,,,0,2,2,2,1,,,,,,,,,
,,,,,,,,,,,,,,,fourth,9,21,Male,R,Donders,2021-07-13_22h57.58.266,ImageRatingTask_S1,2021.1.4,Win32,59.91970759,,,,,,,,,,,,,,,,,,,,,0,3,3,3,1,,,,,,,,,
,,,,,,,,,,,,,,,fifth,9,21,Male,R,Donders,2021-07-13_22h57.58.266,ImageRatingTask_S1,2021.1.4,Win32,59.91970759,,,,,,,,,,,,,,,,,,,,,0,4,4,4,1,,,,,,,,,
,,,,,,,,,,,,,,,sixth,9,21,Male,R,Donders,2021-07-13_22h57.58.266,ImageRatingTask_S1,2021.1.4,Win32,59.91970759,,,,,,,,,,,,,,,,,,,,,0,5,5,5,1,,,,,,,,,
,,,,,,,,,,,,,,,seventh,9,21,Male,R,Donders,2021-07-13_22h57.58.266,ImageRatingTask_S1,2021.1.4,Win32,59.91970759,,,,,,,,,,,,,,,,,,,,,0,6,6,6,1,,,,,,,,,
,,,,,,,,,,,,,,,last,9,21,Male,R,Donders,2021-07-13_22h57.58.266,ImageRatingTask_S1,2021.1.4,Win32,59.91970759,,,,,,,,,,,,,,,,,,,,,0,7,7,7,1,,,,,,,,,
,,,,,,,,,,,,,,,,9,21,Male,R,Donders,2021-07-13_22h57.58.266,ImageRatingTask_S1,2021.1.4,Win32,59.91970759,,,,,,,,,,,,,,,,,,,,,,,,,,0,11,11,155,1,DreamStudyImages_rs1000x750g/Water/Landscapes_165_h.jpg,,,
,,,,,,,,,,,,,,,main,9,21,Male,R,Donders,2021-07-13_22h57.58.266,ImageRatingTask_S1,2021.1.4,Win32,59.91970759,,,,,,,,,,,8,3.208,1,0.7845,3,2.4848,1,2.8007,5,1.0382,0,0,0,0,1,,,,,,,,,
,,,,,,,,,,,,,,,second,9,21,Male,R,Donders,2021-07-13_22h57.58.266,ImageRatingTask_S1,2021.1.4,Win32,59.91970759,,,,,,,,,,,,,,,,,,,,,0,1,1,1,1,,,,,,,,,
,,,,,,,,,,,,,,,third,9,21,Male,R,Donders,2021-07-13_22h57.58.266,ImageRatingTask_S1,2021.1.4,Win32,59.91970759,,,,,,,,,,,,,,,,,,,,,0,2,2,2,1,,,,,,,,,
,,,,,,,,,,,,,,,fourth,9,21,Male,R,Donders,2021-07-13_22h57.58.266,ImageRatingTask_S1,2021.1.4,Win32,59.91970759,,,,,,,,,,,,,,,,,,,,,0,3,3,3,1,,,,,,,,,
,,,,,,,,,,,,,,,fifth,9,21,Male,R,Donders,2021-07-13_22h57.58.266,ImageRatingTask_S1,2021.1.4,Win32,59.91970759,,,,,,,,,,,,,,,,,,,,,0,4,4,4,1,,,,,,,,,
,,,,,,,,,,,,,,,sixth,9,21,Male,R,Donders,2021-07-13_22h57.58.266,ImageRatingTask_S1,2021.1.4,Win32,59.91970759,,,,,,,,,,,,,,,,,,,,,0,5,5,5,1,,,,,,,,,
,,,,,,,,,,,,,,,seventh,9,21,Male,R,Donders,2021-07-13_22h57.58.266,ImageRatingTask_S1,2021.1.4,Win32,59.91970759,,,,,,,,,,,,,,,,,,,,,0,6,6,6,1,,,,,,,,,
,,,,,,,,,,,,,,,last,9,21,Male,R,Donders,2021-07-13_22h57.58.266,ImageRatingTask_S1,2021.1.4,Win32,59.91970759,,,,,,,,,,,,,,,,,,,,,0,7,7,7,1,,,,,,,,,
,,,,,,,,,,,,,,,,9,21,Male,R,Donders,2021-07-13_22h57.58.266,ImageRatingTask_S1,2021.1.4,Win32,59.91970759,,,,,,,,,,,,,,,,,,,,,,,,,,0,12,12,145,1,DreamStudyImages_rs1000x750g/Food/7351.jpg,,,
,,,,,,,,,,,,,,,main,9,21,Male,R,Donders,2021-07-13_22h57.58.266,ImageRatingTask_S1,2021.1.4,Win32,59.91970759,,,,,,,,,,,8,3.6074,3,1.1374,5,2.792,1,5.1428,2,0.3891,0,0,0,0,1,,,,,,,,,
,,,,,,,,,,,,,,,second,9,21,Male,R,Donders,2021-07-13_22h57.58.266,ImageRatingTask_S1,2021.1.4,Win32,59.91970759,,,,,,,,,,,,,,,,,,,,,0,1,1,1,1,,,,,,,,,
,,,,,,,,,,,,,,,third,9,21,Male,R,Donders,2021-07-13_22h57.58.266,ImageRatingTask_S1,2021.1.4,Win32,59.91970759,,,,,,,,,,,,,,,,,,,,,0,2,2,2,1,,,,,,,,,
,,,,,,,,,,,,,,,fourth,9,21,Male,R,Donders,2021-07-13_22h57.58.266,ImageRatingTask_S1,2021.1.4,Win32,59.91970759,,,,,,,,,,,,,,,,,,,,,0,3,3,3,1,,,,,,,,,
,,,,,,,,,,,,,,,fifth,9,21,Male,R,Donders,2021-07-13_22h57.58.266,ImageRatingTask_S1,2021.1.4,Win32,59.91970759,,,,,,,,,,,,,,,,,,,,,0,4,4,4,1,,,,,,,,,
,,,,,,,,,,,,,,,sixth,9,21,Male,R,Donders,2021-07-13_22h57.58.266,ImageRatingTask_S1,2021.1.4,Win32,59.91970759,,,,,,,,,,,,,,,,,,,,,0,5,5,5,1,,,,,,,,,
,,,,,,,,,,,,,,,seventh,9,21,Male,R,Donders,2021-07-13_22h57.58.266,ImageRatingTask_S1,2021.1.4,Win32,59.91970759,,,,,,,,,,,,,,,,,,,,,0,6,6,6,1,,,,,,,,,
,,,,,,,,,,,,,,,last,9,21,Male,R,Donders,2021-07-13_22h57.58.266,ImageRatingTask_S1,2021.1.4,Win32,59.91970759,,,,,,,,,,,,,,,,,,,,,0,7,7,7,1,,,,,,,,,
,,,,,,,,,,,,,,,,9,21,Male,R,Donders,2021-07-13_22h57.58.266,ImageRatingTask_S1,2021.1.4,Win32,59.91970759,,,,,,,,,,,,,,,,,,,,,,,,,,0,13,13,46,1,DreamStudyImages_rs1000x750g/Children/Faces_116_h.jpg,,,
,,,,,,,,,,,,,,,main,9,21,Male,R,Donders,2021-07-13_22h57.58.266,ImageRatingTask_S1,2021.1.4,Win32,59.91970759,,,,,,,,,,,6,2.6017,1,1.2532,7,1.2093,1,1.3206,8,1.0584,0,0,0,0,1,,,,,,,,,
,,,,,,,,,,,,,,,second,9,21,Male,R,Donders,2021-07-13_22h57.58.266,ImageRatingTask_S1,2021.1.4,Win32,59.91970759,,,,,,,,,,,,,,,,,,,,,0,1,1,1,1,,,,,,,,,
,,,,,,,,,,,,,,,third,9,21,Male,R,Donders,2021-07-13_22h57.58.266,ImageRatingTask_S1,2021.1.4,Win32,59.91970759,,,,,,,,,,,,,,,,,,,,,0,2,2,2,1,,,,,,,,,
,,,,,,,,,,,,,,,fourth,9,21,Male,R,Donders,2021-07-13_22h57.58.266,ImageRatingTask_S1,2021.1.4,Win32,59.91970759,,,,,,,,,,,,,,,,,,,,,0,3,3,3,1,,,,,,,,,
,,,,,,,,,,,,,,,fifth,9,21,Male,R,Donders,2021-07-13_22h57.58.266,ImageRatingTask_S1,2021.1.4,Win32,59.91970759,,,,,,,,,,,,,,,,,,,,,0,4,4,4,1,,,,,,,,,
,,,,,,,,,,,,,,,sixth,9,21,Male,R,Donders,2021-07-13_22h57.58.266,ImageRatingTask_S1,2021.1.4,Win32,59.91970759,,,,,,,,,,,,,,,,,,,,,0,5,5,5,1,,,,,,,,,
,,,,,,,,,,,,,,,seventh,9,21,Male,R,Donders,2021-07-13_22h57.58.266,ImageRatingTask_S1,2021.1.4,Win32,59.91970759,,,,,,,,,,,,,,,,,,,,,0,6,6,6,1,,,,,,,,,
,,,,,,,,,,,,,,,last,9,21,Male,R,Donders,2021-07-13_22h57.58.266,ImageRatingTask_S1,2021.1.4,Win32,59.91970759,,,,,,,,,,,,,,,,,,,,,0,7,7,7,1,,,,,,,,,
,,,,,,,,,,,,,,,,9,21,Male,R,Donders,2021-07-13_22h57.58.266,ImageRatingTask_S1,2021.1.4,Win32,59.91970759,,,,,,,,,,,,,,,,,,,,,,,,,,0,14,14,136,1,DreamStudyImages_rs1000x750g/Water/Landscapes_154_h.jpg,,,
,,,,,,,,,,,,,,,main,9,21,Male,R,Donders,2021-07-13_22h57.58.266,ImageRatingTask_S1,2021.1.4,Win32,59.91970759,,,,,,,,,,,2,3.4423,7,1.5309,6,2.8015,1,4.8827,2,0.3262,0,0,0,0,1,,,,,,,,,
,,,,,,,,,,,,,,,second,9,21,Male,R,Donders,2021-07-13_22h57.58.266,ImageRatingTask_S1,2021.1.4,Win32,59.91970759,,,,,,,,,,,,,,,,,,,,,0,1,1,1,1,,,,,,,,,
,,,,,,,,,,,,,,,third,9,21,Male,R,Donders,2021-07-13_22h57.58.266,ImageRatingTask_S1,2021.1.4,Win32,59.91970759,,,,,,,,,,,,,,,,,,,,,0,2,2,2,1,,,,,,,,,
,,,,,,,,,,,,,,,fourth,9,21,Male,R,Donders,2021-07-13_22h57.58.266,ImageRatingTask_S1,2021.1.4,Win32,59.91970759,,,,,,,,,,,,,,,,,,,,,0,3,3,3,1,,,,,,,,,
,,,,,,,,,,,,,,,fifth,9,21,Male,R,Donders,2021-07-13_22h57.58.266,ImageRatingTask_S1,2021.1.4,Win32,59.91970759,,,,,,,,,,,,,,,,,,,,,0,4,4,4,1,,,,,,,,,
,,,,,,,,,,,,,,,sixth,9,21,Male,R,Donders,2021-07-13_22h57.58.266,ImageRatingTask_S1,2021.1.4,Win32,59.91970759,,,,,,,,,,,,,,,,,,,,,0,5,5,5,1,,,,,,,,,
,,,,,,,,,,,,,,,seventh,9,21,Male,R,Donders,2021-07-13_22h57.58.266,ImageRatingTask_S1,2021.1.4,Win32,59.91970759,,,,,,,,,,,,,,,,,,,,,0,6,6,6,1,,,,,,,,,
,,,,,,,,,,,,,,,last,9,21,Male,R,Donders,2021-07-13_22h57.58.266,ImageRatingTask_S1,2021.1.4,Win32,59.91970759,,,,,,,,,,,,,,,,,,,,,0,7,7,7,1,,,,,,,,,
,,,,,,,,,,,,,,,,9,21,Male,R,Donders,2021-07-13_22h57.58.266,ImageRatingTask_S1,2021.1.4,Win32,59.91970759,,,,,,,,,,,,,,,,,,,,,,,,,,0,15,15,129,1,DreamStudyImages_rs1000x750g/Children/Faces_029_h.jpg,,,
,,,,,,,,,,,,,,,main,9,21,Male,R,Donders,2021-07-13_22h57.58.266,ImageRatingTask_S1,2021.1.4,Win32,59.91970759,,,,,,,,,,,4,2.6638,5,1.9954,4,2.634,1,4.427,6,0.8321,0,0,0,0,1,,,,,,,,,
,,,,,,,,,,,,,,,second,9,21,Male,R,Donders,2021-07-13_22h57.58.266,ImageRatingTask_S1,2021.1.4,Win32,59.91970759,,,,,,,,,,,,,,,,,,,,,0,1,1,1,1,,,,,,,,,
,,,,,,,,,,,,,,,third,9,21,Male,R,Donders,2021-07-13_22h57.58.266,ImageRatingTask_S1,2021.1.4,Win32,59.91970759,,,,,,,,,,,,,,,,,,,,,0,2,2,2,1,,,,,,,,,
,,,,,,,,,,,,,,,fourth,9,21,Male,R,Donders,2021-07-13_22h57.58.266,ImageRatingTask_S1,2021.1.4,Win32,59.91970759,,,,,,,,,,,,,,,,,,,,,0,3,3,3,1,,,,,,,,,
,,,,,,,,,,,,,,,fifth,9,21,Male,R,Donders,2021-07-13_22h57.58.266,ImageRatingTask_S1,2021.1.4,Win32,59.91970759,,,,,,,,,,,,,,,,,,,,,0,4,4,4,1,,,,,,,,,
,,,,,,,,,,,,,,,sixth,9,21,Male,R,Donders,2021-07-13_22h57.58.266,ImageRatingTask_S1,2021.1.4,Win32,59.91970759,,,,,,,,,,,,,,,,,,,,,0,5,5,5,1,,,,,,,,,
,,,,,,,,,,,,,,,seventh,9,21,Male,R,Donders,2021-07-13_22h57.58.266,ImageRatingTask_S1,2021.1.4,Win32,59.91970759,,,,,,,,,,,,,,,,,,,,,0,6,6,6,1,,,,,,,,,
,,,,,,,,,,,,,,,last,9,21,Male,R,Donders,2021-07-13_22h57.58.266,ImageRatingTask_S1,2021.1.4,Win32,59.91970759,,,,,,,,,,,,,,,,,,,,,0,7,7,7,1,,,,,,,,,
,,,,,,,,,,,,,,,,9,21,Male,R,Donders,2021-07-13_22h57.58.266,ImageRatingTask_S1,2021.1.4,Win32,59.91970759,,,,,,,,,,,,,,,,,,,,,,,,,,0,16,16,146,1,DreamStudyImages_rs1000x750g/Houses/Jail 5.jpg,,,
,,,,,,,,,,,,,,,main,9,21,Male,R,Donders,2021-07-13_22h57.58.266,ImageRatingTask_S1,2021.1.4,Win32,59.91970759,,,,,,,,,,,8,1.9051,1,1.0266,3,1.9506,1,2.7188,8,0.5894,0,0,0,0,1,,,,,,,,,
,,,,,,,,,,,,,,,second,9,21,Male,R,Donders,2021-07-13_22h57.58.266,ImageRatingTask_S1,2021.1.4,Win32,59.91970759,,,,,,,,,,,,,,,,,,,,,0,1,1,1,1,,,,,,,,,
,,,,,,,,,,,,,,,third,9,21,Male,R,Donders,2021-07-13_22h57.58.266,ImageRatingTask_S1,2021.1.4,Win32,59.91970759,,,,,,,,,,,,,,,,,,,,,0,2,2,2,1,,,,,,,,,
,,,,,,,,,,,,,,,fourth,9,21,Male,R,Donders,2021-07-13_22h57.58.266,ImageRatingTask_S1,2021.1.4,Win32,59.91970759,,,,,,,,,,,,,,,,,,,,,0,3,3,3,1,,,,,,,,,
,,,,,,,,,,,,,,,fifth,9,21,Male,R,Donders,2021-07-13_22h57.58.266,ImageRatingTask_S1,2021.1.4,Win32,59.91970759,,,,,,,,,,,,,,,,,,,,,0,4,4,4,1,,,,,,,,,
,,,,,,,,,,,,,,,sixth,9,21,Male,R,Donders,2021-07-13_22h57.58.266,ImageRatingTask_S1,2021.1.4,Win32,59.91970759,,,,,,,,,,,,,,,,,,,,,0,5,5,5,1,,,,,,,,,
,,,,,,,,,,,,,,,seventh,9,21,Male,R,Donders,2021-07-13_22h57.58.266,ImageRatingTask_S1,2021.1.4,Win32,59.91970759,,,,,,,,,,,,,,,,,,,,,0,6,6,6,1,,,,,,,,,
,,,,,,,,,,,,,,,last,9,21,Male,R,Donders,2021-07-13_22h57.58.266,ImageRatingTask_S1,2021.1.4,Win32,59.91970759,,,,,,,,,,,,,,,,,,,,,0,7,7,7,1,,,,,,,,,
,,,,,,,,,,,,,,,,9,21,Male,R,Donders,2021-07-13_22h57.58.266,ImageRatingTask_S1,2021.1.4,Win32,59.91970759,,,,,,,,,,,,,,,,,,,,,,,,,,0,17,17,96,1,DreamStudyImages_rs1000x750g/Water/IAPS5760_lake.jpg,,,
,,,,,,,,,,,,,,,main,9,21,Male,R,Donders,2021-07-13_22h57.58.266,ImageRatingTask_S1,2021.1.4,Win32,59.91970759,,,,,,,,,,,3,5.8642,1,0.8954,4,1.2256,0,3.2067,,,0,0,0,0,1,,,,,,,,,
,,,,,,,,,,,,,,,second,9,21,Male,R,Donders,2021-07-13_22h57.58.266,ImageRatingTask_S1,2021.1.4,Win32,59.91970759,,,,,,,,,,,,,,,,,,,,,0,1,1,1,1,,,,,,,,,
,,,,,,,,,,,,,,,third,9,21,Male,R,Donders,2021-07-13_22h57.58.266,ImageRatingTask_S1,2021.1.4,Win32,59.91970759,,,,,,,,,,,,,,,,,,,,,0,2,2,2,1,,,,,,,,,
,,,,,,,,,,,,,,,fourth,9,21,Male,R,Donders,2021-07-13_22h57.58.266,ImageRatingTask_S1,2021.1.4,Win32,59.91970759,,,,,,,,,,,,,,,,,,,,,0,3,3,3,1,,,,,,,,,
,,,,,,,,,,,,,,,fifth,9,21,Male,R,Donders,2021-07-13_22h57.58.266,ImageRatingTask_S1,2021.1.4,Win32,59.91970759,,,,,,,,,,,,,,,,,,,,,0,4,4,4,1,,,,,,,,,
,,,,,,,,,,,,,,,sixth,9,21,Male,R,Donders,2021-07-13_22h57.58.266,ImageRatingTask_S1,2021.1.4,Win32,59.91970759,,,,,,,,,,,,,,,,,,,,,0,5,5,5,1,,,,,,,,,
,,,,,,,,,,,,,,,seventh,9,21,Male,R,Donders,2021-07-13_22h57.58.266,ImageRatingTask_S1,2021.1.4,Win32,59.91970759,,,,,,,,,,,,,,,,,,,,,0,6,6,6,1,,,,,,,,,
,,,,,,,,,,,,,,,last,9,21,Male,R,Donders,2021-07-13_22h57.58.266,ImageRatingTask_S1,2021.1.4,Win32,59.91970759,,,,,,,,,,,,,,,,,,,,,0,7,7,7,1,,,,,,,,,
,,,,,,,,,,,,,,,,9,21,Male,R,Donders,2021-07-13_22h57.58.266,ImageRatingTask_S1,2021.1.4,Win32,59.91970759,,,,,,,,,,,,,,,,,,,,,,,,,,0,18,18,147,1,DreamStudyImages_rs1000x750g/Food/Objects_164_h.jpg,,,
,,,,,,,,,,,,,,,main,9,21,Male,R,Donders,2021-07-13_22h57.58.266,ImageRatingTask_S1,2021.1.4,Win32,59.91970759,,,,,,,,,,,1,3.5527,7,0.8169,3,1.7437,2,4.1555,8,1.0304,0,0,0,0,1,,,,,,,,,
,,,,,,,,,,,,,,,second,9,21,Male,R,Donders,2021-07-13_22h57.58.266,ImageRatingTask_S1,2021.1.4,Win32,59.91970759,,,,,,,,,,,,,,,,,,,5,1.5482,0,1,1,1,1,,,,,,,,,
,,,,,,,,,,,,,,,third,9,21,Male,R,Donders,2021-07-13_22h57.58.266,ImageRatingTask_S1,2021.1.4,Win32,59.91970759,,,,,,,,,,,,,,,,,,,,,0,2,2,2,1,,,,,,,,,
,,,,,,,,,,,,,,,fourth,9,21,Male,R,Donders,2021-07-13_22h57.58.266,ImageRatingTask_S1,2021.1.4,Win32,59.91970759,,,,,,,,,,,,,,,,,,,,,0,3,3,3,1,,,,,,,,,
,,,,,,,,,,,,,,,fifth,9,21,Male,R,Donders,2021-07-13_22h57.58.266,ImageRatingTask_S1,2021.1.4,Win32,59.91970759,,,,,,,,,,,,,,,,,,,,,0,4,4,4,1,,,,,,,,,
,,,,,,,,,,,,,,,sixth,9,21,Male,R,Donders,2021-07-13_22h57.58.266,ImageRatingTask_S1,2021.1.4,Win32,59.91970759,,,,,,,,,,,,,,,,,,,,,0,5,5,5,1,,,,,,,,,
,,,,,,,,,,,,,,,seventh,9,21,Male,R,Donders,2021-07-13_22h57.58.266,ImageRatingTask_S1,2021.1.4,Win32,59.91970759,,,,,,,,,,,,,,,,,,,,,0,6,6,6,1,,,,,,,,,
,,,,,,,,,,,,,,,last,9,21,Male,R,Donders,2021-07-13_22h57.58.266,ImageRatingTask_S1,2021.1.4,Win32,59.91970759,,,,,,,,,,,,,,,,,,,,,0,7,7,7,1,,,,,,,,,
,,,,,,,,,,,,,,,,9,21,Male,R,Donders,2021-07-13_22h57.58.266,ImageRatingTask_S1,2021.1.4,Win32,59.91970759,,,,,,,,,,,,,,,,,,,,,,,,,,0,19,19,45,1,DreamStudyImages_rs1000x750g/Water/Garbage dump 2.jpg,,,
,,,,,,,,,,,,,,,main,9,21,Male,R,Donders,2021-07-13_22h57.58.266,ImageRatingTask_S1,2021.1.4,Win32,59.91970759,,,,,,,,,,,7,4.1772,1,1.2767,5,1.5965,2,2.8037,2,0.36,0,0,0,0,1,,,,,,,,,
,,,,,,,,,,,,,,,second,9,21,Male,R,Donders,2021-07-13_22h57.58.266,ImageRatingTask_S1,2021.1.4,Win32,59.91970759,,,,,,,,,,,,,,,,,,,1,0.365,0,1,1,1,1,,,,,,,,,
,,,,,,,,,,,,,,,third,9,21,Male,R,Donders,2021-07-13_22h57.58.266,ImageRatingTask_S1,2021.1.4,Win32,59.91970759,,,,,,,,,,,,,,,,,,,,,0,2,2,2,1,,,,,,,,,
,,,,,,,,,,,,,,,fourth,9,21,Male,R,Donders,2021-07-13_22h57.58.266,ImageRatingTask_S1,2021.1.4,Win32,59.91970759,,,,,,,,,,,,,,,,,,,,,0,3,3,3,1,,,,,,,,,
,,,,,,,,,,,,,,,fifth,9,21,Male,R,Donders,2021-07-13_22h57.58.266,ImageRatingTask_S1,2021.1.4,Win32,59.91970759,,,,,,,,,,,,,,,,,,,,,0,4,4,4,1,,,,,,,,,
,,,,,,,,,,,,,,,sixth,9,21,Male,R,Donders,2021-07-13_22h57.58.266,ImageRatingTask_S1,2021.1.4,Win32,59.91970759,,,,,,,,,,,,,,,,,,,,,0,5,5,5,1,,,,,,,,,
,,,,,,,,,,,,,,,seventh,9,21,Male,R,Donders,2021-07-13_22h57.58.266,ImageRatingTask_S1,2021.1.4,Win32,59.91970759,,,,,,,,,,,,,,,,,,,,,0,6,6,6,1,,,,,,,,,
,,,,,,,,,,,,,,,last,9,21,Male,R,Donders,2021-07-13_22h57.58.266,ImageRatingTask_S1,2021.1.4,Win32,59.91970759,,,,,,,,,,,,,,,,,,,,,0,7,7,7,1,,,,,,,,,
,,,,,,,,,,,,,,,,9,21,Male,R,Donders,2021-07-13_22h57.58.266,ImageRatingTask_S1,2021.1.4,Win32,59.91970759,,,,,,,,,,,,,,,,,,,,,,,,,,0,20,20,101,1,DreamStudyImages_rs1000x750g/Children/Faces_104_h.jpg,,,
,,,,,,,,,,,,,,,main,9,21,Male,R,Donders,2021-07-13_22h57.58.266,ImageRatingTask_S1,2021.1.4,Win32,59.91970759,,,,,,,,,,,3,2.1448,2,0.7117,6,1.2612,1,2.5778,6,1.291,0,0,0,0,1,,,,,,,,,
,,,,,,,,,,,,,,,second,9,21,Male,R,Donders,2021-07-13_22h57.58.266,ImageRatingTask_S1,2021.1.4,Win32,59.91970759,,,,,,,,,,,,,,,,,,,,,0,1,1,1,1,,,,,,,,,
,,,,,,,,,,,,,,,third,9,21,Male,R,Donders,2021-07-13_22h57.58.266,ImageRatingTask_S1,2021.1.4,Win32,59.91970759,,,,,,,,,,,,,,,,,,,,,0,2,2,2,1,,,,,,,,,
,,,,,,,,,,,,,,,fourth,9,21,Male,R,Donders,2021-07-13_22h57.58.266,ImageRatingTask_S1,2021.1.4,Win32,59.91970759,,,,,,,,,,,,,,,,,,,,,0,3,3,3,1,,,,,,,,,
,,,,,,,,,,,,,,,fifth,9,21,Male,R,Donders,2021-07-13_22h57.58.266,ImageRatingTask_S1,2021.1.4,Win32,59.91970759,,,,,,,,,,,,,,,,,,,,,0,4,4,4,1,,,,,,,,,
,,,,,,,,,,,,,,,sixth,9,21,Male,R,Donders,2021-07-13_22h57.58.266,ImageRatingTask_S1,2021.1.4,Win32,59.91970759,,,,,,,,,,,,,,,,,,,,,0,5,5,5,1,,,,,,,,,
,,,,,,,,,,,,,,,seventh,9,21,Male,R,Donders,2021-07-13_22h57.58.266,ImageRatingTask_S1,2021.1.4,Win32,59.91970759,,,,,,,,,,,,,,,,,,,,,0,6,6,6,1,,,,,,,,,
,,,,,,,,,,,,,,,last,9,21,Male,R,Donders,2021-07-13_22h57.58.266,ImageRatingTask_S1,2021.1.4,Win32,59.91970759,,,,,,,,,,,,,,,,,,,,,0,7,7,7,1,,,,,,,,,
,,,,,,,,,,,,,,,,9,21,Male,R,Donders,2021-07-13_22h57.58.266,ImageRatingTask_S1,2021.1.4,Win32,59.91970759,,,,,,,,,,,,,,,,,,,,,,,,,,0,21,21,87,1,DreamStudyImages_rs1000x750g/Houses/Landscapes_012_h.jpg,,,
,,,,,,,,,,,,,,,main,9,21,Male,R,Donders,2021-07-13_22h57.58.266,ImageRatingTask_S1,2021.1.4,Win32,59.91970759,,,,,,,,,,,1,3.093,7,0.4531,3,16.0736,1,2.8448,6,1.0482,0,0,0,0,1,,,,,,,,,
,,,,,,,,,,,,,,,second,9,21,Male,R,Donders,2021-07-13_22h57.58.266,ImageRatingTask_S1,2021.1.4,Win32,59.91970759,,,,,,,,,,,,,,,,,,,,,0,1,1,1,1,,,,,,,,,
,,,,,,,,,,,,,,,third,9,21,Male,R,Donders,2021-07-13_22h57.58.266,ImageRatingTask_S1,2021.1.4,Win32,59.91970759,,,,,,,,,,,,,,,,,,,,,0,2,2,2,1,,,,,,,,,
,,,,,,,,,,,,,,,fourth,9,21,Male,R,Donders,2021-07-13_22h57.58.266,ImageRatingTask_S1,2021.1.4,Win32,59.91970759,,,,,,,,,,,,,,,,,,,,,0,3,3,3,1,,,,,,,,,
,,,,,,,,,,,,,,,fifth,9,21,Male,R,Donders,2021-07-13_22h57.58.266,ImageRatingTask_S1,2021.1.4,Win32,59.91970759,,,,,,,,,,,,,,,,,,,,,0,4,4,4,1,,,,,,,,,
,,,,,,,,,,,,,,,sixth,9,21,Male,R,Donders,2021-07-13_22h57.58.266,ImageRatingTask_S1,2021.1.4,Win32,59.91970759,,,,,,,,,,,,,,,,,,,,,0,5,5,5,1,,,,,,,,,
,,,,,,,,,,,,,,,seventh,9,21,Male,R,Donders,2021-07-13_22h57.58.266,ImageRatingTask_S1,2021.1.4,Win32,59.91970759,,,,,,,,,,,,,,,,,,,,,0,6,6,6,1,,,,,,,,,
,,,,,,,,,,,,,,,last,9,21,Male,R,Donders,2021-07-13_22h57.58.266,ImageRatingTask_S1,2021.1.4,Win32,59.91970759,,,,,,,,,,,,,,,,,,,,,0,7,7,7,1,,,,,,,,,
,,,,,,,,,,,,,,,,9,21,Male,R,Donders,2021-07-13_22h57.58.266,ImageRatingTask_S1,2021.1.4,Win32,59.91970759,,,,,,,,,,,,,,,,,,,,,,,,,,0,22,22,27,1,DreamStudyImages_rs1000x750g/Houses/9470.jpg,,,
,,,,,,,,,,,,,,,main,9,21,Male,R,Donders,2021-07-13_22h57.58.266,ImageRatingTask_S1,2021.1.4,Win32,59.91970759,,,,,,,,,,,6,4.6754,4,1.982,5,1.5919,2,2.4781,3,1.4054,0,0,0,0,1,,,,,,,,,
,,,,,,,,,,,,,,,second,9,21,Male,R,Donders,2021-07-13_22h57.58.266,ImageRatingTask_S1,2021.1.4,Win32,59.91970759,,,,,,,,,,,,,,,,,,,5,1.2046,0,1,1,1,1,,,,,,,,,
,,,,,,,,,,,,,,,third,9,21,Male,R,Donders,2021-07-13_22h57.58.266,ImageRatingTask_S1,2021.1.4,Win32,59.91970759,,,,,,,,,,,,,,,,,,,,,0,2,2,2,1,,,,,,,,,
,,,,,,,,,,,,,,,fourth,9,21,Male,R,Donders,2021-07-13_22h57.58.266,ImageRatingTask_S1,2021.1.4,Win32,59.91970759,,,,,,,,,,,,,,,,,,,,,0,3,3,3,1,,,,,,,,,
,,,,,,,,,,,,,,,fifth,9,21,Male,R,Donders,2021-07-13_22h57.58.266,ImageRatingTask_S1,2021.1.4,Win32,59.91970759,,,,,,,,,,,,,,,,,,,,,0,4,4,4,1,,,,,,,,,
,,,,,,,,,,,,,,,sixth,9,21,Male,R,Donders,2021-07-13_22h57.58.266,ImageRatingTask_S1,2021.1.4,Win32,59.91970759,,,,,,,,,,,,,,,,,,,,,0,5,5,5,1,,,,,,,,,
,,,,,,,,,,,,,,,seventh,9,21,Male,R,Donders,2021-07-13_22h57.58.266,ImageRatingTask_S1,2021.1.4,Win32,59.91970759,,,,,,,,,,,,,,,,,,,,,0,6,6,6,1,,,,,,,,,
,,,,,,,,,,,,,,,last,9,21,Male,R,Donders,2021-07-13_22h57.58.266,ImageRatingTask_S1,2021.1.4,Win32,59.91970759,,,,,,,,,,,,,,,,,,,,,0,7,7,7,1,,,,,,,,,
,,,,,,,,,,,,,,,,9,21,Male,R,Donders,2021-07-13_22h57.58.266,ImageRatingTask_S1,2021.1.4,Win32,59.91970759,,,,,,,,,,,,,,,,,,,,,,,,,,0,23,23,25,1,DreamStudyImages_rs1000x750g/Mammals/IAPS1310_bigcat.jpg,,,
,,,,,,,,,,,,,,,main,9,21,Male,R,Donders,2021-07-13_22h57.58.266,ImageRatingTask_S1,2021.1.4,Win32,59.91970759,,,,,,,,,,,1,2.3552,8,0.5031,2,2.2394,1,3.4061,2,0.4011,0,0,0,0,1,,,,,,,,,
,,,,,,,,,,,,,,,second,9,21,Male,R,Donders,2021-07-13_22h57.58.266,ImageRatingTask_S1,2021.1.4,Win32,59.91970759,,,,,,,,,,,,,,,,,,,,,0,1,1,1,1,,,,,,,,,
,,,,,,,,,,,,,,,third,9,21,Male,R,Donders,2021-07-13_22h57.58.266,ImageRatingTask_S1,2021.1.4,Win32,59.91970759,,,,,,,,,,,,,,,,,,,,,0,2,2,2,1,,,,,,,,,
,,,,,,,,,,,,,,,fourth,9,21,Male,R,Donders,2021-07-13_22h57.58.266,ImageRatingTask_S1,2021.1.4,Win32,59.91970759,,,,,,,,,,,,,,,,,,,,,0,3,3,3,1,,,,,,,,,
,,,,,,,,,,,,,,,fifth,9,21,Male,R,Donders,2021-07-13_22h57.58.266,ImageRatingTask_S1,2021.1.4,Win32,59.91970759,,,,,,,,,,,,,,,,,,,,,0,4,4,4,1,,,,,,,,,
,,,,,,,,,,,,,,,sixth,9,21,Male,R,Donders,2021-07-13_22h57.58.266,ImageRatingTask_S1,2021.1.4,Win32,59.91970759,,,,,,,,,,,,,,,,,,,,,0,5,5,5,1,,,,,,,,,
,,,,,,,,,,,,,,,seventh,9,21,Male,R,Donders,2021-07-13_22h57.58.266,ImageRatingTask_S1,2021.1.4,Win32,59.91970759,,,,,,,,,,,,,,,,,,,,,0,6,6,6,1,,,,,,,,,
,,,,,,,,,,,,,,,last,9,21,Male,R,Donders,2021-07-13_22h57.58.266,ImageRatingTask_S1,2021.1.4,Win32,59.91970759,,,,,,,,,,,,,,,,,,,,,0,7,7,7,1,,,,,,,,,
,,,,,,,,,,,,,,,,9,21,Male,R,Donders,2021-07-13_22h57.58.266,ImageRatingTask_S1,2021.1.4,Win32,59.91970759,,,,,,,,,,,,,,,,,,,,,,,,,,0,24,24,5,1,DreamStudyImages_rs1000x750g/Children/IAPS3300_baby25.jpg,,,
,,,,,,,,,,,,,,,main,9,21,Male,R,Donders,2021-07-13_22h57.58.266,ImageRatingTask_S1,2021.1.4,Win32,59.91970759,,,,,,,,,,,5,4.9774,2,1.335,4,1.919,1,2.4074,8,0.6974,0,0,0,0,1,,,,,,,,,
,,,,,,,,,,,,,,,second,9,21,Male,R,Donders,2021-07-13_22h57.58.266,ImageRatingTask_S1,2021.1.4,Win32,59.91970759,,,,,,,,,,,,,,,,,,,,,0,1,1,1,1,,,,,,,,,
,,,,,,,,,,,,,,,third,9,21,Male,R,Donders,2021-07-13_22h57.58.266,ImageRatingTask_S1,2021.1.4,Win32,59.91970759,,,,,,,,,,,,,,,,,,,,,0,2,2,2,1,,,,,,,,,
,,,,,,,,,,,,,,,fourth,9,21,Male,R,Donders,2021-07-13_22h57.58.266,ImageRatingTask_S1,2021.1.4,Win32,59.91970759,,,,,,,,,,,,,,,,,,,,,0,3,3,3,1,,,,,,,,,
,,,,,,,,,,,,,,,fifth,9,21,Male,R,Donders,2021-07-13_22h57.58.266,ImageRatingTask_S1,2021.1.4,Win32,59.91970759,,,,,,,,,,,,,,,,,,,,,0,4,4,4,1,,,,,,,,,
,,,,,,,,,,,,,,,sixth,9,21,Male,R,Donders,2021-07-13_22h57.58.266,ImageRatingTask_S1,2021.1.4,Win32,59.91970759,,,,,,,,,,,,,,,,,,,,,0,5,5,5,1,,,,,,,,,
,,,,,,,,,,,,,,,seventh,9,21,Male,R,Donders,2021-07-13_22h57.58.266,ImageRatingTask_S1,2021.1.4,Win32,59.91970759,,,,,,,,,,,,,,,,,,,,,0,6,6,6,1,,,,,,,,,
,,,,,,,,,,,,,,,last,9,21,Male,R,Donders,2021-07-13_22h57.58.266,ImageRatingTask_S1,2021.1.4,Win32,59.91970759,,,,,,,,,,,,,,,,,,,,,0,7,7,7,1,,,,,,,,,
,,,,,,,,,,,,,,,,9,21,Male,R,Donders,2021-07-13_22h57.58.266,ImageRatingTask_S1,2021.1.4,Win32,59.91970759,,,,,,,,,,,,,,,,,,,,,,,,,,0,25,25,3,1,DreamStudyImages_rs1000x750g/Water/NDPS125_volcanicwater.jpg,,,
,,,,,,,,,,,,,,,main,9,21,Male,R,Donders,2021-07-13_22h57.58.266,ImageRatingTask_S1,2021.1.4,Win32,59.91970759,,,,,,,,,,,1,5.4958,9,0.5275,4,2.6283,1,3.3226,5,0.7567,0,0,0,0,1,,,,,,,,,
,,,,,,,,,,,,,,,second,9,21,Male,R,Donders,2021-07-13_22h57.58.266,ImageRatingTask_S1,2021.1.4,Win32,59.91970759,,,,,,,,,,,,,,,,,,,,,0,1,1,1,1,,,,,,,,,
,,,,,,,,,,,,,,,third,9,21,Male,R,Donders,2021-07-13_22h57.58.266,ImageRatingTask_S1,2021.1.4,Win32,59.91970759,,,,,,,,,,,,,,,,,,,,,0,2,2,2,1,,,,,,,,,
,,,,,,,,,,,,,,,fourth,9,21,Male,R,Donders,2021-07-13_22h57.58.266,ImageRatingTask_S1,2021.1.4,Win32,59.91970759,,,,,,,,,,,,,,,,,,,,,0,3,3,3,1,,,,,,,,,
,,,,,,,,,,,,,,,fifth,9,21,Male,R,Donders,2021-07-13_22h57.58.266,ImageRatingTask_S1,2021.1.4,Win32,59.91970759,,,,,,,,,,,,,,,,,,,,,0,4,4,4,1,,,,,,,,,
,,,,,,,,,,,,,,,sixth,9,21,Male,R,Donders,2021-07-13_22h57.58.266,ImageRatingTask_S1,2021.1.4,Win32,59.91970759,,,,,,,,,,,,,,,,,,,,,0,5,5,5,1,,,,,,,,,
,,,,,,,,,,,,,,,seventh,9,21,Male,R,Donders,2021-07-13_22h57.58.266,ImageRatingTask_S1,2021.1.4,Win32,59.91970759,,,,,,,,,,,,,,,,,,,,,0,6,6,6,1,,,,,,,,,
,,,,,,,,,,,,,,,last,9,21,Male,R,Donders,2021-07-13_22h57.58.266,ImageRatingTask_S1,2021.1.4,Win32,59.91970759,,,,,,,,,,,,,,,,,,,,,0,7,7,7,1,,,,,,,,,
,,,,,,,,,,,,,,,,9,21,Male,R,Donders,2021-07-13_22h57.58.266,ImageRatingTask_S1,2021.1.4,Win32,59.91970759,,,,,,,,,,,,,,,,,,,,,,,,,,0,26,26,86,1,DreamStudyImages_rs1000x750g/Food/Objects_022_h.jpg,,,
,,,,,,,,,,,,,,,main,9,21,Male,R,Donders,2021-07-13_22h57.58.266,ImageRatingTask_S1,2021.1.4,Win32,59.91970759,,,,,,,,,,,7,2.2529,1,1.0169,4,2.3505,1,2.7905,8,0.6349,0,0,0,0,1,,,,,,,,,
,,,,,,,,,,,,,,,second,9,21,Male,R,Donders,2021-07-13_22h57.58.266,ImageRatingTask_S1,2021.1.4,Win32,59.91970759,,,,,,,,,,,,,,,,,,,,,0,1,1,1,1,,,,,,,,,
,,,,,,,,,,,,,,,third,9,21,Male,R,Donders,2021-07-13_22h57.58.266,ImageRatingTask_S1,2021.1.4,Win32,59.91970759,,,,,,,,,,,,,,,,,,,,,0,2,2,2,1,,,,,,,,,
,,,,,,,,,,,,,,,fourth,9,21,Male,R,Donders,2021-07-13_22h57.58.266,ImageRatingTask_S1,2021.1.4,Win32,59.91970759,,,,,,,,,,,,,,,,,,,,,0,3,3,3,1,,,,,,,,,
,,,,,,,,,,,,,,,fifth,9,21,Male,R,Donders,2021-07-13_22h57.58.266,ImageRatingTask_S1,2021.1.4,Win32,59.91970759,,,,,,,,,,,,,,,,,,,,,0,4,4,4,1,,,,,,,,,
,,,,,,,,,,,,,,,sixth,9,21,Male,R,Donders,2021-07-13_22h57.58.266,ImageRatingTask_S1,2021.1.4,Win32,59.91970759,,,,,,,,,,,,,,,,,,,,,0,5,5,5,1,,,,,,,,,
,,,,,,,,,,,,,,,seventh,9,21,Male,R,Donders,2021-07-13_22h57.58.266,ImageRatingTask_S1,2021.1.4,Win32,59.91970759,,,,,,,,,,,,,,,,,,,,,0,6,6,6,1,,,,,,,,,
,,,,,,,,,,,,,,,last,9,21,Male,R,Donders,2021-07-13_22h57.58.266,ImageRatingTask_S1,2021.1.4,Win32,59.91970759,,,,,,,,,,,,,,,,,,,,,0,7,7,7,1,,,,,,,,,
,,,,,,,,,,,,,,,,9,21,Male,R,Donders,2021-07-13_22h57.58.266,ImageRatingTask_S1,2021.1.4,Win32,59.91970759,,,,,,,,,,,,,,,,,,,,,,,,,,0,27,27,75,1,DreamStudyImages_rs1000x750g/Water/Landscapes_169_h.jpg,,,
,,,,,,,,,,,,,,,main,9,21,Male,R,Donders,2021-07-13_22h57.58.266,ImageRatingTask_S1,2021.1.4,Win32,59.91970759,,,,,,,,,,,7,8.308,1,1.1876,6,1.2454,1,1.2079,2,0.4301,0,0,0,0,1,,,,,,,,,
,,,,,,,,,,,,,,,second,9,21,Male,R,Donders,2021-07-13_22h57.58.266,ImageRatingTask_S1,2021.1.4,Win32,59.91970759,,,,,,,,,,,,,,,,,,,,,0,1,1,1,1,,,,,,,,,
,,,,,,,,,,,,,,,third,9,21,Male,R,Donders,2021-07-13_22h57.58.266,ImageRatingTask_S1,2021.1.4,Win32,59.91970759,,,,,,,,,,,,,,,,,,,,,0,2,2,2,1,,,,,,,,,
,,,,,,,,,,,,,,,fourth,9,21,Male,R,Donders,2021-07-13_22h57.58.266,ImageRatingTask_S1,2021.1.4,Win32,59.91970759,,,,,,,,,,,,,,,,,,,,,0,3,3,3,1,,,,,,,,,
,,,,,,,,,,,,,,,fifth,9,21,Male,R,Donders,2021-07-13_22h57.58.266,ImageRatingTask_S1,2021.1.4,Win32,59.91970759,,,,,,,,,,,,,,,,,,,,,0,4,4,4,1,,,,,,,,,
,,,,,,,,,,,,,,,sixth,9,21,Male,R,Donders,2021-07-13_22h57.58.266,ImageRatingTask_S1,2021.1.4,Win32,59.91970759,,,,,,,,,,,,,,,,,,,,,0,5,5,5,1,,,,,,,,,
,,,,,,,,,,,,,,,seventh,9,21,Male,R,Donders,2021-07-13_22h57.58.266,ImageRatingTask_S1,2021.1.4,Win32,59.91970759,,,,,,,,,,,,,,,,,,,,,0,6,6,6,1,,,,,,,,,
,,,,,,,,,,,,,,,last,9,21,Male,R,Donders,2021-07-13_22h57.58.266,ImageRatingTask_S1,2021.1.4,Win32,59.91970759,,,,,,,,,,,,,,,,,,,,,0,7,7,7,1,,,,,,,,,
,,,,,,,,,,,,,,,,9,21,Male,R,Donders,2021-07-13_22h57.58.266,ImageRatingTask_S1,2021.1.4,Win32,59.91970759,,,,,,,,,,,,,,,,,,,,,,,,,,0,28,28,62,1,DreamStudyImages_rs1000x750g/Children/Faces_047_h.jpg,,,
,,,,,,,,,,,,,,,main,9,21,Male,R,Donders,2021-07-13_22h57.58.266,ImageRatingTask_S1,2021.1.4,Win32,59.91970759,,,,,,,,,,,7,5.8206,1,1.0167,2,0.7251,1,3.1082,3,0.7093,0,0,0,0,1,,,,,,,,,
,,,,,,,,,,,,,,,second,9,21,Male,R,Donders,2021-07-13_22h57.58.266,ImageRatingTask_S1,2021.1.4,Win32,59.91970759,,,,,,,,,,,,,,,,,,,,,0,1,1,1,1,,,,,,,,,
,,,,,,,,,,,,,,,third,9,21,Male,R,Donders,2021-07-13_22h57.58.266,ImageRatingTask_S1,2021.1.4,Win32,59.91970759,,,,,,,,,,,,,,,,,,,,,0,2,2,2,1,,,,,,,,,
,,,,,,,,,,,,,,,fourth,9,21,Male,R,Donders,2021-07-13_22h57.58.266,ImageRatingTask_S1,2021.1.4,Win32,59.91970759,,,,,,,,,,,,,,,,,,,,,0,3,3,3,1,,,,,,,,,
,,,,,,,,,,,,,,,fifth,9,21,Male,R,Donders,2021-07-13_22h57.58.266,ImageRatingTask_S1,2021.1.4,Win32,59.91970759,,,,,,,,,,,,,,,,,,,,,0,4,4,4,1,,,,,,,,,
,,,,,,,,,,,,,,,sixth,9,21,Male,R,Donders,2021-07-13_22h57.58.266,ImageRatingTask_S1,2021.1.4,Win32,59.91970759,,,,,,,,,,,,,,,,,,,,,0,5,5,5,1,,,,,,,,,
,,,,,,,,,,,,,,,seventh,9,21,Male,R,Donders,2021-07-13_22h57.58.266,ImageRatingTask_S1,2021.1.4,Win32,59.91970759,,,,,,,,,,,,,,,,,,,,,0,6,6,6,1,,,,,,,,,
,,,,,,,,,,,,,,,last,9,21,Male,R,Donders,2021-07-13_22h57.58.266,ImageRatingTask_S1,2021.1.4,Win32,59.91970759,,,,,,,,,,,,,,,,,,,,,0,7,7,7,1,,,,,,,,,
,,,,,,,,,,,,,,,,9,21,Male,R,Donders,2021-07-13_22h57.58.266,ImageRatingTask_S1,2021.1.4,Win32,59.91970759,,,,,,,,,,,,,,,,,,,,,,,,,,0,29,29,48,1,DreamStudyImages_rs1000x750g/Mammals/Animals_208_h.jpg,,,
,,,,,,,,,,,,,,,main,9,21,Male,R,Donders,2021-07-13_22h57.58.266,ImageRatingTask_S1,2021.1.4,Win32,59.91970759,,,,,,,,,,,4,3.3481,2,0.8735,3,2.0552,1,2.2922,6,0.9443,0,0,0,0,1,,,,,,,,,
,,,,,,,,,,,,,,,second,9,21,Male,R,Donders,2021-07-13_22h57.58.266,ImageRatingTask_S1,2021.1.4,Win32,59.91970759,,,,,,,,,,,,,,,,,,,,,0,1,1,1,1,,,,,,,,,
,,,,,,,,,,,,,,,third,9,21,Male,R,Donders,2021-07-13_22h57.58.266,ImageRatingTask_S1,2021.1.4,Win32,59.91970759,,,,,,,,,,,,,,,,,,,,,0,2,2,2,1,,,,,,,,,
,,,,,,,,,,,,,,,fourth,9,21,Male,R,Donders,2021-07-13_22h57.58.266,ImageRatingTask_S1,2021.1.4,Win32,59.91970759,,,,,,,,,,,,,,,,,,,,,0,3,3,3,1,,,,,,,,,
,,,,,,,,,,,,,,,fifth,9,21,Male,R,Donders,2021-07-13_22h57.58.266,ImageRatingTask_S1,2021.1.4,Win32,59.91970759,,,,,,,,,,,,,,,,,,,,,0,4,4,4,1,,,,,,,,,
,,,,,,,,,,,,,,,sixth,9,21,Male,R,Donders,2021-07-13_22h57.58.266,ImageRatingTask_S1,2021.1.4,Win32,59.91970759,,,,,,,,,,,,,,,,,,,,,0,5,5,5,1,,,,,,,,,
,,,,,,,,,,,,,,,seventh,9,21,Male,R,Donders,2021-07-13_22h57.58.266,ImageRatingTask_S1,2021.1.4,Win32,59.91970759,,,,,,,,,,,,,,,,,,,,,0,6,6,6,1,,,,,,,,,
,,,,,,,,,,,,,,,last,9,21,Male,R,Donders,2021-07-13_22h57.58.266,ImageRatingTask_S1,2021.1.4,Win32,59.91970759,,,,,,,,,,,,,,,,,,,,,0,7,7,7,1,,,,,,,,,
,,,,,,,,,,,,,,,,9,21,Male,R,Donders,2021-07-13_22h57.58.266,ImageRatingTask_S1,2021.1.4,Win32,59.91970759,,,,,,,,,,,,,,,,,,,,,,,,,,0,30,30,33,1,DreamStudyImages_rs1000x750g/Houses/Landscapes_018_h_CROPPED.jpg,,,
,,,,,,,,,,,,,,,main,9,21,Male,R,Donders,2021-07-13_22h57.58.266,ImageRatingTask_S1,2021.1.4,Win32,59.91970759,,,,,,,,,,,2,2.5674,8,1.1295,1,2.4232,1,4.1696,7,0.8355,0,0,0,0,1,,,,,,,,,
,,,,,,,,,,,,,,,second,9,21,Male,R,Donders,2021-07-13_22h57.58.266,ImageRatingTask_S1,2021.1.4,Win32,59.91970759,,,,,,,,,,,,,,,,,,,,,0,1,1,1,1,,,,,,,,,
,,,,,,,,,,,,,,,third,9,21,Male,R,Donders,2021-07-13_22h57.58.266,ImageRatingTask_S1,2021.1.4,Win32,59.91970759,,,,,,,,,,,,,,,,,,,,,0,2,2,2,1,,,,,,,,,
,,,,,,,,,,,,,,,fourth,9,21,Male,R,Donders,2021-07-13_22h57.58.266,ImageRatingTask_S1,2021.1.4,Win32,59.91970759,,,,,,,,,,,,,,,,,,,,,0,3,3,3,1,,,,,,,,,
,,,,,,,,,,,,,,,fifth,9,21,Male,R,Donders,2021-07-13_22h57.58.266,ImageRatingTask_S1,2021.1.4,Win32,59.91970759,,,,,,,,,,,,,,,,,,,,,0,4,4,4,1,,,,,,,,,
,,,,,,,,,,,,,,,sixth,9,21,Male,R,Donders,2021-07-13_22h57.58.266,ImageRatingTask_S1,2021.1.4,Win32,59.91970759,,,,,,,,,,,,,,,,,,,,,0,5,5,5,1,,,,,,,,,
,,,,,,,,,,,,,,,seventh,9,21,Male,R,Donders,2021-07-13_22h57.58.266,ImageRatingTask_S1,2021.1.4,Win32,59.91970759,,,,,,,,,,,,,,,,,,,,,0,6,6,6,1,,,,,,,,,
,,,,,,,,,,,,,,,last,9,21,Male,R,Donders,2021-07-13_22h57.58.266,ImageRatingTask_S1,2021.1.4,Win32,59.91970759,,,,,,,,,,,,,,,,,,,,,0,7,7,7,1,,,,,,,,,
,,,,,,,,,,,,,,,,9,21,Male,R,Donders,2021-07-13_22h57.58.266,ImageRatingTask_S1,2021.1.4,Win32,59.91970759,,,,,,,,,,,,,,,,,,,,,,,,,,0,31,31,55,1,DreamStudyImages_rs1000x750g/Vehicles/IAPS9090_car3.jpg,,,
,,,,,,,,,,,,,,,main,9,21,Male,R,Donders,2021-07-13_22h57.58.266,ImageRatingTask_S1,2021.1.4,Win32,59.91970759,,,,,,,,,,,8,2.2014,1,1.2662,7,2.452,1,3.389,3,0.4483,0,0,0,0,1,,,,,,,,,
,,,,,,,,,,,,,,,second,9,21,Male,R,Donders,2021-07-13_22h57.58.266,ImageRatingTask_S1,2021.1.4,Win32,59.91970759,,,,,,,,,,,,,,,,,,,,,0,1,1,1,1,,,,,,,,,
,,,,,,,,,,,,,,,third,9,21,Male,R,Donders,2021-07-13_22h57.58.266,ImageRatingTask_S1,2021.1.4,Win32,59.91970759,,,,,,,,,,,,,,,,,,,,,0,2,2,2,1,,,,,,,,,
,,,,,,,,,,,,,,,fourth,9,21,Male,R,Donders,2021-07-13_22h57.58.266,ImageRatingTask_S1,2021.1.4,Win32,59.91970759,,,,,,,,,,,,,,,,,,,,,0,3,3,3,1,,,,,,,,,
,,,,,,,,,,,,,,,fifth,9,21,Male,R,Donders,2021-07-13_22h57.58.266,ImageRatingTask_S1,2021.1.4,Win32,59.91970759,,,,,,,,,,,,,,,,,,,,,0,4,4,4,1,,,,,,,,,
,,,,,,,,,,,,,,,sixth,9,21,Male,R,Donders,2021-07-13_22h57.58.266,ImageRatingTask_S1,2021.1.4,Win32,59.91970759,,,,,,,,,,,,,,,,,,,,,0,5,5,5,1,,,,,,,,,
,,,,,,,,,,,,,,,seventh,9,21,Male,R,Donders,2021-07-13_22h57.58.266,ImageRatingTask_S1,2021.1.4,Win32,59.91970759,,,,,,,,,,,,,,,,,,,,,0,6,6,6,1,,,,,,,,,
,,,,,,,,,,,,,,,last,9,21,Male,R,Donders,2021-07-13_22h57.58.266,ImageRatingTask_S1,2021.1.4,Win32,59.91970759,,,,,,,,,,,,,,,,,,,,,0,7,7,7,1,,,,,,,,,
,,,,,,,,,,,,,,,,9,21,Male,R,Donders,2021-07-13_22h57.58.266,ImageRatingTask_S1,2021.1.4,Win32,59.91970759,,,,,,,,,,,,,,,,,,,,,,,,,,0,32,32,110,1,DreamStudyImages_rs1000x750g/Mammals/Dog 18.jpg,,,
,,,,,,,,,,,,,,,main,9,21,Male,R,Donders,2021-07-13_22h57.58.266,ImageRatingTask_S1,2021.1.4,Win32,59.91970759,,,,,,,,,,,1,3.8367,7,2.2917,4,4.4587,1,6.0592,6,1.1949,0,0,0,0,1,,,,,,,,,
,,,,,,,,,,,,,,,second,9,21,Male,R,Donders,2021-07-13_22h57.58.266,ImageRatingTask_S1,2021.1.4,Win32,59.91970759,,,,,,,,,,,,,,,,,,,,,0,1,1,1,1,,,,,,,,,
,,,,,,,,,,,,,,,third,9,21,Male,R,Donders,2021-07-13_22h57.58.266,ImageRatingTask_S1,2021.1.4,Win32,59.91970759,,,,,,,,,,,,,,,,,,,,,0,2,2,2,1,,,,,,,,,
,,,,,,,,,,,,,,,fourth,9,21,Male,R,Donders,2021-07-13_22h57.58.266,ImageRatingTask_S1,2021.1.4,Win32,59.91970759,,,,,,,,,,,,,,,,,,,,,0,3,3,3,1,,,,,,,,,
,,,,,,,,,,,,,,,fifth,9,21,Male,R,Donders,2021-07-13_22h57.58.266,ImageRatingTask_S1,2021.1.4,Win32,59.91970759,,,,,,,,,,,,,,,,,,,,,0,4,4,4,1,,,,,,,,,
,,,,,,,,,,,,,,,sixth,9,21,Male,R,Donders,2021-07-13_22h57.58.266,ImageRatingTask_S1,2021.1.4,Win32,59.91970759,,,,,,,,,,,,,,,,,,,,,0,5,5,5,1,,,,,,,,,
,,,,,,,,,,,,,,,seventh,9,21,Male,R,Donders,2021-07-13_22h57.58.266,ImageRatingTask_S1,2021.1.4,Win32,59.91970759,,,,,,,,,,,,,,,,,,,,,0,6,6,6,1,,,,,,,,,
,,,,,,,,,,,,,,,last,9,21,Male,R,Donders,2021-07-13_22h57.58.266,ImageRatingTask_S1,2021.1.4,Win32,59.91970759,,,,,,,,,,,,,,,,,,,,,0,7,7,7,1,,,,,,,,,
,,,,,,,,,,,,,,,,9,21,Male,R,Donders,2021-07-13_22h57.58.266,ImageRatingTask_S1,2021.1.4,Win32,59.91970759,,,,,,,,,,,,,,,,,,,,,,,,,,0,33,33,151,1,DreamStudyImages_rs1000x750g/Houses/NDPS11_buildings4.jpg,,,
,,,,,,,,,,,,,,,main,9,21,Male,R,Donders,2021-07-13_22h57.58.266,ImageRatingTask_S1,2021.1.4,Win32,59.91970759,,,,,,,,,,,7,2.0766,1,0.8915,5,1.471,1,2.0742,5,0.8276,0,0,0,0,1,,,,,,,,,
,,,,,,,,,,,,,,,second,9,21,Male,R,Donders,2021-07-13_22h57.58.266,ImageRatingTask_S1,2021.1.4,Win32,59.91970759,,,,,,,,,,,,,,,,,,,,,0,1,1,1,1,,,,,,,,,
,,,,,,,,,,,,,,,third,9,21,Male,R,Donders,2021-07-13_22h57.58.266,ImageRatingTask_S1,2021.1.4,Win32,59.91970759,,,,,,,,,,,,,,,,,,,,,0,2,2,2,1,,,,,,,,,
,,,,,,,,,,,,,,,fourth,9,21,Male,R,Donders,2021-07-13_22h57.58.266,ImageRatingTask_S1,2021.1.4,Win32,59.91970759,,,,,,,,,,,,,,,,,,,,,0,3,3,3,1,,,,,,,,,
,,,,,,,,,,,,,,,fifth,9,21,Male,R,Donders,2021-07-13_22h57.58.266,ImageRatingTask_S1,2021.1.4,Win32,59.91970759,,,,,,,,,,,,,,,,,,,,,0,4,4,4,1,,,,,,,,,
,,,,,,,,,,,,,,,sixth,9,21,Male,R,Donders,2021-07-13_22h57.58.266,ImageRatingTask_S1,2021.1.4,Win32,59.91970759,,,,,,,,,,,,,,,,,,,,,0,5,5,5,1,,,,,,,,,
,,,,,,,,,,,,,,,seventh,9,21,Male,R,Donders,2021-07-13_22h57.58.266,ImageRatingTask_S1,2021.1.4,Win32,59.91970759,,,,,,,,,,,,,,,,,,,,,0,6,6,6,1,,,,,,,,,
,,,,,,,,,,,,,,,last,9,21,Male,R,Donders,2021-07-13_22h57.58.266,ImageRatingTask_S1,2021.1.4,Win32,59.91970759,,,,,,,,,,,,,,,,,,,,,0,7,7,7,1,,,,,,,,,
,,,,,,,,,,,,,,,,9,21,Male,R,Donders,2021-07-13_22h57.58.266,ImageRatingTask_S1,2021.1.4,Win32,59.91970759,,,,,,,,,,,,,,,,,,,,,,,,,,0,34,34,128,1,DreamStudyImages_rs1000x750g/Food/Dessert 4.jpg,,,
,,,,,,,,,,,,,,,main,9,21,Male,R,Donders,2021-07-13_22h57.58.266,ImageRatingTask_S1,2021.1.4,Win32,59.91970759,,,,,,,,,,,3,3.8461,4,1.6502,8,1.5623,1,2.5687,7,0.9039,0,0,0,0,1,,,,,,,,,
,,,,,,,,,,,,,,,second,9,21,Male,R,Donders,2021-07-13_22h57.58.266,ImageRatingTask_S1,2021.1.4,Win32,59.91970759,,,,,,,,,,,,,,,,,,,,,0,1,1,1,1,,,,,,,,,
,,,,,,,,,,,,,,,third,9,21,Male,R,Donders,2021-07-13_22h57.58.266,ImageRatingTask_S1,2021.1.4,Win32,59.91970759,,,,,,,,,,,,,,,,,,,,,0,2,2,2,1,,,,,,,,,
,,,,,,,,,,,,,,,fourth,9,21,Male,R,Donders,2021-07-13_22h57.58.266,ImageRatingTask_S1,2021.1.4,Win32,59.91970759,,,,,,,,,,,,,,,,,,,,,0,3,3,3,1,,,,,,,,,
,,,,,,,,,,,,,,,fifth,9,21,Male,R,Donders,2021-07-13_22h57.58.266,ImageRatingTask_S1,2021.1.4,Win32,59.91970759,,,,,,,,,,,,,,,,,,,,,0,4,4,4,1,,,,,,,,,
,,,,,,,,,,,,,,,sixth,9,21,Male,R,Donders,2021-07-13_22h57.58.266,ImageRatingTask_S1,2021.1.4,Win32,59.91970759,,,,,,,,,,,,,,,,,,,,,0,5,5,5,1,,,,,,,,,
,,,,,,,,,,,,,,,seventh,9,21,Male,R,Donders,2021-07-13_22h57.58.266,ImageRatingTask_S1,2021.1.4,Win32,59.91970759,,,,,,,,,,,,,,,,,,,,,0,6,6,6,1,,,,,,,,,
,,,,,,,,,,,,,,,last,9,21,Male,R,Donders,2021-07-13_22h57.58.266,ImageRatingTask_S1,2021.1.4,Win32,59.91970759,,,,,,,,,,,,,,,,,,,,,0,7,7,7,1,,,,,,,,,
,,,,,,,,,,,,,,,,9,21,Male,R,Donders,2021-07-13_22h57.58.266,ImageRatingTask_S1,2021.1.4,Win32,59.91970759,,,,,,,,,,,,,,,,,,,,,,,,,,0,35,35,78,1,DreamStudyImages_rs1000x750g/Vehicles/Explosion 3.jpg,,,
,,,,,,,,,,,,,,,main,9,21,Male,R,Donders,2021-07-13_22h57.58.266,ImageRatingTask_S1,2021.1.4,Win32,59.91970759,,,,,,,,,,,6,4.0674,5,0.9178,4,1.7382,1,2.1263,6,0.926,0,0,0,0,1,,,,,,,,,
,,,,,,,,,,,,,,,second,9,21,Male,R,Donders,2021-07-13_22h57.58.266,ImageRatingTask_S1,2021.1.4,Win32,59.91970759,,,,,,,,,,,,,,,,,,,,,0,1,1,1,1,,,,,,,,,
,,,,,,,,,,,,,,,third,9,21,Male,R,Donders,2021-07-13_22h57.58.266,ImageRatingTask_S1,2021.1.4,Win32,59.91970759,,,,,,,,,,,,,,,,,,,,,0,2,2,2,1,,,,,,,,,
,,,,,,,,,,,,,,,fourth,9,21,Male,R,Donders,2021-07-13_22h57.58.266,ImageRatingTask_S1,2021.1.4,Win32,59.91970759,,,,,,,,,,,,,,,,,,,,,0,3,3,3,1,,,,,,,,,
,,,,,,,,,,,,,,,fifth,9,21,Male,R,Donders,2021-07-13_22h57.58.266,ImageRatingTask_S1,2021.1.4,Win32,59.91970759,,,,,,,,,,,,,,,,,,,,,0,4,4,4,1,,,,,,,,,
,,,,,,,,,,,,,,,sixth,9,21,Male,R,Donders,2021-07-13_22h57.58.266,ImageRatingTask_S1,2021.1.4,Win32,59.91970759,,,,,,,,,,,,,,,,,,,,,0,5,5,5,1,,,,,,,,,
,,,,,,,,,,,,,,,seventh,9,21,Male,R,Donders,2021-07-13_22h57.58.266,ImageRatingTask_S1,2021.1.4,Win32,59.91970759,,,,,,,,,,,,,,,,,,,,,0,6,6,6,1,,,,,,,,,
,,,,,,,,,,,,,,,last,9,21,Male,R,Donders,2021-07-13_22h57.58.266,ImageRatingTask_S1,2021.1.4,Win32,59.91970759,,,,,,,,,,,,,,,,,,,,,0,7,7,7,1,,,,,,,,,
,,,,,,,,,,,,,,,,9,21,Male,R,Donders,2021-07-13_22h57.58.266,ImageRatingTask_S1,2021.1.4,Win32,59.91970759,,,,,,,,,,,,,,,,,,,,,,,,,,0,36,36,153,1,DreamStudyImages_rs1000x750g/Houses/IAPS7504_staircases.jpg,,,
,,,,,,,,,,,,,,,main,9,21,Male,R,Donders,2021-07-13_22h57.58.266,ImageRatingTask_S1,2021.1.4,Win32,59.91970759,,,,,,,,,,,7,2.622,1,1.0648,8,2.9179,1,3.5761,3,0.7884,0,0,0,0,1,,,,,,,,,
,,,,,,,,,,,,,,,second,9,21,Male,R,Donders,2021-07-13_22h57.58.266,ImageRatingTask_S1,2021.1.4,Win32,59.91970759,,,,,,,,,,,,,,,,,,,,,0,1,1,1,1,,,,,,,,,
,,,,,,,,,,,,,,,third,9,21,Male,R,Donders,2021-07-13_22h57.58.266,ImageRatingTask_S1,2021.1.4,Win32,59.91970759,,,,,,,,,,,,,,,,,,,,,0,2,2,2,1,,,,,,,,,
,,,,,,,,,,,,,,,fourth,9,21,Male,R,Donders,2021-07-13_22h57.58.266,ImageRatingTask_S1,2021.1.4,Win32,59.91970759,,,,,,,,,,,,,,,,,,,,,0,3,3,3,1,,,,,,,,,
,,,,,,,,,,,,,,,fifth,9,21,Male,R,Donders,2021-07-13_22h57.58.266,ImageRatingTask_S1,2021.1.4,Win32,59.91970759,,,,,,,,,,,,,,,,,,,,,0,4,4,4,1,,,,,,,,,
,,,,,,,,,,,,,,,sixth,9,21,Male,R,Donders,2021-07-13_22h57.58.266,ImageRatingTask_S1,2021.1.4,Win32,59.91970759,,,,,,,,,,,,,,,,,,,,,0,5,5,5,1,,,,,,,,,
,,,,,,,,,,,,,,,seventh,9,21,Male,R,Donders,2021-07-13_22h57.58.266,ImageRatingTask_S1,2021.1.4,Win32,59.91970759,,,,,,,,,,,,,,,,,,,,,0,6,6,6,1,,,,,,,,,
,,,,,,,,,,,,,,,last,9,21,Male,R,Donders,2021-07-13_22h57.58.266,ImageRatingTask_S1,2021.1.4,Win32,59.91970759,,,,,,,,,,,,,,,,,,,,,0,7,7,7,1,,,,,,,,,
,,,,,,,,,,,,,,,,9,21,Male,R,Donders,2021-07-13_22h57.58.266,ImageRatingTask_S1,2021.1.4,Win32,59.91970759,,,,,,,,,,,,,,,,,,,,,,,,,,0,37,37,116,1,DreamStudyImages_rs1000x750g/Mammals/Meerkat 1.jpg,,,
,,,,,,,,,,,,,,,main,9,21,Male,R,Donders,2021-07-13_22h57.58.266,ImageRatingTask_S1,2021.1.4,Win32,59.91970759,,,,,,,,,,,4,3.1638,6,4.8602,2,2.2698,1,5.6213,8,0.3741,0,0,0,0,1,,,,,,,,,
,,,,,,,,,,,,,,,second,9,21,Male,R,Donders,2021-07-13_22h57.58.266,ImageRatingTask_S1,2021.1.4,Win32,59.91970759,,,,,,,,,,,,,,,,,,,,,0,1,1,1,1,,,,,,,,,
,,,,,,,,,,,,,,,third,9,21,Male,R,Donders,2021-07-13_22h57.58.266,ImageRatingTask_S1,2021.1.4,Win32,59.91970759,,,,,,,,,,,,,,,,,,,,,0,2,2,2,1,,,,,,,,,
,,,,,,,,,,,,,,,fourth,9,21,Male,R,Donders,2021-07-13_22h57.58.266,ImageRatingTask_S1,2021.1.4,Win32,59.91970759,,,,,,,,,,,,,,,,,,,,,0,3,3,3,1,,,,,,,,,
,,,,,,,,,,,,,,,fifth,9,21,Male,R,Donders,2021-07-13_22h57.58.266,ImageRatingTask_S1,2021.1.4,Win32,59.91970759,,,,,,,,,,,,,,,,,,,,,0,4,4,4,1,,,,,,,,,
,,,,,,,,,,,,,,,sixth,9,21,Male,R,Donders,2021-07-13_22h57.58.266,ImageRatingTask_S1,2021.1.4,Win32,59.91970759,,,,,,,,,,,,,,,,,,,,,0,5,5,5,1,,,,,,,,,
,,,,,,,,,,,,,,,seventh,9,21,Male,R,Donders,2021-07-13_22h57.58.266,ImageRatingTask_S1,2021.1.4,Win32,59.91970759,,,,,,,,,,,,,,,,,,,,,0,6,6,6,1,,,,,,,,,
,,,,,,,,,,,,,,,last,9,21,Male,R,Donders,2021-07-13_22h57.58.266,ImageRatingTask_S1,2021.1.4,Win32,59.91970759,,,,,,,,,,,,,,,,,,,,,0,7,7,7,1,,,,,,,,,
,,,,,,,,,,,,,,,,9,21,Male,R,Donders,2021-07-13_22h57.58.266,ImageRatingTask_S1,2021.1.4,Win32,59.91970759,,,,,,,,,,,,,,,,,,,,,,,,,,0,38,38,31,1,DreamStudyImages_rs1000x750g/Water/89.jpg,,,
,,,,,,,,,,,,,,,main,9,21,Male,R,Donders,2021-07-13_22h57.58.266,ImageRatingTask_S1,2021.1.4,Win32,59.91970759,,,,,,,,,,,1,4.5282,7,0.4754,6,1.6815,2,3.8596,2,0.4979,0,0,0,0,1,,,,,,,,,
,,,,,,,,,,,,,,,second,9,21,Male,R,Donders,2021-07-13_22h57.58.266,ImageRatingTask_S1,2021.1.4,Win32,59.91970759,,,,,,,,,,,,,,,,,,,1,0.1836,0,1,1,1,1,,,,,,,,,
,,,,,,,,,,,,,,,third,9,21,Male,R,Donders,2021-07-13_22h57.58.266,ImageRatingTask_S1,2021.1.4,Win32,59.91970759,,,,,,,,,,,,,,,,,,,,,0,2,2,2,1,,,,,,,,,
,,,,,,,,,,,,,,,fourth,9,21,Male,R,Donders,2021-07-13_22h57.58.266,ImageRatingTask_S1,2021.1.4,Win32,59.91970759,,,,,,,,,,,,,,,,,,,,,0,3,3,3,1,,,,,,,,,
,,,,,,,,,,,,,,,fifth,9,21,Male,R,Donders,2021-07-13_22h57.58.266,ImageRatingTask_S1,2021.1.4,Win32,59.91970759,,,,,,,,,,,,,,,,,,,,,0,4,4,4,1,,,,,,,,,
,,,,,,,,,,,,,,,sixth,9,21,Male,R,Donders,2021-07-13_22h57.58.266,ImageRatingTask_S1,2021.1.4,Win32,59.91970759,,,,,,,,,,,,,,,,,,,,,0,5,5,5,1,,,,,,,,,
,,,,,,,,,,,,,,,seventh,9,21,Male,R,Donders,2021-07-13_22h57.58.266,ImageRatingTask_S1,2021.1.4,Win32,59.91970759,,,,,,,,,,,,,,,,,,,,,0,6,6,6,1,,,,,,,,,
,,,,,,,,,,,,,,,last,9,21,Male,R,Donders,2021-07-13_22h57.58.266,ImageRatingTask_S1,2021.1.4,Win32,59.91970759,,,,,,,,,,,,,,,,,,,,,0,7,7,7,1,,,,,,,,,
,,,,,,,,,,,,,,,,9,21,Male,R,Donders,2021-07-13_22h57.58.266,ImageRatingTask_S1,2021.1.4,Win32,59.91970759,,,,,,,,,,,,,,,,,,,,,,,,,,0,39,39,89,1,DreamStudyImages_rs1000x750g/Children/Faces_033_h.jpg,,,
,,,,,,,,,,,,,,,main,9,21,Male,R,Donders,2021-07-13_22h57.58.266,ImageRatingTask_S1,2021.1.4,Win32,59.91970759,,,,,,,,,,,8,3.0924,2,0.4543,7,1.7416,1,1.1427,5,0.7399,0,0,0,0,1,,,,,,,,,
,,,,,,,,,,,,,,,second,9,21,Male,R,Donders,2021-07-13_22h57.58.266,ImageRatingTask_S1,2021.1.4,Win32,59.91970759,,,,,,,,,,,,,,,,,,,,,0,1,1,1,1,,,,,,,,,
,,,,,,,,,,,,,,,third,9,21,Male,R,Donders,2021-07-13_22h57.58.266,ImageRatingTask_S1,2021.1.4,Win32,59.91970759,,,,,,,,,,,,,,,,,,,,,0,2,2,2,1,,,,,,,,,
,,,,,,,,,,,,,,,fourth,9,21,Male,R,Donders,2021-07-13_22h57.58.266,ImageRatingTask_S1,2021.1.4,Win32,59.91970759,,,,,,,,,,,,,,,,,,,,,0,3,3,3,1,,,,,,,,,
,,,,,,,,,,,,,,,fifth,9,21,Male,R,Donders,2021-07-13_22h57.58.266,ImageRatingTask_S1,2021.1.4,Win32,59.91970759,,,,,,,,,,,,,,,,,,,,,0,4,4,4,1,,,,,,,,,
,,,,,,,,,,,,,,,sixth,9,21,Male,R,Donders,2021-07-13_22h57.58.266,ImageRatingTask_S1,2021.1.4,Win32,59.91970759,,,,,,,,,,,,,,,,,,,,,0,5,5,5,1,,,,,,,,,
,,,,,,,,,,,,,,,seventh,9,21,Male,R,Donders,2021-07-13_22h57.58.266,ImageRatingTask_S1,2021.1.4,Win32,59.91970759,,,,,,,,,,,,,,,,,,,,,0,6,6,6,1,,,,,,,,,
,,,,,,,,,,,,,,,last,9,21,Male,R,Donders,2021-07-13_22h57.58.266,ImageRatingTask_S1,2021.1.4,Win32,59.91970759,,,,,,,,,,,,,,,,,,,,,0,7,7,7,1,,,,,,,,,
,,,,,,,,,,,,,,,,9,21,Male,R,Donders,2021-07-13_22h57.58.266,ImageRatingTask_S1,2021.1.4,Win32,59.91970759,,,,,,,,,,,,,,,,,,,,,,,,,,0,40,40,150,1,DreamStudyImages_rs1000x750g/Food/Objects_080_h.jpg,,,
,,,,,,,,,,,,,,,main,9,21,Male,R,Donders,2021-07-13_22h57.58.266,ImageRatingTask_S1,2021.1.4,Win32,59.91970759,,,,,,,,,,,6,3.8323,1,1.1403,5,1.4419,1,3.5715,6,1.3395,0,0,0,0,1,,,,,,,,,
,,,,,,,,,,,,,,,second,9,21,Male,R,Donders,2021-07-13_22h57.58.266,ImageRatingTask_S1,2021.1.4,Win32,59.91970759,,,,,,,,,,,,,,,,,,,,,0,1,1,1,1,,,,,,,,,
,,,,,,,,,,,,,,,third,9,21,Male,R,Donders,2021-07-13_22h57.58.266,ImageRatingTask_S1,2021.1.4,Win32,59.91970759,,,,,,,,,,,,,,,,,,,,,0,2,2,2,1,,,,,,,,,
,,,,,,,,,,,,,,,fourth,9,21,Male,R,Donders,2021-07-13_22h57.58.266,ImageRatingTask_S1,2021.1.4,Win32,59.91970759,,,,,,,,,,,,,,,,,,,,,0,3,3,3,1,,,,,,,,,
,,,,,,,,,,,,,,,fifth,9,21,Male,R,Donders,2021-07-13_22h57.58.266,ImageRatingTask_S1,2021.1.4,Win32,59.91970759,,,,,,,,,,,,,,,,,,,,,0,4,4,4,1,,,,,,,,,
,,,,,,,,,,,,,,,sixth,9,21,Male,R,Donders,2021-07-13_22h57.58.266,ImageRatingTask_S1,2021.1.4,Win32,59.91970759,,,,,,,,,,,,,,,,,,,,,0,5,5,5,1,,,,,,,,,
,,,,,,,,,,,,,,,seventh,9,21,Male,R,Donders,2021-07-13_22h57.58.266,ImageRatingTask_S1,2021.1.4,Win32,59.91970759,,,,,,,,,,,,,,,,,,,,,0,6,6,6,1,,,,,,,,,
,,,,,,,,,,,,,,,last,9,21,Male,R,Donders,2021-07-13_22h57.58.266,ImageRatingTask_S1,2021.1.4,Win32,59.91970759,,,,,,,,,,,,,,,,,,,,,0,7,7,7,1,,,,,,,,,
,,,,,,,,,,,,,,,,9,21,Male,R,Donders,2021-07-13_22h57.58.266,ImageRatingTask_S1,2021.1.4,Win32,59.91970759,,,,,,,,,,,,,,,,,,,,,,,,,,0,41,41,65,1,DreamStudyImages_rs1000x750g/Houses/Landscapes_050_h.jpg,,,
,,,,,,,,,,,,,,,main,9,21,Male,R,Donders,2021-07-13_22h57.58.266,ImageRatingTask_S1,2021.1.4,Win32,59.91970759,,,,,,,,,,,3,4.0987,4,2.0369,3,1.9769,2,1.5848,8,1.8416,0,0,0,0,1,,,,,,,,,
,,,,,,,,,,,,,,,second,9,21,Male,R,Donders,2021-07-13_22h57.58.266,ImageRatingTask_S1,2021.1.4,Win32,59.91970759,,,,,,,,,,,,,,,,,,,1,0.936,0,1,1,1,1,,,,,,,,,
,,,,,,,,,,,,,,,third,9,21,Male,R,Donders,2021-07-13_22h57.58.266,ImageRatingTask_S1,2021.1.4,Win32,59.91970759,,,,,,,,,,,,,,,,,,,,,0,2,2,2,1,,,,,,,,,
,,,,,,,,,,,,,,,fourth,9,21,Male,R,Donders,2021-07-13_22h57.58.266,ImageRatingTask_S1,2021.1.4,Win32,59.91970759,,,,,,,,,,,,,,,,,,,,,0,3,3,3,1,,,,,,,,,
,,,,,,,,,,,,,,,fifth,9,21,Male,R,Donders,2021-07-13_22h57.58.266,ImageRatingTask_S1,2021.1.4,Win32,59.91970759,,,,,,,,,,,,,,,,,,,,,0,4,4,4,1,,,,,,,,,
,,,,,,,,,,,,,,,sixth,9,21,Male,R,Donders,2021-07-13_22h57.58.266,ImageRatingTask_S1,2021.1.4,Win32,59.91970759,,,,,,,,,,,,,,,,,,,,,0,5,5,5,1,,,,,,,,,
,,,,,,,,,,,,,,,seventh,9,21,Male,R,Donders,2021-07-13_22h57.58.266,ImageRatingTask_S1,2021.1.4,Win32,59.91970759,,,,,,,,,,,,,,,,,,,,,0,6,6,6,1,,,,,,,,,
,,,,,,,,,,,,,,,last,9,21,Male,R,Donders,2021-07-13_22h57.58.266,ImageRatingTask_S1,2021.1.4,Win32,59.91970759,,,,,,,,,,,,,,,,,,,,,0,7,7,7,1,,,,,,,,,
,,,,,,,,,,,,,,,,9,21,Male,R,Donders,2021-07-13_22h57.58.266,ImageRatingTask_S1,2021.1.4,Win32,59.91970759,,,,,,,,,,,,,,,,,,,,,,,,,,0,42,42,85,1,DreamStudyImages_rs1000x750g/Water/99_CHECK.jpg,,,
,,,,,,,,,,,,,,,main,9,21,Male,R,Donders,2021-07-13_22h57.58.266,ImageRatingTask_S1,2021.1.4,Win32,59.91970759,,,,,,,,,,,6,3.4677,1,0.818,7,1.6849,1,1.4347,7,0.6141,0,0,0,0,1,,,,,,,,,
,,,,,,,,,,,,,,,second,9,21,Male,R,Donders,2021-07-13_22h57.58.266,ImageRatingTask_S1,2021.1.4,Win32,59.91970759,,,,,,,,,,,,,,,,,,,,,0,1,1,1,1,,,,,,,,,
,,,,,,,,,,,,,,,third,9,21,Male,R,Donders,2021-07-13_22h57.58.266,ImageRatingTask_S1,2021.1.4,Win32,59.91970759,,,,,,,,,,,,,,,,,,,,,0,2,2,2,1,,,,,,,,,
,,,,,,,,,,,,,,,fourth,9,21,Male,R,Donders,2021-07-13_22h57.58.266,ImageRatingTask_S1,2021.1.4,Win32,59.91970759,,,,,,,,,,,,,,,,,,,,,0,3,3,3,1,,,,,,,,,
,,,,,,,,,,,,,,,fifth,9,21,Male,R,Donders,2021-07-13_22h57.58.266,ImageRatingTask_S1,2021.1.4,Win32,59.91970759,,,,,,,,,,,,,,,,,,,,,0,4,4,4,1,,,,,,,,,
,,,,,,,,,,,,,,,sixth,9,21,Male,R,Donders,2021-07-13_22h57.58.266,ImageRatingTask_S1,2021.1.4,Win32,59.91970759,,,,,,,,,,,,,,,,,,,,,0,5,5,5,1,,,,,,,,,
,,,,,,,,,,,,,,,seventh,9,21,Male,R,Donders,2021-07-13_22h57.58.266,ImageRatingTask_S1,2021.1.4,Win32,59.91970759,,,,,,,,,,,,,,,,,,,,,0,6,6,6,1,,,,,,,,,
,,,,,,,,,,,,,,,last,9,21,Male,R,Donders,2021-07-13_22h57.58.266,ImageRatingTask_S1,2021.1.4,Win32,59.91970759,,,,,,,,,,,,,,,,,,,,,0,7,7,7,1,,,,,,,,,
,,,,,,,,,,,,,,,,9,21,Male,R,Donders,2021-07-13_22h57.58.266,ImageRatingTask_S1,2021.1.4,Win32,59.91970759,,,,,,,,,,,,,,,,,,,,,,,,,,0,43,43,38,1,DreamStudyImages_rs1000x750g/Vehicles/paintedvan.jpg,,,
,,,,,,,,,,,,,,,main,9,21,Male,R,Donders,2021-07-13_22h57.58.266,ImageRatingTask_S1,2021.1.4,Win32,59.91970759,,,,,,,,,,,7,4.6626,3,4.9284,2,1.7818,1,1.2318,2,0.4605,0,0,0,0,1,,,,,,,,,
,,,,,,,,,,,,,,,second,9,21,Male,R,Donders,2021-07-13_22h57.58.266,ImageRatingTask_S1,2021.1.4,Win32,59.91970759,,,,,,,,,,,,,,,,,,,,,0,1,1,1,1,,,,,,,,,
,,,,,,,,,,,,,,,third,9,21,Male,R,Donders,2021-07-13_22h57.58.266,ImageRatingTask_S1,2021.1.4,Win32,59.91970759,,,,,,,,,,,,,,,,,,,,,0,2,2,2,1,,,,,,,,,
,,,,,,,,,,,,,,,fourth,9,21,Male,R,Donders,2021-07-13_22h57.58.266,ImageRatingTask_S1,2021.1.4,Win32,59.91970759,,,,,,,,,,,,,,,,,,,,,0,3,3,3,1,,,,,,,,,
,,,,,,,,,,,,,,,fifth,9,21,Male,R,Donders,2021-07-13_22h57.58.266,ImageRatingTask_S1,2021.1.4,Win32,59.91970759,,,,,,,,,,,,,,,,,,,,,0,4,4,4,1,,,,,,,,,
,,,,,,,,,,,,,,,sixth,9,21,Male,R,Donders,2021-07-13_22h57.58.266,ImageRatingTask_S1,2021.1.4,Win32,59.91970759,,,,,,,,,,,,,,,,,,,,,0,5,5,5,1,,,,,,,,,
,,,,,,,,,,,,,,,seventh,9,21,Male,R,Donders,2021-07-13_22h57.58.266,ImageRatingTask_S1,2021.1.4,Win32,59.91970759,,,,,,,,,,,,,,,,,,,,,0,6,6,6,1,,,,,,,,,
,,,,,,,,,,,,,,,last,9,21,Male,R,Donders,2021-07-13_22h57.58.266,ImageRatingTask_S1,2021.1.4,Win32,59.91970759,,,,,,,,,,,,,,,,,,,,,0,7,7,7,1,,,,,,,,,
,,,,,,,,,,,,,,,,9,21,Male,R,Donders,2021-07-13_22h57.58.266,ImageRatingTask_S1,2021.1.4,Win32,59.91970759,,,,,,,,,,,,,,,,,,,,,,,,,,0,44,44,71,1,DreamStudyImages_rs1000x750g/Children/IAPS2070_baby8.jpg,,,
,,,,,,,,,,,,,,,main,9,21,Male,R,Donders,2021-07-13_22h57.58.266,ImageRatingTask_S1,2021.1.4,Win32,59.91970759,,,,,,,,,,,3,2.8427,4,1.8459,5,2.3769,1,9.2754,8,0.7542,0,0,0,0,1,,,,,,,,,
,,,,,,,,,,,,,,,second,9,21,Male,R,Donders,2021-07-13_22h57.58.266,ImageRatingTask_S1,2021.1.4,Win32,59.91970759,,,,,,,,,,,,,,,,,,,,,0,1,1,1,1,,,,,,,,,
,,,,,,,,,,,,,,,third,9,21,Male,R,Donders,2021-07-13_22h57.58.266,ImageRatingTask_S1,2021.1.4,Win32,59.91970759,,,,,,,,,,,,,,,,,,,,,0,2,2,2,1,,,,,,,,,
,,,,,,,,,,,,,,,fourth,9,21,Male,R,Donders,2021-07-13_22h57.58.266,ImageRatingTask_S1,2021.1.4,Win32,59.91970759,,,,,,,,,,,,,,,,,,,,,0,3,3,3,1,,,,,,,,,
,,,,,,,,,,,,,,,fifth,9,21,Male,R,Donders,2021-07-13_22h57.58.266,ImageRatingTask_S1,2021.1.4,Win32,59.91970759,,,,,,,,,,,,,,,,,,,,,0,4,4,4,1,,,,,,,,,
,,,,,,,,,,,,,,,sixth,9,21,Male,R,Donders,2021-07-13_22h57.58.266,ImageRatingTask_S1,2021.1.4,Win32,59.91970759,,,,,,,,,,,,,,,,,,,,,0,5,5,5,1,,,,,,,,,
,,,,,,,,,,,,,,,seventh,9,21,Male,R,Donders,2021-07-13_22h57.58.266,ImageRatingTask_S1,2021.1.4,Win32,59.91970759,,,,,,,,,,,,,,,,,,,,,0,6,6,6,1,,,,,,,,,
,,,,,,,,,,,,,,,last,9,21,Male,R,Donders,2021-07-13_22h57.58.266,ImageRatingTask_S1,2021.1.4,Win32,59.91970759,,,,,,,,,,,,,,,,,,,,,0,7,7,7,1,,,,,,,,,
,,,,,,,,,,,,,,,,9,21,Male,R,Donders,2021-07-13_22h57.58.266,ImageRatingTask_S1,2021.1.4,Win32,59.91970759,,,,,,,,,,,,,,,,,,,,,,,,,,0,45,45,130,1,DreamStudyImages_rs1000x750g/Water/Objects_140_h.jpg,,,
,,,,,,,,,,,,,,,main,9,21,Male,R,Donders,2021-07-13_22h57.58.266,ImageRatingTask_S1,2021.1.4,Win32,59.91970759,,,,,,,,,,,2,11.6115,6,1.0368,8,2.0437,1,1.7444,3,0.7737,0,0,0,0,1,,,,,,,,,
,,,,,,,,,,,,,,,second,9,21,Male,R,Donders,2021-07-13_22h57.58.266,ImageRatingTask_S1,2021.1.4,Win32,59.91970759,,,,,,,,,,,,,,,,,,,,,0,1,1,1,1,,,,,,,,,
,,,,,,,,,,,,,,,third,9,21,Male,R,Donders,2021-07-13_22h57.58.266,ImageRatingTask_S1,2021.1.4,Win32,59.91970759,,,,,,,,,,,,,,,,,,,,,0,2,2,2,1,,,,,,,,,
,,,,,,,,,,,,,,,fourth,9,21,Male,R,Donders,2021-07-13_22h57.58.266,ImageRatingTask_S1,2021.1.4,Win32,59.91970759,,,,,,,,,,,,,,,,,,,,,0,3,3,3,1,,,,,,,,,
,,,,,,,,,,,,,,,fifth,9,21,Male,R,Donders,2021-07-13_22h57.58.266,ImageRatingTask_S1,2021.1.4,Win32,59.91970759,,,,,,,,,,,,,,,,,,,,,0,4,4,4,1,,,,,,,,,
,,,,,,,,,,,,,,,sixth,9,21,Male,R,Donders,2021-07-13_22h57.58.266,ImageRatingTask_S1,2021.1.4,Win32,59.91970759,,,,,,,,,,,,,,,,,,,,,0,5,5,5,1,,,,,,,,,
,,,,,,,,,,,,,,,seventh,9,21,Male,R,Donders,2021-07-13_22h57.58.266,ImageRatingTask_S1,2021.1.4,Win32,59.91970759,,,,,,,,,,,,,,,,,,,,,0,6,6,6,1,,,,,,,,,
,,,,,,,,,,,,,,,last,9,21,Male,R,Donders,2021-07-13_22h57.58.266,ImageRatingTask_S1,2021.1.4,Win32,59.91970759,,,,,,,,,,,,,,,,,,,,,0,7,7,7,1,,,,,,,,,
,,,,,,,,,,,,,,,,9,21,Male,R,Donders,2021-07-13_22h57.58.266,ImageRatingTask_S1,2021.1.4,Win32,59.91970759,,,,,,,,,,,,,,,,,,,,,,,,,,0,46,46,114,1,DreamStudyImages_rs1000x750g/Mammals/Lion 2.jpg,,,
,,,,,,,,,,,,,,,main,9,21,Male,R,Donders,2021-07-13_22h57.58.266,ImageRatingTask_S1,2021.1.4,Win32,59.91970759,,,,,,,,,,,6,2.8434,2,0.5724,7,1.6899,1,2.1055,5,0.9122,0,0,0,0,1,,,,,,,,,
,,,,,,,,,,,,,,,second,9,21,Male,R,Donders,2021-07-13_22h57.58.266,ImageRatingTask_S1,2021.1.4,Win32,59.91970759,,,,,,,,,,,,,,,,,,,,,0,1,1,1,1,,,,,,,,,
,,,,,,,,,,,,,,,third,9,21,Male,R,Donders,2021-07-13_22h57.58.266,ImageRatingTask_S1,2021.1.4,Win32,59.91970759,,,,,,,,,,,,,,,,,,,,,0,2,2,2,1,,,,,,,,,
,,,,,,,,,,,,,,,fourth,9,21,Male,R,Donders,2021-07-13_22h57.58.266,ImageRatingTask_S1,2021.1.4,Win32,59.91970759,,,,,,,,,,,,,,,,,,,,,0,3,3,3,1,,,,,,,,,
,,,,,,,,,,,,,,,fifth,9,21,Male,R,Donders,2021-07-13_22h57.58.266,ImageRatingTask_S1,2021.1.4,Win32,59.91970759,,,,,,,,,,,,,,,,,,,,,0,4,4,4,1,,,,,,,,,
,,,,,,,,,,,,,,,sixth,9,21,Male,R,Donders,2021-07-13_22h57.58.266,ImageRatingTask_S1,2021.1.4,Win32,59.91970759,,,,,,,,,,,,,,,,,,,,,0,5,5,5,1,,,,,,,,,
,,,,,,,,,,,,,,,seventh,9,21,Male,R,Donders,2021-07-13_22h57.58.266,ImageRatingTask_S1,2021.1.4,Win32,59.91970759,,,,,,,,,,,,,,,,,,,,,0,6,6,6,1,,,,,,,,,
,,,,,,,,,,,,,,,last,9,21,Male,R,Donders,2021-07-13_22h57.58.266,ImageRatingTask_S1,2021.1.4,Win32,59.91970759,,,,,,,,,,,,,,,,,,,,,0,7,7,7,1,,,,,,,,,
,,,,,,,,,,,,,,,,9,21,Male,R,Donders,2021-07-13_22h57.58.266,ImageRatingTask_S1,2021.1.4,Win32,59.91970759,,,,,,,,,,,,,,,,,,,,,,,,,,0,47,47,121,1,DreamStudyImages_rs1000x750g/Food/Objects_062_h.jpg,,,
,,,,,,,,,,,,,,,main,9,21,Male,R,Donders,2021-07-13_22h57.58.266,ImageRatingTask_S1,2021.1.4,Win32,59.91970759,,,,,,,,,,,4,5.4559,1,0.7904,6,1.3065,2,1.9957,2,0.424,0,0,0,0,1,,,,,,,,,
,,,,,,,,,,,,,,,second,9,21,Male,R,Donders,2021-07-13_22h57.58.266,ImageRatingTask_S1,2021.1.4,Win32,59.91970759,,,,,,,,,,,,,,,,,,,1,0.1645,0,1,1,1,1,,,,,,,,,
,,,,,,,,,,,,,,,third,9,21,Male,R,Donders,2021-07-13_22h57.58.266,ImageRatingTask_S1,2021.1.4,Win32,59.91970759,,,,,,,,,,,,,,,,,,,,,0,2,2,2,1,,,,,,,,,
,,,,,,,,,,,,,,,fourth,9,21,Male,R,Donders,2021-07-13_22h57.58.266,ImageRatingTask_S1,2021.1.4,Win32,59.91970759,,,,,,,,,,,,,,,,,,,,,0,3,3,3,1,,,,,,,,,
,,,,,,,,,,,,,,,fifth,9,21,Male,R,Donders,2021-07-13_22h57.58.266,ImageRatingTask_S1,2021.1.4,Win32,59.91970759,,,,,,,,,,,,,,,,,,,,,0,4,4,4,1,,,,,,,,,
,,,,,,,,,,,,,,,sixth,9,21,Male,R,Donders,2021-07-13_22h57.58.266,ImageRatingTask_S1,2021.1.4,Win32,59.91970759,,,,,,,,,,,,,,,,,,,,,0,5,5,5,1,,,,,,,,,
,,,,,,,,,,,,,,,seventh,9,21,Male,R,Donders,2021-07-13_22h57.58.266,ImageRatingTask_S1,2021.1.4,Win32,59.91970759,,,,,,,,,,,,,,,,,,,,,0,6,6,6,1,,,,,,,,,
,,,,,,,,,,,,,,,last,9,21,Male,R,Donders,2021-07-13_22h57.58.266,ImageRatingTask_S1,2021.1.4,Win32,59.91970759,,,,,,,,,,,,,,,,,,,,,0,7,7,7,1,,,,,,,,,
,,,,,,,,,,,,,,,,9,21,Male,R,Donders,2021-07-13_22h57.58.266,ImageRatingTask_S1,2021.1.4,Win32,59.91970759,,,,,,,,,,,,,,,,,,,,,,,,,,0,48,48,83,1,DreamStudyImages_rs1000x750g/Children/Faces_369_v.jpg,,,
,,,,,,,,,,,,,,,main,9,21,Male,R,Donders,2021-07-13_22h57.58.266,ImageRatingTask_S1,2021.1.4,Win32,59.91970759,,,,,,,,,,,6,3.094,1,1.5208,7,1.5643,1,1.5851,6,0.7908,0,0,0,0,1,,,,,,,,,
,,,,,,,,,,,,,,,second,9,21,Male,R,Donders,2021-07-13_22h57.58.266,ImageRatingTask_S1,2021.1.4,Win32,59.91970759,,,,,,,,,,,,,,,,,,,,,0,1,1,1,1,,,,,,,,,
,,,,,,,,,,,,,,,third,9,21,Male,R,Donders,2021-07-13_22h57.58.266,ImageRatingTask_S1,2021.1.4,Win32,59.91970759,,,,,,,,,,,,,,,,,,,,,0,2,2,2,1,,,,,,,,,
,,,,,,,,,,,,,,,fourth,9,21,Male,R,Donders,2021-07-13_22h57.58.266,ImageRatingTask_S1,2021.1.4,Win32,59.91970759,,,,,,,,,,,,,,,,,,,,,0,3,3,3,1,,,,,,,,,
,,,,,,,,,,,,,,,fifth,9,21,Male,R,Donders,2021-07-13_22h57.58.266,ImageRatingTask_S1,2021.1.4,Win32,59.91970759,,,,,,,,,,,,,,,,,,,,,0,4,4,4,1,,,,,,,,,
,,,,,,,,,,,,,,,sixth,9,21,Male,R,Donders,2021-07-13_22h57.58.266,ImageRatingTask_S1,2021.1.4,Win32,59.91970759,,,,,,,,,,,,,,,,,,,,,0,5,5,5,1,,,,,,,,,
,,,,,,,,,,,,,,,seventh,9,21,Male,R,Donders,2021-07-13_22h57.58.266,ImageRatingTask_S1,2021.1.4,Win32,59.91970759,,,,,,,,,,,,,,,,,,,,,0,6,6,6,1,,,,,,,,,
,,,,,,,,,,,,,,,last,9,21,Male,R,Donders,2021-07-13_22h57.58.266,ImageRatingTask_S1,2021.1.4,Win32,59.91970759,,,,,,,,,,,,,,,,,,,,,0,7,7,7,1,,,,,,,,,
,,,,,,,,,,,,,,,,9,21,Male,R,Donders,2021-07-13_22h57.58.266,ImageRatingTask_S1,2021.1.4,Win32,59.91970759,,,,,,,,,,,,,,,,,,,,,,,,,,0,49,49,57,1,DreamStudyImages_rs1000x750g/Houses/Landscapes_051_h.jpg,,,
,,,,,,,,,,,,,,,main,9,21,Male,R,Donders,2021-07-13_22h57.58.266,ImageRatingTask_S1,2021.1.4,Win32,59.91970759,,,,,,,,,,,4,2.6873,1,1.1976,7,1.5366,1,1.9448,7,0.7801,0,0,0,0,1,,,,,,,,,
,,,,,,,,,,,,,,,second,9,21,Male,R,Donders,2021-07-13_22h57.58.266,ImageRatingTask_S1,2021.1.4,Win32,59.91970759,,,,,,,,,,,,,,,,,,,,,0,1,1,1,1,,,,,,,,,
,,,,,,,,,,,,,,,third,9,21,Male,R,Donders,2021-07-13_22h57.58.266,ImageRatingTask_S1,2021.1.4,Win32,59.91970759,,,,,,,,,,,,,,,,,,,,,0,2,2,2,1,,,,,,,,,
,,,,,,,,,,,,,,,fourth,9,21,Male,R,Donders,2021-07-13_22h57.58.266,ImageRatingTask_S1,2021.1.4,Win32,59.91970759,,,,,,,,,,,,,,,,,,,,,0,3,3,3,1,,,,,,,,,
,,,,,,,,,,,,,,,fifth,9,21,Male,R,Donders,2021-07-13_22h57.58.266,ImageRatingTask_S1,2021.1.4,Win32,59.91970759,,,,,,,,,,,,,,,,,,,,,0,4,4,4,1,,,,,,,,,
,,,,,,,,,,,,,,,sixth,9,21,Male,R,Donders,2021-07-13_22h57.58.266,ImageRatingTask_S1,2021.1.4,Win32,59.91970759,,,,,,,,,,,,,,,,,,,,,0,5,5,5,1,,,,,,,,,
,,,,,,,,,,,,,,,seventh,9,21,Male,R,Donders,2021-07-13_22h57.58.266,ImageRatingTask_S1,2021.1.4,Win32,59.91970759,,,,,,,,,,,,,,,,,,,,,0,6,6,6,1,,,,,,,,,
,,,,,,,,,,,,,,,last,9,21,Male,R,Donders,2021-07-13_22h57.58.266,ImageRatingTask_S1,2021.1.4,Win32,59.91970759,,,,,,,,,,,,,,,,,,,,,0,7,7,7,1,,,,,,,,,
,,,,,,,,,,,,,,,,9,21,Male,R,Donders,2021-07-13_22h57.58.266,ImageRatingTask_S1,2021.1.4,Win32,59.91970759,,,,,,,,,,,,,,,,,,,,,,,,,,0,50,50,132,1,DreamStudyImages_rs1000x750g/Vehicles/Objects_290_h.jpg,,,
,,,,,,,,,,,,,,,main,9,21,Male,R,Donders,2021-07-13_22h57.58.266,ImageRatingTask_S1,2021.1.4,Win32,59.91970759,,,,,,,,,,,6,11.5098,1,1.1709,6,3.0848,1,1.8811,3,1.1244,0,0,0,0,1,,,,,,,,,
,,,,,,,,,,,,,,,second,9,21,Male,R,Donders,2021-07-13_22h57.58.266,ImageRatingTask_S1,2021.1.4,Win32,59.91970759,,,,,,,,,,,,,,,,,,,,,0,1,1,1,1,,,,,,,,,
,,,,,,,,,,,,,,,third,9,21,Male,R,Donders,2021-07-13_22h57.58.266,ImageRatingTask_S1,2021.1.4,Win32,59.91970759,,,,,,,,,,,,,,,,,,,,,0,2,2,2,1,,,,,,,,,
,,,,,,,,,,,,,,,fourth,9,21,Male,R,Donders,2021-07-13_22h57.58.266,ImageRatingTask_S1,2021.1.4,Win32,59.91970759,,,,,,,,,,,,,,,,,,,,,0,3,3,3,1,,,,,,,,,
,,,,,,,,,,,,,,,fifth,9,21,Male,R,Donders,2021-07-13_22h57.58.266,ImageRatingTask_S1,2021.1.4,Win32,59.91970759,,,,,,,,,,,,,,,,,,,,,0,4,4,4,1,,,,,,,,,
,,,,,,,,,,,,,,,sixth,9,21,Male,R,Donders,2021-07-13_22h57.58.266,ImageRatingTask_S1,2021.1.4,Win32,59.91970759,,,,,,,,,,,,,,,,,,,,,0,5,5,5,1,,,,,,,,,
,,,,,,,,,,,,,,,seventh,9,21,Male,R,Donders,2021-07-13_22h57.58.266,ImageRatingTask_S1,2021.1.4,Win32,59.91970759,,,,,,,,,,,,,,,,,,,,,0,6,6,6,1,,,,,,,,,
,,,,,,,,,,,,,,,last,9,21,Male,R,Donders,2021-07-13_22h57.58.266,ImageRatingTask_S1,2021.1.4,Win32,59.91970759,,,,,,,,,,,,,,,,,,,,,0,7,7,7,1,,,,,,,,,
,,,,,,,,,,,,,,,,9,21,Male,R,Donders,2021-07-13_22h57.58.266,ImageRatingTask_S1,2021.1.4,Win32,59.91970759,,,,,,,,,,,,,,,,,,,,,,,,,,0,51,51,68,1,DreamStudyImages_rs1000x750g/Mammals/Bear 1.jpg,,,
,,,,,,,,,,,,,,,main,9,21,Male,R,Donders,2021-07-13_22h57.58.266,ImageRatingTask_S1,2021.1.4,Win32,59.91970759,,,,,,,,,,,8,2.999,1,0.8525,6,3.8171,1,2.5504,8,1.0252,0,0,0,0,1,,,,,,,,,
,,,,,,,,,,,,,,,second,9,21,Male,R,Donders,2021-07-13_22h57.58.266,ImageRatingTask_S1,2021.1.4,Win32,59.91970759,,,,,,,,,,,,,,,,,,,,,0,1,1,1,1,,,,,,,,,
,,,,,,,,,,,,,,,third,9,21,Male,R,Donders,2021-07-13_22h57.58.266,ImageRatingTask_S1,2021.1.4,Win32,59.91970759,,,,,,,,,,,,,,,,,,,,,0,2,2,2,1,,,,,,,,,
,,,,,,,,,,,,,,,fourth,9,21,Male,R,Donders,2021-07-13_22h57.58.266,ImageRatingTask_S1,2021.1.4,Win32,59.91970759,,,,,,,,,,,,,,,,,,,,,0,3,3,3,1,,,,,,,,,
,,,,,,,,,,,,,,,fifth,9,21,Male,R,Donders,2021-07-13_22h57.58.266,ImageRatingTask_S1,2021.1.4,Win32,59.91970759,,,,,,,,,,,,,,,,,,,,,0,4,4,4,1,,,,,,,,,
,,,,,,,,,,,,,,,sixth,9,21,Male,R,Donders,2021-07-13_22h57.58.266,ImageRatingTask_S1,2021.1.4,Win32,59.91970759,,,,,,,,,,,,,,,,,,,,,0,5,5,5,1,,,,,,,,,
,,,,,,,,,,,,,,,seventh,9,21,Male,R,Donders,2021-07-13_22h57.58.266,ImageRatingTask_S1,2021.1.4,Win32,59.91970759,,,,,,,,,,,,,,,,,,,,,0,6,6,6,1,,,,,,,,,
,,,,,,,,,,,,,,,last,9,21,Male,R,Donders,2021-07-13_22h57.58.266,ImageRatingTask_S1,2021.1.4,Win32,59.91970759,,,,,,,,,,,,,,,,,,,,,0,7,7,7,1,,,,,,,,,
,,,,,,,,,,,,,,,,9,21,Male,R,Donders,2021-07-13_22h57.58.266,ImageRatingTask_S1,2021.1.4,Win32,59.91970759,,,,,,,,,,,,,,,,,,,,,,,,,,0,52,52,140,1,DreamStudyImages_rs1000x750g/Water/fishingsunset_CROPPED.jpg,,,
,,,,,,,,,,,,,,,main,9,21,Male,R,Donders,2021-07-13_22h57.58.266,ImageRatingTask_S1,2021.1.4,Win32,59.91970759,,,,,,,,,,,3,3.4388,1,1.1945,6,1.8879,1,1.4221,7,0.7142,0,0,0,0,1,,,,,,,,,
,,,,,,,,,,,,,,,second,9,21,Male,R,Donders,2021-07-13_22h57.58.266,ImageRatingTask_S1,2021.1.4,Win32,59.91970759,,,,,,,,,,,,,,,,,,,,,0,1,1,1,1,,,,,,,,,
,,,,,,,,,,,,,,,third,9,21,Male,R,Donders,2021-07-13_22h57.58.266,ImageRatingTask_S1,2021.1.4,Win32,59.91970759,,,,,,,,,,,,,,,,,,,,,0,2,2,2,1,,,,,,,,,
,,,,,,,,,,,,,,,fourth,9,21,Male,R,Donders,2021-07-13_22h57.58.266,ImageRatingTask_S1,2021.1.4,Win32,59.91970759,,,,,,,,,,,,,,,,,,,,,0,3,3,3,1,,,,,,,,,
,,,,,,,,,,,,,,,fifth,9,21,Male,R,Donders,2021-07-13_22h57.58.266,ImageRatingTask_S1,2021.1.4,Win32,59.91970759,,,,,,,,,,,,,,,,,,,,,0,4,4,4,1,,,,,,,,,
,,,,,,,,,,,,,,,sixth,9,21,Male,R,Donders,2021-07-13_22h57.58.266,ImageRatingTask_S1,2021.1.4,Win32,59.91970759,,,,,,,,,,,,,,,,,,,,,0,5,5,5,1,,,,,,,,,
,,,,,,,,,,,,,,,seventh,9,21,Male,R,Donders,2021-07-13_22h57.58.266,ImageRatingTask_S1,2021.1.4,Win32,59.91970759,,,,,,,,,,,,,,,,,,,,,0,6,6,6,1,,,,,,,,,
,,,,,,,,,,,,,,,last,9,21,Male,R,Donders,2021-07-13_22h57.58.266,ImageRatingTask_S1,2021.1.4,Win32,59.91970759,,,,,,,,,,,,,,,,,,,,,0,7,7,7,1,,,,,,,,,
,,,,,,,,,,,,,,,,9,21,Male,R,Donders,2021-07-13_22h57.58.266,ImageRatingTask_S1,2021.1.4,Win32,59.91970759,,,,,,,,,,,,,,,,,,,,,,,,,,0,53,53,77,1,DreamStudyImages_rs1000x750g/Vehicles/militarytruck.jpg,,,
,,,,,,,,,,,,,,,main,9,21,Male,R,Donders,2021-07-13_22h57.58.266,ImageRatingTask_S1,2021.1.4,Win32,59.91970759,,,,,,,,,,,1,2.1164,4,1.0983,2,1.8257,2,4.3779,7,0.8583,0,0,0,0,1,,,,,,,,,
,,,,,,,,,,,,,,,second,9,21,Male,R,Donders,2021-07-13_22h57.58.266,ImageRatingTask_S1,2021.1.4,Win32,59.91970759,,,,,,,,,,,,,,,,,,,1,0.5673,0,1,1,1,1,,,,,,,,,
,,,,,,,,,,,,,,,third,9,21,Male,R,Donders,2021-07-13_22h57.58.266,ImageRatingTask_S1,2021.1.4,Win32,59.91970759,,,,,,,,,,,,,,,,,,,,,0,2,2,2,1,,,,,,,,,
,,,,,,,,,,,,,,,fourth,9,21,Male,R,Donders,2021-07-13_22h57.58.266,ImageRatingTask_S1,2021.1.4,Win32,59.91970759,,,,,,,,,,,,,,,,,,,,,0,3,3,3,1,,,,,,,,,
,,,,,,,,,,,,,,,fifth,9,21,Male,R,Donders,2021-07-13_22h57.58.266,ImageRatingTask_S1,2021.1.4,Win32,59.91970759,,,,,,,,,,,,,,,,,,,,,0,4,4,4,1,,,,,,,,,
,,,,,,,,,,,,,,,sixth,9,21,Male,R,Donders,2021-07-13_22h57.58.266,ImageRatingTask_S1,2021.1.4,Win32,59.91970759,,,,,,,,,,,,,,,,,,,,,0,5,5,5,1,,,,,,,,,
,,,,,,,,,,,,,,,seventh,9,21,Male,R,Donders,2021-07-13_22h57.58.266,ImageRatingTask_S1,2021.1.4,Win32,59.91970759,,,,,,,,,,,,,,,,,,,,,0,6,6,6,1,,,,,,,,,
,,,,,,,,,,,,,,,last,9,21,Male,R,Donders,2021-07-13_22h57.58.266,ImageRatingTask_S1,2021.1.4,Win32,59.91970759,,,,,,,,,,,,,,,,,,,,,0,7,7,7,1,,,,,,,,,
,,,,,,,,,,,,,,,,9,21,Male,R,Donders,2021-07-13_22h57.58.266,ImageRatingTask_S1,2021.1.4,Win32,59.91970759,,,,,,,,,,,,,,,,,,,,,,,,,,0,54,54,152,1,DreamStudyImages_rs1000x750g/Vehicles/IAPS9911_carcrash8.jpg,,,
,,,,,,,,,,,,,,,main,9,21,Male,R,Donders,2021-07-13_22h57.58.266,ImageRatingTask_S1,2021.1.4,Win32,59.91970759,,,,,,,,,,,5,4.2825,1,1.2716,2,3.7886,1,1.7938,7,0.5576,0,0,0,0,1,,,,,,,,,
,,,,,,,,,,,,,,,second,9,21,Male,R,Donders,2021-07-13_22h57.58.266,ImageRatingTask_S1,2021.1.4,Win32,59.91970759,,,,,,,,,,,,,,,,,,,,,0,1,1,1,1,,,,,,,,,
,,,,,,,,,,,,,,,third,9,21,Male,R,Donders,2021-07-13_22h57.58.266,ImageRatingTask_S1,2021.1.4,Win32,59.91970759,,,,,,,,,,,,,,,,,,,,,0,2,2,2,1,,,,,,,,,
,,,,,,,,,,,,,,,fourth,9,21,Male,R,Donders,2021-07-13_22h57.58.266,ImageRatingTask_S1,2021.1.4,Win32,59.91970759,,,,,,,,,,,,,,,,,,,,,0,3,3,3,1,,,,,,,,,
,,,,,,,,,,,,,,,fifth,9,21,Male,R,Donders,2021-07-13_22h57.58.266,ImageRatingTask_S1,2021.1.4,Win32,59.91970759,,,,,,,,,,,,,,,,,,,,,0,4,4,4,1,,,,,,,,,
,,,,,,,,,,,,,,,sixth,9,21,Male,R,Donders,2021-07-13_22h57.58.266,ImageRatingTask_S1,2021.1.4,Win32,59.91970759,,,,,,,,,,,,,,,,,,,,,0,5,5,5,1,,,,,,,,,
,,,,,,,,,,,,,,,seventh,9,21,Male,R,Donders,2021-07-13_22h57.58.266,ImageRatingTask_S1,2021.1.4,Win32,59.91970759,,,,,,,,,,,,,,,,,,,,,0,6,6,6,1,,,,,,,,,
,,,,,,,,,,,,,,,last,9,21,Male,R,Donders,2021-07-13_22h57.58.266,ImageRatingTask_S1,2021.1.4,Win32,59.91970759,,,,,,,,,,,,,,,,,,,,,0,7,7,7,1,,,,,,,,,
,,,,,,,,,,,,,,,,9,21,Male,R,Donders,2021-07-13_22h57.58.266,ImageRatingTask_S1,2021.1.4,Win32,59.91970759,,,,,,,,,,,,,,,,,,,,,,,,,,0,55,55,47,1,DreamStudyImages_rs1000x750g/Vehicles/Objects_294_h.jpg,,,
,,,,,,,,,,,,,,,main,9,21,Male,R,Donders,2021-07-13_22h57.58.266,ImageRatingTask_S1,2021.1.4,Win32,59.91970759,,,,,,,,,,,6,2.4418,1,1.2053,7,3.2712,1,1.6057,5,0.3829,0,0,0,0,1,,,,,,,,,
,,,,,,,,,,,,,,,second,9,21,Male,R,Donders,2021-07-13_22h57.58.266,ImageRatingTask_S1,2021.1.4,Win32,59.91970759,,,,,,,,,,,,,,,,,,,,,0,1,1,1,1,,,,,,,,,
,,,,,,,,,,,,,,,third,9,21,Male,R,Donders,2021-07-13_22h57.58.266,ImageRatingTask_S1,2021.1.4,Win32,59.91970759,,,,,,,,,,,,,,,,,,,,,0,2,2,2,1,,,,,,,,,
,,,,,,,,,,,,,,,fourth,9,21,Male,R,Donders,2021-07-13_22h57.58.266,ImageRatingTask_S1,2021.1.4,Win32,59.91970759,,,,,,,,,,,,,,,,,,,,,0,3,3,3,1,,,,,,,,,
,,,,,,,,,,,,,,,fifth,9,21,Male,R,Donders,2021-07-13_22h57.58.266,ImageRatingTask_S1,2021.1.4,Win32,59.91970759,,,,,,,,,,,,,,,,,,,,,0,4,4,4,1,,,,,,,,,
,,,,,,,,,,,,,,,sixth,9,21,Male,R,Donders,2021-07-13_22h57.58.266,ImageRatingTask_S1,2021.1.4,Win32,59.91970759,,,,,,,,,,,,,,,,,,,,,0,5,5,5,1,,,,,,,,,
,,,,,,,,,,,,,,,seventh,9,21,Male,R,Donders,2021-07-13_22h57.58.266,ImageRatingTask_S1,2021.1.4,Win32,59.91970759,,,,,,,,,,,,,,,,,,,,,0,6,6,6,1,,,,,,,,,
,,,,,,,,,,,,,,,last,9,21,Male,R,Donders,2021-07-13_22h57.58.266,ImageRatingTask_S1,2021.1.4,Win32,59.91970759,,,,,,,,,,,,,,,,,,,,,0,7,7,7,1,,,,,,,,,
,,,,,,,,,,,,,,,,9,21,Male,R,Donders,2021-07-13_22h57.58.266,ImageRatingTask_S1,2021.1.4,Win32,59.91970759,,,,,,,,,,,,,,,,,,,,,,,,,,0,56,56,138,1,DreamStudyImages_rs1000x750g/Food/IAPS7451_burger2.jpg,,,
,,,,,,,,,,,,,,,main,9,21,Male,R,Donders,2021-07-13_22h57.58.266,ImageRatingTask_S1,2021.1.4,Win32,59.91970759,,,,,,,,,,,6,2.7284,1,0.9581,8,2.0719,1,2.515,8,1.0795,0,0,0,0,1,,,,,,,,,
,,,,,,,,,,,,,,,second,9,21,Male,R,Donders,2021-07-13_22h57.58.266,ImageRatingTask_S1,2021.1.4,Win32,59.91970759,,,,,,,,,,,,,,,,,,,,,0,1,1,1,1,,,,,,,,,
,,,,,,,,,,,,,,,third,9,21,Male,R,Donders,2021-07-13_22h57.58.266,ImageRatingTask_S1,2021.1.4,Win32,59.91970759,,,,,,,,,,,,,,,,,,,,,0,2,2,2,1,,,,,,,,,
,,,,,,,,,,,,,,,fourth,9,21,Male,R,Donders,2021-07-13_22h57.58.266,ImageRatingTask_S1,2021.1.4,Win32,59.91970759,,,,,,,,,,,,,,,,,,,,,0,3,3,3,1,,,,,,,,,
,,,,,,,,,,,,,,,fifth,9,21,Male,R,Donders,2021-07-13_22h57.58.266,ImageRatingTask_S1,2021.1.4,Win32,59.91970759,,,,,,,,,,,,,,,,,,,,,0,4,4,4,1,,,,,,,,,
,,,,,,,,,,,,,,,sixth,9,21,Male,R,Donders,2021-07-13_22h57.58.266,ImageRatingTask_S1,2021.1.4,Win32,59.91970759,,,,,,,,,,,,,,,,,,,,,0,5,5,5,1,,,,,,,,,
,,,,,,,,,,,,,,,seventh,9,21,Male,R,Donders,2021-07-13_22h57.58.266,ImageRatingTask_S1,2021.1.4,Win32,59.91970759,,,,,,,,,,,,,,,,,,,,,0,6,6,6,1,,,,,,,,,
,,,,,,,,,,,,,,,last,9,21,Male,R,Donders,2021-07-13_22h57.58.266,ImageRatingTask_S1,2021.1.4,Win32,59.91970759,,,,,,,,,,,,,,,,,,,,,0,7,7,7,1,,,,,,,,,
,,,,,,,,,,,,,,,,9,21,Male,R,Donders,2021-07-13_22h57.58.266,ImageRatingTask_S1,2021.1.4,Win32,59.91970759,,,,,,,,,,,,,,,,,,,,,,,,,,0,57,57,18,1,DreamStudyImages_rs1000x750g/Water/Landscapes_176_h.jpg,,,
,,,,,,,,,,,,,,,main,9,21,Male,R,Donders,2021-07-13_22h57.58.266,ImageRatingTask_S1,2021.1.4,Win32,59.91970759,,,,,,,,,,,2,1.9521,7,1.0261,8,1.5505,1,5.0714,8,1.0684,0,0,0,0,1,,,,,,,,,
,,,,,,,,,,,,,,,second,9,21,Male,R,Donders,2021-07-13_22h57.58.266,ImageRatingTask_S1,2021.1.4,Win32,59.91970759,,,,,,,,,,,,,,,,,,,,,0,1,1,1,1,,,,,,,,,
,,,,,,,,,,,,,,,third,9,21,Male,R,Donders,2021-07-13_22h57.58.266,ImageRatingTask_S1,2021.1.4,Win32,59.91970759,,,,,,,,,,,,,,,,,,,,,0,2,2,2,1,,,,,,,,,
,,,,,,,,,,,,,,,fourth,9,21,Male,R,Donders,2021-07-13_22h57.58.266,ImageRatingTask_S1,2021.1.4,Win32,59.91970759,,,,,,,,,,,,,,,,,,,,,0,3,3,3,1,,,,,,,,,
,,,,,,,,,,,,,,,fifth,9,21,Male,R,Donders,2021-07-13_22h57.58.266,ImageRatingTask_S1,2021.1.4,Win32,59.91970759,,,,,,,,,,,,,,,,,,,,,0,4,4,4,1,,,,,,,,,
,,,,,,,,,,,,,,,sixth,9,21,Male,R,Donders,2021-07-13_22h57.58.266,ImageRatingTask_S1,2021.1.4,Win32,59.91970759,,,,,,,,,,,,,,,,,,,,,0,5,5,5,1,,,,,,,,,
,,,,,,,,,,,,,,,seventh,9,21,Male,R,Donders,2021-07-13_22h57.58.266,ImageRatingTask_S1,2021.1.4,Win32,59.91970759,,,,,,,,,,,,,,,,,,,,,0,6,6,6,1,,,,,,,,,
,,,,,,,,,,,,,,,last,9,21,Male,R,Donders,2021-07-13_22h57.58.266,ImageRatingTask_S1,2021.1.4,Win32,59.91970759,,,,,,,,,,,,,,,,,,,,,0,7,7,7,1,,,,,,,,,
,,,,,,,,,,,,,,,,9,21,Male,R,Donders,2021-07-13_22h57.58.266,ImageRatingTask_S1,2021.1.4,Win32,59.91970759,,,,,,,,,,,,,,,,,,,,,,,,,,0,58,58,34,1,DreamStudyImages_rs1000x750g/Water/Graveyard 3.jpg,,,
,,,,,,,,,,,,,,,main,9,21,Male,R,Donders,2021-07-13_22h57.58.266,ImageRatingTask_S1,2021.1.4,Win32,59.91970759,,,,,,,,,,,2,2.86,6,1.2099,8,2.7431,1,1.5416,2,0.2945,0,0,0,0,1,,,,,,,,,
,,,,,,,,,,,,,,,second,9,21,Male,R,Donders,2021-07-13_22h57.58.266,ImageRatingTask_S1,2021.1.4,Win32,59.91970759,,,,,,,,,,,,,,,,,,,,,0,1,1,1,1,,,,,,,,,
,,,,,,,,,,,,,,,third,9,21,Male,R,Donders,2021-07-13_22h57.58.266,ImageRatingTask_S1,2021.1.4,Win32,59.91970759,,,,,,,,,,,,,,,,,,,,,0,2,2,2,1,,,,,,,,,
,,,,,,,,,,,,,,,fourth,9,21,Male,R,Donders,2021-07-13_22h57.58.266,ImageRatingTask_S1,2021.1.4,Win32,59.91970759,,,,,,,,,,,,,,,,,,,,,0,3,3,3,1,,,,,,,,,
,,,,,,,,,,,,,,,fifth,9,21,Male,R,Donders,2021-07-13_22h57.58.266,ImageRatingTask_S1,2021.1.4,Win32,59.91970759,,,,,,,,,,,,,,,,,,,,,0,4,4,4,1,,,,,,,,,
,,,,,,,,,,,,,,,sixth,9,21,Male,R,Donders,2021-07-13_22h57.58.266,ImageRatingTask_S1,2021.1.4,Win32,59.91970759,,,,,,,,,,,,,,,,,,,,,0,5,5,5,1,,,,,,,,,
,,,,,,,,,,,,,,,seventh,9,21,Male,R,Donders,2021-07-13_22h57.58.266,ImageRatingTask_S1,2021.1.4,Win32,59.91970759,,,,,,,,,,,,,,,,,,,,,0,6,6,6,1,,,,,,,,,
,,,,,,,,,,,,,,,last,9,21,Male,R,Donders,2021-07-13_22h57.58.266,ImageRatingTask_S1,2021.1.4,Win32,59.91970759,,,,,,,,,,,,,,,,,,,,,0,7,7,7,1,,,,,,,,,
,,,,,,,,,,,,,,,,9,21,Male,R,Donders,2021-07-13_22h57.58.266,ImageRatingTask_S1,2021.1.4,Win32,59.91970759,,,,,,,,,,,,,,,,,,,,,,,,,,0,59,59,42,1,DreamStudyImages_rs1000x750g/Children/Sad face 2.jpg,,,
,,,,,,,,,,,,,,,main,9,21,Male,R,Donders,2021-07-13_22h57.58.266,ImageRatingTask_S1,2021.1.4,Win32,59.91970759,,,,,,,,,,,9,1.9101,3,1.4648,7,1.9428,1,2.1291,5,0.5609,0,0,0,0,1,,,,,,,,,
,,,,,,,,,,,,,,,second,9,21,Male,R,Donders,2021-07-13_22h57.58.266,ImageRatingTask_S1,2021.1.4,Win32,59.91970759,,,,,,,,,,,,,,,,,,,,,0,1,1,1,1,,,,,,,,,
,,,,,,,,,,,,,,,third,9,21,Male,R,Donders,2021-07-13_22h57.58.266,ImageRatingTask_S1,2021.1.4,Win32,59.91970759,,,,,,,,,,,,,,,,,,,,,0,2,2,2,1,,,,,,,,,
,,,,,,,,,,,,,,,fourth,9,21,Male,R,Donders,2021-07-13_22h57.58.266,ImageRatingTask_S1,2021.1.4,Win32,59.91970759,,,,,,,,,,,,,,,,,,,,,0,3,3,3,1,,,,,,,,,
,,,,,,,,,,,,,,,fifth,9,21,Male,R,Donders,2021-07-13_22h57.58.266,ImageRatingTask_S1,2021.1.4,Win32,59.91970759,,,,,,,,,,,,,,,,,,,,,0,4,4,4,1,,,,,,,,,
,,,,,,,,,,,,,,,sixth,9,21,Male,R,Donders,2021-07-13_22h57.58.266,ImageRatingTask_S1,2021.1.4,Win32,59.91970759,,,,,,,,,,,,,,,,,,,,,0,5,5,5,1,,,,,,,,,
,,,,,,,,,,,,,,,seventh,9,21,Male,R,Donders,2021-07-13_22h57.58.266,ImageRatingTask_S1,2021.1.4,Win32,59.91970759,,,,,,,,,,,,,,,,,,,,,0,6,6,6,1,,,,,,,,,
,,,,,,,,,,,,,,,last,9,21,Male,R,Donders,2021-07-13_22h57.58.266,ImageRatingTask_S1,2021.1.4,Win32,59.91970759,,,,,,,,,,,,,,,,,,,,,0,7,7,7,1,,,,,,,,,
,,,,,,,,,,,,,,,,9,21,Male,R,Donders,2021-07-13_22h57.58.266,ImageRatingTask_S1,2021.1.4,Win32,59.91970759,,,,,,,,,,,,,,,,,,,,,,,,,,0,60,60,143,1,DreamStudyImages_rs1000x750g/Food/IAPS7477_sushi.jpg,,,
,,,,,,,,,,,,,,,main,9,21,Male,R,Donders,2021-07-13_22h57.58.266,ImageRatingTask_S1,2021.1.4,Win32,59.91970759,,,,,,,,,,,4,4.8473,2,1.8956,6,1.6198,1,1.5192,2,0.1901,0,0,0,0,1,,,,,,,,,
,,,,,,,,,,,,,,,second,9,21,Male,R,Donders,2021-07-13_22h57.58.266,ImageRatingTask_S1,2021.1.4,Win32,59.91970759,,,,,,,,,,,,,,,,,,,,,0,1,1,1,1,,,,,,,,,
,,,,,,,,,,,,,,,third,9,21,Male,R,Donders,2021-07-13_22h57.58.266,ImageRatingTask_S1,2021.1.4,Win32,59.91970759,,,,,,,,,,,,,,,,,,,,,0,2,2,2,1,,,,,,,,,
,,,,,,,,,,,,,,,fourth,9,21,Male,R,Donders,2021-07-13_22h57.58.266,ImageRatingTask_S1,2021.1.4,Win32,59.91970759,,,,,,,,,,,,,,,,,,,,,0,3,3,3,1,,,,,,,,,
,,,,,,,,,,,,,,,fifth,9,21,Male,R,Donders,2021-07-13_22h57.58.266,ImageRatingTask_S1,2021.1.4,Win32,59.91970759,,,,,,,,,,,,,,,,,,,,,0,4,4,4,1,,,,,,,,,
,,,,,,,,,,,,,,,sixth,9,21,Male,R,Donders,2021-07-13_22h57.58.266,ImageRatingTask_S1,2021.1.4,Win32,59.91970759,,,,,,,,,,,,,,,,,,,,,0,5,5,5,1,,,,,,,,,
,,,,,,,,,,,,,,,seventh,9,21,Male,R,Donders,2021-07-13_22h57.58.266,ImageRatingTask_S1,2021.1.4,Win32,59.91970759,,,,,,,,,,,,,,,,,,,,,0,6,6,6,1,,,,,,,,,
,,,,,,,,,,,,,,,last,9,21,Male,R,Donders,2021-07-13_22h57.58.266,ImageRatingTask_S1,2021.1.4,Win32,59.91970759,,,,,,,,,,,,,,,,,,,,,0,7,7,7,1,,,,,,,,,
,,,,,,,,,,,,,,,,9,21,Male,R,Donders,2021-07-13_22h57.58.266,ImageRatingTask_S1,2021.1.4,Win32,59.91970759,,,,,,,,,,,,,,,,,,,,,,,,,,0,61,61,29,1,DreamStudyImages_rs1000x750g/Children/Gazing 3.jpg,,,
,,,,,,,,,,,,,,,main,9,21,Male,R,Donders,2021-07-13_22h57.58.266,ImageRatingTask_S1,2021.1.4,Win32,59.91970759,,,,,,,,,,,2,1.8494,7,1.8865,6,1.8206,1,1.5878,2,0.3995,0,0,0,0,1,,,,,,,,,
,,,,,,,,,,,,,,,second,9,21,Male,R,Donders,2021-07-13_22h57.58.266,ImageRatingTask_S1,2021.1.4,Win32,59.91970759,,,,,,,,,,,,,,,,,,,,,0,1,1,1,1,,,,,,,,,
,,,,,,,,,,,,,,,third,9,21,Male,R,Donders,2021-07-13_22h57.58.266,ImageRatingTask_S1,2021.1.4,Win32,59.91970759,,,,,,,,,,,,,,,,,,,,,0,2,2,2,1,,,,,,,,,
,,,,,,,,,,,,,,,fourth,9,21,Male,R,Donders,2021-07-13_22h57.58.266,ImageRatingTask_S1,2021.1.4,Win32,59.91970759,,,,,,,,,,,,,,,,,,,,,0,3,3,3,1,,,,,,,,,
,,,,,,,,,,,,,,,fifth,9,21,Male,R,Donders,2021-07-13_22h57.58.266,ImageRatingTask_S1,2021.1.4,Win32,59.91970759,,,,,,,,,,,,,,,,,,,,,0,4,4,4,1,,,,,,,,,
,,,,,,,,,,,,,,,sixth,9,21,Male,R,Donders,2021-07-13_22h57.58.266,ImageRatingTask_S1,2021.1.4,Win32,59.91970759,,,,,,,,,,,,,,,,,,,,,0,5,5,5,1,,,,,,,,,
,,,,,,,,,,,,,,,seventh,9,21,Male,R,Donders,2021-07-13_22h57.58.266,ImageRatingTask_S1,2021.1.4,Win32,59.91970759,,,,,,,,,,,,,,,,,,,,,0,6,6,6,1,,,,,,,,,
