slider_pre.response,slider_pre.rt,key_val.keys,key_val.rt,key_aro.keys,key_aro.rt,key_qual.keys,key_qual.rt,key_ncat.keys,key_ncat.rt,key_cats.keys,key_cats.rt,ncat_order.thisRepN,ncat_order.thisTrialN,ncat_order.thisN,ncat_order.thisIndex,ncat_order.ran,cond_cat,participant,age,gender,handedness (L/R),site (IMT/Donders),date,expName,psychopyVersion,OS,frameRate,img_trials.thisRepN,img_trials.thisTrialN,img_trials.thisN,img_trials.thisIndex,img_trials.ran,filename,slider_post.response,slider_post.rt,key_fb.keys,key_fb.rt,fb.thisRepN,fb.thisTrialN,fb.thisN,fb.thisIndex,fb.ran,fb_qst,textbox_openfb.text
6,3.2214,6,3.8935,1,1.9034,8,0.8077,1,0.8733,7,0.3797,0,0,0,0,1,main,9,21,Male,R,Donders,2021-07-18_13h48.40.997,ImageRatingTask_S5,2021.1.4,Win32,59.24521595,,,,,,,,,,,,,,,,,
,,,,,,,,,,,,0,1,1,1,1,second,9,21,Male,R,Donders,2021-07-18_13h48.40.997,ImageRatingTask_S5,2021.1.4,Win32,59.24521595,,,,,,,,,,,,,,,,,
,,,,,,,,,,,,0,2,2,2,1,third,9,21,Male,R,Donders,2021-07-18_13h48.40.997,ImageRatingTask_S5,2021.1.4,Win32,59.24521595,,,,,,,,,,,,,,,,,
,,,,,,,,,,,,0,3,3,3,1,fourth,9,21,Male,R,Donders,2021-07-18_13h48.40.997,ImageRatingTask_S5,2021.1.4,Win32,59.24521595,,,,,,,,,,,,,,,,,
,,,,,,,,,,,,0,4,4,4,1,fifth,9,21,Male,R,Donders,2021-07-18_13h48.40.997,ImageRatingTask_S5,2021.1.4,Win32,59.24521595,,,,,,,,,,,,,,,,,
,,,,,,,,,,,,0,5,5,5,1,sixth,9,21,Male,R,Donders,2021-07-18_13h48.40.997,ImageRatingTask_S5,2021.1.4,Win32,59.24521595,,,,,,,,,,,,,,,,,
,,,,,,,,,,,,0,6,6,6,1,seventh,9,21,Male,R,Donders,2021-07-18_13h48.40.997,ImageRatingTask_S5,2021.1.4,Win32,59.24521595,,,,,,,,,,,,,,,,,
,,,,,,,,,,,,0,7,7,7,1,last,9,21,Male,R,Donders,2021-07-18_13h48.40.997,ImageRatingTask_S5,2021.1.4,Win32,59.24521595,,,,,,,,,,,,,,,,,
,,,,,,,,,,,,,,,,,,9,21,Male,R,Donders,2021-07-18_13h48.40.997,ImageRatingTask_S5,2021.1.4,Win32,59.24521595,0,0,0,105,1,DreamStudyImages_rs1000x750g/Vehicles/whitecar.jpg,,,,,,,,,,,
,,6,1.9612,1,0.3482,5,1.5397,1,2.3906,5,0.1804,0,0,0,0,1,main,9,21,Male,R,Donders,2021-07-18_13h48.40.997,ImageRatingTask_S5,2021.1.4,Win32,59.24521595,,,,,,,,,,,,,,,,,
,,,,,,,,,,,,0,1,1,1,1,second,9,21,Male,R,Donders,2021-07-18_13h48.40.997,ImageRatingTask_S5,2021.1.4,Win32,59.24521595,,,,,,,,,,,,,,,,,
,,,,,,,,,,,,0,2,2,2,1,third,9,21,Male,R,Donders,2021-07-18_13h48.40.997,ImageRatingTask_S5,2021.1.4,Win32,59.24521595,,,,,,,,,,,,,,,,,
,,,,,,,,,,,,0,3,3,3,1,fourth,9,21,Male,R,Donders,2021-07-18_13h48.40.997,ImageRatingTask_S5,2021.1.4,Win32,59.24521595,,,,,,,,,,,,,,,,,
,,,,,,,,,,,,0,4,4,4,1,fifth,9,21,Male,R,Donders,2021-07-18_13h48.40.997,ImageRatingTask_S5,2021.1.4,Win32,59.24521595,,,,,,,,,,,,,,,,,
,,,,,,,,,,,,0,5,5,5,1,sixth,9,21,Male,R,Donders,2021-07-18_13h48.40.997,ImageRatingTask_S5,2021.1.4,Win32,59.24521595,,,,,,,,,,,,,,,,,
,,,,,,,,,,,,0,6,6,6,1,seventh,9,21,Male,R,Donders,2021-07-18_13h48.40.997,ImageRatingTask_S5,2021.1.4,Win32,59.24521595,,,,,,,,,,,,,,,,,
,,,,,,,,,,,,0,7,7,7,1,last,9,21,Male,R,Donders,2021-07-18_13h48.40.997,ImageRatingTask_S5,2021.1.4,Win32,59.24521595,,,,,,,,,,,,,,,,,
,,,,,,,,,,,,,,,,,,9,21,Male,R,Donders,2021-07-18_13h48.40.997,ImageRatingTask_S5,2021.1.4,Win32,59.24521595,0,1,1,14,1,DreamStudyImages_rs1000x750g/Children/Baby 9.jpg,,,,,,,,,,,
,,5,4.0498,1,0.3898,4,1.3068,1,2.1423,6,0.029,0,0,0,0,1,main,9,21,Male,R,Donders,2021-07-18_13h48.40.997,ImageRatingTask_S5,2021.1.4,Win32,59.24521595,,,,,,,,,,,,,,,,,
,,,,,,,,,,,,0,1,1,1,1,second,9,21,Male,R,Donders,2021-07-18_13h48.40.997,ImageRatingTask_S5,2021.1.4,Win32,59.24521595,,,,,,,,,,,,,,,,,
,,,,,,,,,,,,0,2,2,2,1,third,9,21,Male,R,Donders,2021-07-18_13h48.40.997,ImageRatingTask_S5,2021.1.4,Win32,59.24521595,,,,,,,,,,,,,,,,,
,,,,,,,,,,,,0,3,3,3,1,fourth,9,21,Male,R,Donders,2021-07-18_13h48.40.997,ImageRatingTask_S5,2021.1.4,Win32,59.24521595,,,,,,,,,,,,,,,,,
,,,,,,,,,,,,0,4,4,4,1,fifth,9,21,Male,R,Donders,2021-07-18_13h48.40.997,ImageRatingTask_S5,2021.1.4,Win32,59.24521595,,,,,,,,,,,,,,,,,
,,,,,,,,,,,,0,5,5,5,1,sixth,9,21,Male,R,Donders,2021-07-18_13h48.40.997,ImageRatingTask_S5,2021.1.4,Win32,59.24521595,,,,,,,,,,,,,,,,,
,,,,,,,,,,,,0,6,6,6,1,seventh,9,21,Male,R,Donders,2021-07-18_13h48.40.997,ImageRatingTask_S5,2021.1.4,Win32,59.24521595,,,,,,,,,,,,,,,,,
,,,,,,,,,,,,0,7,7,7,1,last,9,21,Male,R,Donders,2021-07-18_13h48.40.997,ImageRatingTask_S5,2021.1.4,Win32,59.24521595,,,,,,,,,,,,,,,,,
,,,,,,,,,,,,,,,,,,9,21,Male,R,Donders,2021-07-18_13h48.40.997,ImageRatingTask_S5,2021.1.4,Win32,59.24521595,0,2,2,43,1,DreamStudyImages_rs1000x750g/Houses/City 1.jpg,,,,,,,,,,,
,,5,2.4999,1,0.3949,6,1.627,1,1.2015,6,0.0963,0,0,0,0,1,main,9,21,Male,R,Donders,2021-07-18_13h48.40.997,ImageRatingTask_S5,2021.1.4,Win32,59.24521595,,,,,,,,,,,,,,,,,
,,,,,,,,,,,,0,1,1,1,1,second,9,21,Male,R,Donders,2021-07-18_13h48.40.997,ImageRatingTask_S5,2021.1.4,Win32,59.24521595,,,,,,,,,,,,,,,,,
,,,,,,,,,,,,0,2,2,2,1,third,9,21,Male,R,Donders,2021-07-18_13h48.40.997,ImageRatingTask_S5,2021.1.4,Win32,59.24521595,,,,,,,,,,,,,,,,,
,,,,,,,,,,,,0,3,3,3,1,fourth,9,21,Male,R,Donders,2021-07-18_13h48.40.997,ImageRatingTask_S5,2021.1.4,Win32,59.24521595,,,,,,,,,,,,,,,,,
,,,,,,,,,,,,0,4,4,4,1,fifth,9,21,Male,R,Donders,2021-07-18_13h48.40.997,ImageRatingTask_S5,2021.1.4,Win32,59.24521595,,,,,,,,,,,,,,,,,
,,,,,,,,,,,,0,5,5,5,1,sixth,9,21,Male,R,Donders,2021-07-18_13h48.40.997,ImageRatingTask_S5,2021.1.4,Win32,59.24521595,,,,,,,,,,,,,,,,,
,,,,,,,,,,,,0,6,6,6,1,seventh,9,21,Male,R,Donders,2021-07-18_13h48.40.997,ImageRatingTask_S5,2021.1.4,Win32,59.24521595,,,,,,,,,,,,,,,,,
,,,,,,,,,,,,0,7,7,7,1,last,9,21,Male,R,Donders,2021-07-18_13h48.40.997,ImageRatingTask_S5,2021.1.4,Win32,59.24521595,,,,,,,,,,,,,,,,,
,,,,,,,,,,,,,,,,,,9,21,Male,R,Donders,2021-07-18_13h48.40.997,ImageRatingTask_S5,2021.1.4,Win32,59.24521595,0,3,3,94,1,DreamStudyImages_rs1000x750g/Houses/Landscapes_024_v.jpg,,,,,,,,,,,
,,6,7.8761,1,0.6138,6,1.2585,1,1.2934,3,0.0452,0,0,0,0,1,main,9,21,Male,R,Donders,2021-07-18_13h48.40.997,ImageRatingTask_S5,2021.1.4,Win32,59.24521595,,,,,,,,,,,,,,,,,
,,,,,,,,,,,,0,1,1,1,1,second,9,21,Male,R,Donders,2021-07-18_13h48.40.997,ImageRatingTask_S5,2021.1.4,Win32,59.24521595,,,,,,,,,,,,,,,,,
,,,,,,,,,,,,0,2,2,2,1,third,9,21,Male,R,Donders,2021-07-18_13h48.40.997,ImageRatingTask_S5,2021.1.4,Win32,59.24521595,,,,,,,,,,,,,,,,,
,,,,,,,,,,,,0,3,3,3,1,fourth,9,21,Male,R,Donders,2021-07-18_13h48.40.997,ImageRatingTask_S5,2021.1.4,Win32,59.24521595,,,,,,,,,,,,,,,,,
,,,,,,,,,,,,0,4,4,4,1,fifth,9,21,Male,R,Donders,2021-07-18_13h48.40.997,ImageRatingTask_S5,2021.1.4,Win32,59.24521595,,,,,,,,,,,,,,,,,
,,,,,,,,,,,,0,5,5,5,1,sixth,9,21,Male,R,Donders,2021-07-18_13h48.40.997,ImageRatingTask_S5,2021.1.4,Win32,59.24521595,,,,,,,,,,,,,,,,,
,,,,,,,,,,,,0,6,6,6,1,seventh,9,21,Male,R,Donders,2021-07-18_13h48.40.997,ImageRatingTask_S5,2021.1.4,Win32,59.24521595,,,,,,,,,,,,,,,,,
,,,,,,,,,,,,0,7,7,7,1,last,9,21,Male,R,Donders,2021-07-18_13h48.40.997,ImageRatingTask_S5,2021.1.4,Win32,59.24521595,,,,,,,,,,,,,,,,,
,,,,,,,,,,,,,,,,,,9,21,Male,R,Donders,2021-07-18_13h48.40.997,ImageRatingTask_S5,2021.1.4,Win32,59.24521595,0,4,4,130,1,DreamStudyImages_rs1000x750g/Mammals/Animals_168_h.jpg,,,,,,,,,,,
,,6,3.8032,1,0.3417,6,14.3111,1,1.2511,3,0.6747,0,0,0,0,1,main,9,21,Male,R,Donders,2021-07-18_13h48.40.997,ImageRatingTask_S5,2021.1.4,Win32,59.24521595,,,,,,,,,,,,,,,,,
,,,,,,,,,,,,0,1,1,1,1,second,9,21,Male,R,Donders,2021-07-18_13h48.40.997,ImageRatingTask_S5,2021.1.4,Win32,59.24521595,,,,,,,,,,,,,,,,,
,,,,,,,,,,,,0,2,2,2,1,third,9,21,Male,R,Donders,2021-07-18_13h48.40.997,ImageRatingTask_S5,2021.1.4,Win32,59.24521595,,,,,,,,,,,,,,,,,
,,,,,,,,,,,,0,3,3,3,1,fourth,9,21,Male,R,Donders,2021-07-18_13h48.40.997,ImageRatingTask_S5,2021.1.4,Win32,59.24521595,,,,,,,,,,,,,,,,,
,,,,,,,,,,,,0,4,4,4,1,fifth,9,21,Male,R,Donders,2021-07-18_13h48.40.997,ImageRatingTask_S5,2021.1.4,Win32,59.24521595,,,,,,,,,,,,,,,,,
,,,,,,,,,,,,0,5,5,5,1,sixth,9,21,Male,R,Donders,2021-07-18_13h48.40.997,ImageRatingTask_S5,2021.1.4,Win32,59.24521595,,,,,,,,,,,,,,,,,
,,,,,,,,,,,,0,6,6,6,1,seventh,9,21,Male,R,Donders,2021-07-18_13h48.40.997,ImageRatingTask_S5,2021.1.4,Win32,59.24521595,,,,,,,,,,,,,,,,,
,,,,,,,,,,,,0,7,7,7,1,last,9,21,Male,R,Donders,2021-07-18_13h48.40.997,ImageRatingTask_S5,2021.1.4,Win32,59.24521595,,,,,,,,,,,,,,,,,
,,,,,,,,,,,,,,,,,,9,21,Male,R,Donders,2021-07-18_13h48.40.997,ImageRatingTask_S5,2021.1.4,Win32,59.24521595,0,5,5,40,1,DreamStudyImages_rs1000x750g/Mammals/Animals_126_h.jpg,,,,,,,,,,,
,,1,3.0026,8,0.3472,3,14.6955,1,1.2146,2,0.1152,0,0,0,0,1,main,9,21,Male,R,Donders,2021-07-18_13h48.40.997,ImageRatingTask_S5,2021.1.4,Win32,59.24521595,,,,,,,,,,,,,,,,,
,,,,,,,,,,,,0,1,1,1,1,second,9,21,Male,R,Donders,2021-07-18_13h48.40.997,ImageRatingTask_S5,2021.1.4,Win32,59.24521595,,,,,,,,,,,,,,,,,
,,,,,,,,,,,,0,2,2,2,1,third,9,21,Male,R,Donders,2021-07-18_13h48.40.997,ImageRatingTask_S5,2021.1.4,Win32,59.24521595,,,,,,,,,,,,,,,,,
,,,,,,,,,,,,0,3,3,3,1,fourth,9,21,Male,R,Donders,2021-07-18_13h48.40.997,ImageRatingTask_S5,2021.1.4,Win32,59.24521595,,,,,,,,,,,,,,,,,
,,,,,,,,,,,,0,4,4,4,1,fifth,9,21,Male,R,Donders,2021-07-18_13h48.40.997,ImageRatingTask_S5,2021.1.4,Win32,59.24521595,,,,,,,,,,,,,,,,,
,,,,,,,,,,,,0,5,5,5,1,sixth,9,21,Male,R,Donders,2021-07-18_13h48.40.997,ImageRatingTask_S5,2021.1.4,Win32,59.24521595,,,,,,,,,,,,,,,,,
,,,,,,,,,,,,0,6,6,6,1,seventh,9,21,Male,R,Donders,2021-07-18_13h48.40.997,ImageRatingTask_S5,2021.1.4,Win32,59.24521595,,,,,,,,,,,,,,,,,
,,,,,,,,,,,,0,7,7,7,1,last,9,21,Male,R,Donders,2021-07-18_13h48.40.997,ImageRatingTask_S5,2021.1.4,Win32,59.24521595,,,,,,,,,,,,,,,,,
,,,,,,,,,,,,,,,,,,9,21,Male,R,Donders,2021-07-18_13h48.40.997,ImageRatingTask_S5,2021.1.4,Win32,59.24521595,0,6,6,79,1,DreamStudyImages_rs1000x750g/Children/IAPS3301_babyaccident2.jpg,,,,,,,,,,,
,,6,29.2129,1,0.9935,6,1.3336,1,1.0718,7,0.3295,0,0,0,0,1,main,9,21,Male,R,Donders,2021-07-18_13h48.40.997,ImageRatingTask_S5,2021.1.4,Win32,59.24521595,,,,,,,,,,,,,,,,,
,,,,,,,,,,,,0,1,1,1,1,second,9,21,Male,R,Donders,2021-07-18_13h48.40.997,ImageRatingTask_S5,2021.1.4,Win32,59.24521595,,,,,,,,,,,,,,,,,
,,,,,,,,,,,,0,2,2,2,1,third,9,21,Male,R,Donders,2021-07-18_13h48.40.997,ImageRatingTask_S5,2021.1.4,Win32,59.24521595,,,,,,,,,,,,,,,,,
,,,,,,,,,,,,0,3,3,3,1,fourth,9,21,Male,R,Donders,2021-07-18_13h48.40.997,ImageRatingTask_S5,2021.1.4,Win32,59.24521595,,,,,,,,,,,,,,,,,
,,,,,,,,,,,,0,4,4,4,1,fifth,9,21,Male,R,Donders,2021-07-18_13h48.40.997,ImageRatingTask_S5,2021.1.4,Win32,59.24521595,,,,,,,,,,,,,,,,,
,,,,,,,,,,,,0,5,5,5,1,sixth,9,21,Male,R,Donders,2021-07-18_13h48.40.997,ImageRatingTask_S5,2021.1.4,Win32,59.24521595,,,,,,,,,,,,,,,,,
,,,,,,,,,,,,0,6,6,6,1,seventh,9,21,Male,R,Donders,2021-07-18_13h48.40.997,ImageRatingTask_S5,2021.1.4,Win32,59.24521595,,,,,,,,,,,,,,,,,
,,,,,,,,,,,,0,7,7,7,1,last,9,21,Male,R,Donders,2021-07-18_13h48.40.997,ImageRatingTask_S5,2021.1.4,Win32,59.24521595,,,,,,,,,,,,,,,,,
,,,,,,,,,,,,,,,,,,9,21,Male,R,Donders,2021-07-18_13h48.40.997,ImageRatingTask_S5,2021.1.4,Win32,59.24521595,0,7,7,4,1,DreamStudyImages_rs1000x750g/Vehicles/fireengine.jpg,,,,,,,,,,,
,,2,5.0695,6,0.4068,3,1.8811,1,0.1139,5,0.1645,0,0,0,0,1,main,9,21,Male,R,Donders,2021-07-18_13h48.40.997,ImageRatingTask_S5,2021.1.4,Win32,59.24521595,,,,,,,,,,,,,,,,,
,,,,,,,,,,,,0,1,1,1,1,second,9,21,Male,R,Donders,2021-07-18_13h48.40.997,ImageRatingTask_S5,2021.1.4,Win32,59.24521595,,,,,,,,,,,,,,,,,
,,,,,,,,,,,,0,2,2,2,1,third,9,21,Male,R,Donders,2021-07-18_13h48.40.997,ImageRatingTask_S5,2021.1.4,Win32,59.24521595,,,,,,,,,,,,,,,,,
,,,,,,,,,,,,0,3,3,3,1,fourth,9,21,Male,R,Donders,2021-07-18_13h48.40.997,ImageRatingTask_S5,2021.1.4,Win32,59.24521595,,,,,,,,,,,,,,,,,
,,,,,,,,,,,,0,4,4,4,1,fifth,9,21,Male,R,Donders,2021-07-18_13h48.40.997,ImageRatingTask_S5,2021.1.4,Win32,59.24521595,,,,,,,,,,,,,,,,,
,,,,,,,,,,,,0,5,5,5,1,sixth,9,21,Male,R,Donders,2021-07-18_13h48.40.997,ImageRatingTask_S5,2021.1.4,Win32,59.24521595,,,,,,,,,,,,,,,,,
,,,,,,,,,,,,0,6,6,6,1,seventh,9,21,Male,R,Donders,2021-07-18_13h48.40.997,ImageRatingTask_S5,2021.1.4,Win32,59.24521595,,,,,,,,,,,,,,,,,
,,,,,,,,,,,,0,7,7,7,1,last,9,21,Male,R,Donders,2021-07-18_13h48.40.997,ImageRatingTask_S5,2021.1.4,Win32,59.24521595,,,,,,,,,,,,,,,,,
,,,,,,,,,,,,,,,,,,9,21,Male,R,Donders,2021-07-18_13h48.40.997,ImageRatingTask_S5,2021.1.4,Win32,59.24521595,0,8,8,50,1,DreamStudyImages_rs1000x750g/Food/Objects_019_h.jpg,,,,,,,,,,,
,,6,1.7241,1,0.7117,7,1.6741,1,0.8715,2,1.1643,0,0,0,0,1,main,9,21,Male,R,Donders,2021-07-18_13h48.40.997,ImageRatingTask_S5,2021.1.4,Win32,59.24521595,,,,,,,,,,,,,,,,,
,,,,,,,,,,,,0,1,1,1,1,second,9,21,Male,R,Donders,2021-07-18_13h48.40.997,ImageRatingTask_S5,2021.1.4,Win32,59.24521595,,,,,,,,,,,,,,,,,
,,,,,,,,,,,,0,2,2,2,1,third,9,21,Male,R,Donders,2021-07-18_13h48.40.997,ImageRatingTask_S5,2021.1.4,Win32,59.24521595,,,,,,,,,,,,,,,,,
,,,,,,,,,,,,0,3,3,3,1,fourth,9,21,Male,R,Donders,2021-07-18_13h48.40.997,ImageRatingTask_S5,2021.1.4,Win32,59.24521595,,,,,,,,,,,,,,,,,
,,,,,,,,,,,,0,4,4,4,1,fifth,9,21,Male,R,Donders,2021-07-18_13h48.40.997,ImageRatingTask_S5,2021.1.4,Win32,59.24521595,,,,,,,,,,,,,,,,,
,,,,,,,,,,,,0,5,5,5,1,sixth,9,21,Male,R,Donders,2021-07-18_13h48.40.997,ImageRatingTask_S5,2021.1.4,Win32,59.24521595,,,,,,,,,,,,,,,,,
,,,,,,,,,,,,0,6,6,6,1,seventh,9,21,Male,R,Donders,2021-07-18_13h48.40.997,ImageRatingTask_S5,2021.1.4,Win32,59.24521595,,,,,,,,,,,,,,,,,
,,,,,,,,,,,,0,7,7,7,1,last,9,21,Male,R,Donders,2021-07-18_13h48.40.997,ImageRatingTask_S5,2021.1.4,Win32,59.24521595,,,,,,,,,,,,,,,,,
,,,,,,,,,,,,,,,,,,9,21,Male,R,Donders,2021-07-18_13h48.40.997,ImageRatingTask_S5,2021.1.4,Win32,59.24521595,0,9,9,34,1,DreamStudyImages_rs1000x750g/Children/Faces_057_h.jpg,,,,,,,,,,,
,,4,3.0271,4,1.2359,3,1.674,1,1.7411,3,0.1036,0,0,0,0,1,main,9,21,Male,R,Donders,2021-07-18_13h48.40.997,ImageRatingTask_S5,2021.1.4,Win32,59.24521595,,,,,,,,,,,,,,,,,
,,,,,,,,,,,,0,1,1,1,1,second,9,21,Male,R,Donders,2021-07-18_13h48.40.997,ImageRatingTask_S5,2021.1.4,Win32,59.24521595,,,,,,,,,,,,,,,,,
,,,,,,,,,,,,0,2,2,2,1,third,9,21,Male,R,Donders,2021-07-18_13h48.40.997,ImageRatingTask_S5,2021.1.4,Win32,59.24521595,,,,,,,,,,,,,,,,,
,,,,,,,,,,,,0,3,3,3,1,fourth,9,21,Male,R,Donders,2021-07-18_13h48.40.997,ImageRatingTask_S5,2021.1.4,Win32,59.24521595,,,,,,,,,,,,,,,,,
,,,,,,,,,,,,0,4,4,4,1,fifth,9,21,Male,R,Donders,2021-07-18_13h48.40.997,ImageRatingTask_S5,2021.1.4,Win32,59.24521595,,,,,,,,,,,,,,,,,
,,,,,,,,,,,,0,5,5,5,1,sixth,9,21,Male,R,Donders,2021-07-18_13h48.40.997,ImageRatingTask_S5,2021.1.4,Win32,59.24521595,,,,,,,,,,,,,,,,,
,,,,,,,,,,,,0,6,6,6,1,seventh,9,21,Male,R,Donders,2021-07-18_13h48.40.997,ImageRatingTask_S5,2021.1.4,Win32,59.24521595,,,,,,,,,,,,,,,,,
,,,,,,,,,,,,0,7,7,7,1,last,9,21,Male,R,Donders,2021-07-18_13h48.40.997,ImageRatingTask_S5,2021.1.4,Win32,59.24521595,,,,,,,,,,,,,,,,,
,,,,,,,,,,,,,,,,,,9,21,Male,R,Donders,2021-07-18_13h48.40.997,ImageRatingTask_S5,2021.1.4,Win32,59.24521595,0,10,10,96,1,DreamStudyImages_rs1000x750g/Mammals/Animal carcass 6.jpg,,,,,,,,,,,
,,3,50.3721,4,0.4718,6,1.3787,1,4.0648,7,1.2459,0,0,0,0,1,main,9,21,Male,R,Donders,2021-07-18_13h48.40.997,ImageRatingTask_S5,2021.1.4,Win32,59.24521595,,,,,,,,,,,,,,,,,
,,,,,,,,,,,,0,1,1,1,1,second,9,21,Male,R,Donders,2021-07-18_13h48.40.997,ImageRatingTask_S5,2021.1.4,Win32,59.24521595,,,,,,,,,,,,,,,,,
,,,,,,,,,,,,0,2,2,2,1,third,9,21,Male,R,Donders,2021-07-18_13h48.40.997,ImageRatingTask_S5,2021.1.4,Win32,59.24521595,,,,,,,,,,,,,,,,,
,,,,,,,,,,,,0,3,3,3,1,fourth,9,21,Male,R,Donders,2021-07-18_13h48.40.997,ImageRatingTask_S5,2021.1.4,Win32,59.24521595,,,,,,,,,,,,,,,,,
,,,,,,,,,,,,0,4,4,4,1,fifth,9,21,Male,R,Donders,2021-07-18_13h48.40.997,ImageRatingTask_S5,2021.1.4,Win32,59.24521595,,,,,,,,,,,,,,,,,
,,,,,,,,,,,,0,5,5,5,1,sixth,9,21,Male,R,Donders,2021-07-18_13h48.40.997,ImageRatingTask_S5,2021.1.4,Win32,59.24521595,,,,,,,,,,,,,,,,,
,,,,,,,,,,,,0,6,6,6,1,seventh,9,21,Male,R,Donders,2021-07-18_13h48.40.997,ImageRatingTask_S5,2021.1.4,Win32,59.24521595,,,,,,,,,,,,,,,,,
,,,,,,,,,,,,0,7,7,7,1,last,9,21,Male,R,Donders,2021-07-18_13h48.40.997,ImageRatingTask_S5,2021.1.4,Win32,59.24521595,,,,,,,,,,,,,,,,,
,,,,,,,,,,,,,,,,,,9,21,Male,R,Donders,2021-07-18_13h48.40.997,ImageRatingTask_S5,2021.1.4,Win32,59.24521595,0,11,11,8,1,DreamStudyImages_rs1000x750g/Vehicles/Plane crash 3.jpg,,,,,,,,,,,
,,6,1.7247,2,11.6035,6,1.6093,1,0.99,5,0.2107,0,0,0,0,1,main,9,21,Male,R,Donders,2021-07-18_13h48.40.997,ImageRatingTask_S5,2021.1.4,Win32,59.24521595,,,,,,,,,,,,,,,,,
,,,,,,,,,,,,0,1,1,1,1,second,9,21,Male,R,Donders,2021-07-18_13h48.40.997,ImageRatingTask_S5,2021.1.4,Win32,59.24521595,,,,,,,,,,,,,,,,,
,,,,,,,,,,,,0,2,2,2,1,third,9,21,Male,R,Donders,2021-07-18_13h48.40.997,ImageRatingTask_S5,2021.1.4,Win32,59.24521595,,,,,,,,,,,,,,,,,
,,,,,,,,,,,,0,3,3,3,1,fourth,9,21,Male,R,Donders,2021-07-18_13h48.40.997,ImageRatingTask_S5,2021.1.4,Win32,59.24521595,,,,,,,,,,,,,,,,,
,,,,,,,,,,,,0,4,4,4,1,fifth,9,21,Male,R,Donders,2021-07-18_13h48.40.997,ImageRatingTask_S5,2021.1.4,Win32,59.24521595,,,,,,,,,,,,,,,,,
,,,,,,,,,,,,0,5,5,5,1,sixth,9,21,Male,R,Donders,2021-07-18_13h48.40.997,ImageRatingTask_S5,2021.1.4,Win32,59.24521595,,,,,,,,,,,,,,,,,
,,,,,,,,,,,,0,6,6,6,1,seventh,9,21,Male,R,Donders,2021-07-18_13h48.40.997,ImageRatingTask_S5,2021.1.4,Win32,59.24521595,,,,,,,,,,,,,,,,,
,,,,,,,,,,,,0,7,7,7,1,last,9,21,Male,R,Donders,2021-07-18_13h48.40.997,ImageRatingTask_S5,2021.1.4,Win32,59.24521595,,,,,,,,,,,,,,,,,
,,,,,,,,,,,,,,,,,,9,21,Male,R,Donders,2021-07-18_13h48.40.997,ImageRatingTask_S5,2021.1.4,Win32,59.24521595,0,12,12,113,1,DreamStudyImages_rs1000x750g/Food/Objects_078_h.jpg,,,,,,,,,,,
,,6,3.5635,1,0.3007,4,1.6841,1,2.3713,6,0.2518,0,0,0,0,1,main,9,21,Male,R,Donders,2021-07-18_13h48.40.997,ImageRatingTask_S5,2021.1.4,Win32,59.24521595,,,,,,,,,,,,,,,,,
,,,,,,,,,,,,0,1,1,1,1,second,9,21,Male,R,Donders,2021-07-18_13h48.40.997,ImageRatingTask_S5,2021.1.4,Win32,59.24521595,,,,,,,,,,,,,,,,,
,,,,,,,,,,,,0,2,2,2,1,third,9,21,Male,R,Donders,2021-07-18_13h48.40.997,ImageRatingTask_S5,2021.1.4,Win32,59.24521595,,,,,,,,,,,,,,,,,
,,,,,,,,,,,,0,3,3,3,1,fourth,9,21,Male,R,Donders,2021-07-18_13h48.40.997,ImageRatingTask_S5,2021.1.4,Win32,59.24521595,,,,,,,,,,,,,,,,,
,,,,,,,,,,,,0,4,4,4,1,fifth,9,21,Male,R,Donders,2021-07-18_13h48.40.997,ImageRatingTask_S5,2021.1.4,Win32,59.24521595,,,,,,,,,,,,,,,,,
,,,,,,,,,,,,0,5,5,5,1,sixth,9,21,Male,R,Donders,2021-07-18_13h48.40.997,ImageRatingTask_S5,2021.1.4,Win32,59.24521595,,,,,,,,,,,,,,,,,
,,,,,,,,,,,,0,6,6,6,1,seventh,9,21,Male,R,Donders,2021-07-18_13h48.40.997,ImageRatingTask_S5,2021.1.4,Win32,59.24521595,,,,,,,,,,,,,,,,,
,,,,,,,,,,,,0,7,7,7,1,last,9,21,Male,R,Donders,2021-07-18_13h48.40.997,ImageRatingTask_S5,2021.1.4,Win32,59.24521595,,,,,,,,,,,,,,,,,
,,,,,,,,,,,,,,,,,,9,21,Male,R,Donders,2021-07-18_13h48.40.997,ImageRatingTask_S5,2021.1.4,Win32,59.24521595,0,13,13,83,1,DreamStudyImages_rs1000x750g/Houses/Bar 2.jpg,,,,,,,,,,,
,,6,2.6425,1,0.5018,4,2.0164,1,2.6514,6,0.0929,0,0,0,0,1,main,9,21,Male,R,Donders,2021-07-18_13h48.40.997,ImageRatingTask_S5,2021.1.4,Win32,59.24521595,,,,,,,,,,,,,,,,,
,,,,,,,,,,,,0,1,1,1,1,second,9,21,Male,R,Donders,2021-07-18_13h48.40.997,ImageRatingTask_S5,2021.1.4,Win32,59.24521595,,,,,,,,,,,,,,,,,
,,,,,,,,,,,,0,2,2,2,1,third,9,21,Male,R,Donders,2021-07-18_13h48.40.997,ImageRatingTask_S5,2021.1.4,Win32,59.24521595,,,,,,,,,,,,,,,,,
,,,,,,,,,,,,0,3,3,3,1,fourth,9,21,Male,R,Donders,2021-07-18_13h48.40.997,ImageRatingTask_S5,2021.1.4,Win32,59.24521595,,,,,,,,,,,,,,,,,
,,,,,,,,,,,,0,4,4,4,1,fifth,9,21,Male,R,Donders,2021-07-18_13h48.40.997,ImageRatingTask_S5,2021.1.4,Win32,59.24521595,,,,,,,,,,,,,,,,,
,,,,,,,,,,,,0,5,5,5,1,sixth,9,21,Male,R,Donders,2021-07-18_13h48.40.997,ImageRatingTask_S5,2021.1.4,Win32,59.24521595,,,,,,,,,,,,,,,,,
,,,,,,,,,,,,0,6,6,6,1,seventh,9,21,Male,R,Donders,2021-07-18_13h48.40.997,ImageRatingTask_S5,2021.1.4,Win32,59.24521595,,,,,,,,,,,,,,,,,
,,,,,,,,,,,,0,7,7,7,1,last,9,21,Male,R,Donders,2021-07-18_13h48.40.997,ImageRatingTask_S5,2021.1.4,Win32,59.24521595,,,,,,,,,,,,,,,,,
,,,,,,,,,,,,,,,,,,9,21,Male,R,Donders,2021-07-18_13h48.40.997,ImageRatingTask_S5,2021.1.4,Win32,59.24521595,0,14,14,15,1,DreamStudyImages_rs1000x750g/Houses/IAPS5731_house2.jpg,,,,,,,,,,,
,,6,17.2058,1,0.683,4,1.6705,1,1.6182,3,0.1255,0,0,0,0,1,main,9,21,Male,R,Donders,2021-07-18_13h48.40.997,ImageRatingTask_S5,2021.1.4,Win32,59.24521595,,,,,,,,,,,,,,,,,
,,,,,,,,,,,,0,1,1,1,1,second,9,21,Male,R,Donders,2021-07-18_13h48.40.997,ImageRatingTask_S5,2021.1.4,Win32,59.24521595,,,,,,,,,,,,,,,,,
,,,,,,,,,,,,0,2,2,2,1,third,9,21,Male,R,Donders,2021-07-18_13h48.40.997,ImageRatingTask_S5,2021.1.4,Win32,59.24521595,,,,,,,,,,,,,,,,,
,,,,,,,,,,,,0,3,3,3,1,fourth,9,21,Male,R,Donders,2021-07-18_13h48.40.997,ImageRatingTask_S5,2021.1.4,Win32,59.24521595,,,,,,,,,,,,,,,,,
,,,,,,,,,,,,0,4,4,4,1,fifth,9,21,Male,R,Donders,2021-07-18_13h48.40.997,ImageRatingTask_S5,2021.1.4,Win32,59.24521595,,,,,,,,,,,,,,,,,
,,,,,,,,,,,,0,5,5,5,1,sixth,9,21,Male,R,Donders,2021-07-18_13h48.40.997,ImageRatingTask_S5,2021.1.4,Win32,59.24521595,,,,,,,,,,,,,,,,,
,,,,,,,,,,,,0,6,6,6,1,seventh,9,21,Male,R,Donders,2021-07-18_13h48.40.997,ImageRatingTask_S5,2021.1.4,Win32,59.24521595,,,,,,,,,,,,,,,,,
,,,,,,,,,,,,0,7,7,7,1,last,9,21,Male,R,Donders,2021-07-18_13h48.40.997,ImageRatingTask_S5,2021.1.4,Win32,59.24521595,,,,,,,,,,,,,,,,,
,,,,,,,,,,,,,,,,,,9,21,Male,R,Donders,2021-07-18_13h48.40.997,ImageRatingTask_S5,2021.1.4,Win32,59.24521595,0,15,15,36,1,DreamStudyImages_rs1000x750g/Mammals/Animals_009_v.jpg,,,,,,,,,,,
,,7,3.0303,1,0.0022,5,3.9277,1,0.8438,5,0.115,0,0,0,0,1,main,9,21,Male,R,Donders,2021-07-18_13h48.40.997,ImageRatingTask_S5,2021.1.4,Win32,59.24521595,,,,,,,,,,,,,,,,,
,,,,,,,,,,,,0,1,1,1,1,second,9,21,Male,R,Donders,2021-07-18_13h48.40.997,ImageRatingTask_S5,2021.1.4,Win32,59.24521595,,,,,,,,,,,,,,,,,
,,,,,,,,,,,,0,2,2,2,1,third,9,21,Male,R,Donders,2021-07-18_13h48.40.997,ImageRatingTask_S5,2021.1.4,Win32,59.24521595,,,,,,,,,,,,,,,,,
,,,,,,,,,,,,0,3,3,3,1,fourth,9,21,Male,R,Donders,2021-07-18_13h48.40.997,ImageRatingTask_S5,2021.1.4,Win32,59.24521595,,,,,,,,,,,,,,,,,
,,,,,,,,,,,,0,4,4,4,1,fifth,9,21,Male,R,Donders,2021-07-18_13h48.40.997,ImageRatingTask_S5,2021.1.4,Win32,59.24521595,,,,,,,,,,,,,,,,,
,,,,,,,,,,,,0,5,5,5,1,sixth,9,21,Male,R,Donders,2021-07-18_13h48.40.997,ImageRatingTask_S5,2021.1.4,Win32,59.24521595,,,,,,,,,,,,,,,,,
,,,,,,,,,,,,0,6,6,6,1,seventh,9,21,Male,R,Donders,2021-07-18_13h48.40.997,ImageRatingTask_S5,2021.1.4,Win32,59.24521595,,,,,,,,,,,,,,,,,
,,,,,,,,,,,,0,7,7,7,1,last,9,21,Male,R,Donders,2021-07-18_13h48.40.997,ImageRatingTask_S5,2021.1.4,Win32,59.24521595,,,,,,,,,,,,,,,,,
,,,,,,,,,,,,,,,,,,9,21,Male,R,Donders,2021-07-18_13h48.40.997,ImageRatingTask_S5,2021.1.4,Win32,59.24521595,0,16,16,129,1,DreamStudyImages_rs1000x750g/Food/IAPS7352_pizza2.jpg,,,,,,,,,,,
,,7,3.5589,1,0.2098,8,1.5315,1,0.8227,5,0.2106,0,0,0,0,1,main,9,21,Male,R,Donders,2021-07-18_13h48.40.997,ImageRatingTask_S5,2021.1.4,Win32,59.24521595,,,,,,,,,,,,,,,,,
,,,,,,,,,,,,0,1,1,1,1,second,9,21,Male,R,Donders,2021-07-18_13h48.40.997,ImageRatingTask_S5,2021.1.4,Win32,59.24521595,,,,,,,,,,,,,,,,,
,,,,,,,,,,,,0,2,2,2,1,third,9,21,Male,R,Donders,2021-07-18_13h48.40.997,ImageRatingTask_S5,2021.1.4,Win32,59.24521595,,,,,,,,,,,,,,,,,
,,,,,,,,,,,,0,3,3,3,1,fourth,9,21,Male,R,Donders,2021-07-18_13h48.40.997,ImageRatingTask_S5,2021.1.4,Win32,59.24521595,,,,,,,,,,,,,,,,,
,,,,,,,,,,,,0,4,4,4,1,fifth,9,21,Male,R,Donders,2021-07-18_13h48.40.997,ImageRatingTask_S5,2021.1.4,Win32,59.24521595,,,,,,,,,,,,,,,,,
,,,,,,,,,,,,0,5,5,5,1,sixth,9,21,Male,R,Donders,2021-07-18_13h48.40.997,ImageRatingTask_S5,2021.1.4,Win32,59.24521595,,,,,,,,,,,,,,,,,
,,,,,,,,,,,,0,6,6,6,1,seventh,9,21,Male,R,Donders,2021-07-18_13h48.40.997,ImageRatingTask_S5,2021.1.4,Win32,59.24521595,,,,,,,,,,,,,,,,,
,,,,,,,,,,,,0,7,7,7,1,last,9,21,Male,R,Donders,2021-07-18_13h48.40.997,ImageRatingTask_S5,2021.1.4,Win32,59.24521595,,,,,,,,,,,,,,,,,
,,,,,,,,,,,,,,,,,,9,21,Male,R,Donders,2021-07-18_13h48.40.997,ImageRatingTask_S5,2021.1.4,Win32,59.24521595,0,17,17,97,1,DreamStudyImages_rs1000x750g/Food/Dessert 7.jpg,,,,,,,,,,,
,,6,2.6323,1,2.0519,6,8.3584,1,1.9761,6,0.1559,0,0,0,0,1,main,9,21,Male,R,Donders,2021-07-18_13h48.40.997,ImageRatingTask_S5,2021.1.4,Win32,59.24521595,,,,,,,,,,,,,,,,,
,,,,,,,,,,,,0,1,1,1,1,second,9,21,Male,R,Donders,2021-07-18_13h48.40.997,ImageRatingTask_S5,2021.1.4,Win32,59.24521595,,,,,,,,,,,,,,,,,
,,,,,,,,,,,,0,2,2,2,1,third,9,21,Male,R,Donders,2021-07-18_13h48.40.997,ImageRatingTask_S5,2021.1.4,Win32,59.24521595,,,,,,,,,,,,,,,,,
,,,,,,,,,,,,0,3,3,3,1,fourth,9,21,Male,R,Donders,2021-07-18_13h48.40.997,ImageRatingTask_S5,2021.1.4,Win32,59.24521595,,,,,,,,,,,,,,,,,
,,,,,,,,,,,,0,4,4,4,1,fifth,9,21,Male,R,Donders,2021-07-18_13h48.40.997,ImageRatingTask_S5,2021.1.4,Win32,59.24521595,,,,,,,,,,,,,,,,,
,,,,,,,,,,,,0,5,5,5,1,sixth,9,21,Male,R,Donders,2021-07-18_13h48.40.997,ImageRatingTask_S5,2021.1.4,Win32,59.24521595,,,,,,,,,,,,,,,,,
,,,,,,,,,,,,0,6,6,6,1,seventh,9,21,Male,R,Donders,2021-07-18_13h48.40.997,ImageRatingTask_S5,2021.1.4,Win32,59.24521595,,,,,,,,,,,,,,,,,
,,,,,,,,,,,,0,7,7,7,1,last,9,21,Male,R,Donders,2021-07-18_13h48.40.997,ImageRatingTask_S5,2021.1.4,Win32,59.24521595,,,,,,,,,,,,,,,,,
,,,,,,,,,,,,,,,,,,9,21,Male,R,Donders,2021-07-18_13h48.40.997,ImageRatingTask_S5,2021.1.4,Win32,59.24521595,0,18,18,52,1,DreamStudyImages_rs1000x750g/Houses/Landscapes_045_h.jpg,,,,,,,,,,,
,,6,9.164,1,0.2357,2,1.7903,1,1.1368,5,0.3936,0,0,0,0,1,main,9,21,Male,R,Donders,2021-07-18_13h48.40.997,ImageRatingTask_S5,2021.1.4,Win32,59.24521595,,,,,,,,,,,,,,,,,
,,,,,,,,,,,,0,1,1,1,1,second,9,21,Male,R,Donders,2021-07-18_13h48.40.997,ImageRatingTask_S5,2021.1.4,Win32,59.24521595,,,,,,,,,,,,,,,,,
,,,,,,,,,,,,0,2,2,2,1,third,9,21,Male,R,Donders,2021-07-18_13h48.40.997,ImageRatingTask_S5,2021.1.4,Win32,59.24521595,,,,,,,,,,,,,,,,,
,,,,,,,,,,,,0,3,3,3,1,fourth,9,21,Male,R,Donders,2021-07-18_13h48.40.997,ImageRatingTask_S5,2021.1.4,Win32,59.24521595,,,,,,,,,,,,,,,,,
,,,,,,,,,,,,0,4,4,4,1,fifth,9,21,Male,R,Donders,2021-07-18_13h48.40.997,ImageRatingTask_S5,2021.1.4,Win32,59.24521595,,,,,,,,,,,,,,,,,
,,,,,,,,,,,,0,5,5,5,1,sixth,9,21,Male,R,Donders,2021-07-18_13h48.40.997,ImageRatingTask_S5,2021.1.4,Win32,59.24521595,,,,,,,,,,,,,,,,,
,,,,,,,,,,,,0,6,6,6,1,seventh,9,21,Male,R,Donders,2021-07-18_13h48.40.997,ImageRatingTask_S5,2021.1.4,Win32,59.24521595,,,,,,,,,,,,,,,,,
,,,,,,,,,,,,0,7,7,7,1,last,9,21,Male,R,Donders,2021-07-18_13h48.40.997,ImageRatingTask_S5,2021.1.4,Win32,59.24521595,,,,,,,,,,,,,,,,,
,,,,,,,,,,,,,,,,,,9,21,Male,R,Donders,2021-07-18_13h48.40.997,ImageRatingTask_S5,2021.1.4,Win32,59.24521595,0,19,19,133,1,DreamStudyImages_rs1000x750g/Food/IAPS7282_pudding.jpg,,,,,,,,,,,
,,4,4.6688,1,0.4678,7,2.5613,1,3.099,2,0.139,0,0,0,0,1,main,9,21,Male,R,Donders,2021-07-18_13h48.40.997,ImageRatingTask_S5,2021.1.4,Win32,59.24521595,,,,,,,,,,,,,,,,,
,,,,,,,,,,,,0,1,1,1,1,second,9,21,Male,R,Donders,2021-07-18_13h48.40.997,ImageRatingTask_S5,2021.1.4,Win32,59.24521595,,,,,,,,,,,,,,,,,
,,,,,,,,,,,,0,2,2,2,1,third,9,21,Male,R,Donders,2021-07-18_13h48.40.997,ImageRatingTask_S5,2021.1.4,Win32,59.24521595,,,,,,,,,,,,,,,,,
,,,,,,,,,,,,0,3,3,3,1,fourth,9,21,Male,R,Donders,2021-07-18_13h48.40.997,ImageRatingTask_S5,2021.1.4,Win32,59.24521595,,,,,,,,,,,,,,,,,
,,,,,,,,,,,,0,4,4,4,1,fifth,9,21,Male,R,Donders,2021-07-18_13h48.40.997,ImageRatingTask_S5,2021.1.4,Win32,59.24521595,,,,,,,,,,,,,,,,,
,,,,,,,,,,,,0,5,5,5,1,sixth,9,21,Male,R,Donders,2021-07-18_13h48.40.997,ImageRatingTask_S5,2021.1.4,Win32,59.24521595,,,,,,,,,,,,,,,,,
,,,,,,,,,,,,0,6,6,6,1,seventh,9,21,Male,R,Donders,2021-07-18_13h48.40.997,ImageRatingTask_S5,2021.1.4,Win32,59.24521595,,,,,,,,,,,,,,,,,
,,,,,,,,,,,,0,7,7,7,1,last,9,21,Male,R,Donders,2021-07-18_13h48.40.997,ImageRatingTask_S5,2021.1.4,Win32,59.24521595,,,,,,,,,,,,,,,,,
,,,,,,,,,,,,,,,,,,9,21,Male,R,Donders,2021-07-18_13h48.40.997,ImageRatingTask_S5,2021.1.4,Win32,59.24521595,0,20,20,152,1,DreamStudyImages_rs1000x750g/Children/Faces_062_v.jpg,,,,,,,,,,,
,,1,8.1063,9,0.3561,3,2.9731,1,7.6583,6,0.6793,0,0,0,0,1,main,9,21,Male,R,Donders,2021-07-18_13h48.40.997,ImageRatingTask_S5,2021.1.4,Win32,59.24521595,,,,,,,,,,,,,,,,,
,,,,,,,,,,,,0,1,1,1,1,second,9,21,Male,R,Donders,2021-07-18_13h48.40.997,ImageRatingTask_S5,2021.1.4,Win32,59.24521595,,,,,,,,,,,,,,,,,
,,,,,,,,,,,,0,2,2,2,1,third,9,21,Male,R,Donders,2021-07-18_13h48.40.997,ImageRatingTask_S5,2021.1.4,Win32,59.24521595,,,,,,,,,,,,,,,,,
,,,,,,,,,,,,0,3,3,3,1,fourth,9,21,Male,R,Donders,2021-07-18_13h48.40.997,ImageRatingTask_S5,2021.1.4,Win32,59.24521595,,,,,,,,,,,,,,,,,
,,,,,,,,,,,,0,4,4,4,1,fifth,9,21,Male,R,Donders,2021-07-18_13h48.40.997,ImageRatingTask_S5,2021.1.4,Win32,59.24521595,,,,,,,,,,,,,,,,,
,,,,,,,,,,,,0,5,5,5,1,sixth,9,21,Male,R,Donders,2021-07-18_13h48.40.997,ImageRatingTask_S5,2021.1.4,Win32,59.24521595,,,,,,,,,,,,,,,,,
,,,,,,,,,,,,0,6,6,6,1,seventh,9,21,Male,R,Donders,2021-07-18_13h48.40.997,ImageRatingTask_S5,2021.1.4,Win32,59.24521595,,,,,,,,,,,,,,,,,
,,,,,,,,,,,,0,7,7,7,1,last,9,21,Male,R,Donders,2021-07-18_13h48.40.997,ImageRatingTask_S5,2021.1.4,Win32,59.24521595,,,,,,,,,,,,,,,,,
,,,,,,,,,,,,,,,,,,9,21,Male,R,Donders,2021-07-18_13h48.40.997,ImageRatingTask_S5,2021.1.4,Win32,59.24521595,0,21,21,146,1,DreamStudyImages_rs1000x750g/Houses/IAPS9940_twintowers.jpg,,,,,,,,,,,
,,7,6.7492,1,0.7944,7,1.6192,1,2.3835,3,0.154,0,0,0,0,1,main,9,21,Male,R,Donders,2021-07-18_13h48.40.997,ImageRatingTask_S5,2021.1.4,Win32,59.24521595,,,,,,,,,,,,,,,,,
,,,,,,,,,,,,0,1,1,1,1,second,9,21,Male,R,Donders,2021-07-18_13h48.40.997,ImageRatingTask_S5,2021.1.4,Win32,59.24521595,,,,,,,,,,,,,,,,,
,,,,,,,,,,,,0,2,2,2,1,third,9,21,Male,R,Donders,2021-07-18_13h48.40.997,ImageRatingTask_S5,2021.1.4,Win32,59.24521595,,,,,,,,,,,,,,,,,
,,,,,,,,,,,,0,3,3,3,1,fourth,9,21,Male,R,Donders,2021-07-18_13h48.40.997,ImageRatingTask_S5,2021.1.4,Win32,59.24521595,,,,,,,,,,,,,,,,,
,,,,,,,,,,,,0,4,4,4,1,fifth,9,21,Male,R,Donders,2021-07-18_13h48.40.997,ImageRatingTask_S5,2021.1.4,Win32,59.24521595,,,,,,,,,,,,,,,,,
,,,,,,,,,,,,0,5,5,5,1,sixth,9,21,Male,R,Donders,2021-07-18_13h48.40.997,ImageRatingTask_S5,2021.1.4,Win32,59.24521595,,,,,,,,,,,,,,,,,
,,,,,,,,,,,,0,6,6,6,1,seventh,9,21,Male,R,Donders,2021-07-18_13h48.40.997,ImageRatingTask_S5,2021.1.4,Win32,59.24521595,,,,,,,,,,,,,,,,,
,,,,,,,,,,,,0,7,7,7,1,last,9,21,Male,R,Donders,2021-07-18_13h48.40.997,ImageRatingTask_S5,2021.1.4,Win32,59.24521595,,,,,,,,,,,,,,,,,
,,,,,,,,,,,,,,,,,,9,21,Male,R,Donders,2021-07-18_13h48.40.997,ImageRatingTask_S5,2021.1.4,Win32,59.24521595,0,22,22,23,1,DreamStudyImages_rs1000x750g/Mammals/Animals_146_h.jpg,,,,,,,,,,,
,,7,4.1181,1,1.1198,6,2.4982,1,1.2483,7,0.0656,0,0,0,0,1,main,9,21,Male,R,Donders,2021-07-18_13h48.40.997,ImageRatingTask_S5,2021.1.4,Win32,59.24521595,,,,,,,,,,,,,,,,,
,,,,,,,,,,,,0,1,1,1,1,second,9,21,Male,R,Donders,2021-07-18_13h48.40.997,ImageRatingTask_S5,2021.1.4,Win32,59.24521595,,,,,,,,,,,,,,,,,
,,,,,,,,,,,,0,2,2,2,1,third,9,21,Male,R,Donders,2021-07-18_13h48.40.997,ImageRatingTask_S5,2021.1.4,Win32,59.24521595,,,,,,,,,,,,,,,,,
,,,,,,,,,,,,0,3,3,3,1,fourth,9,21,Male,R,Donders,2021-07-18_13h48.40.997,ImageRatingTask_S5,2021.1.4,Win32,59.24521595,,,,,,,,,,,,,,,,,
,,,,,,,,,,,,0,4,4,4,1,fifth,9,21,Male,R,Donders,2021-07-18_13h48.40.997,ImageRatingTask_S5,2021.1.4,Win32,59.24521595,,,,,,,,,,,,,,,,,
,,,,,,,,,,,,0,5,5,5,1,sixth,9,21,Male,R,Donders,2021-07-18_13h48.40.997,ImageRatingTask_S5,2021.1.4,Win32,59.24521595,,,,,,,,,,,,,,,,,
,,,,,,,,,,,,0,6,6,6,1,seventh,9,21,Male,R,Donders,2021-07-18_13h48.40.997,ImageRatingTask_S5,2021.1.4,Win32,59.24521595,,,,,,,,,,,,,,,,,
,,,,,,,,,,,,0,7,7,7,1,last,9,21,Male,R,Donders,2021-07-18_13h48.40.997,ImageRatingTask_S5,2021.1.4,Win32,59.24521595,,,,,,,,,,,,,,,,,
,,,,,,,,,,,,,,,,,,9,21,Male,R,Donders,2021-07-18_13h48.40.997,ImageRatingTask_S5,2021.1.4,Win32,59.24521595,0,23,23,99,1,DreamStudyImages_rs1000x750g/Vehicles/Explosion 1.jpg,,,,,,,,,,,
,,7,1.9145,1,0.3516,8,1.3998,1,1.0762,2,0.3034,0,0,0,0,1,main,9,21,Male,R,Donders,2021-07-18_13h48.40.997,ImageRatingTask_S5,2021.1.4,Win32,59.24521595,,,,,,,,,,,,,,,,,
,,,,,,,,,,,,0,1,1,1,1,second,9,21,Male,R,Donders,2021-07-18_13h48.40.997,ImageRatingTask_S5,2021.1.4,Win32,59.24521595,,,,,,,,,,,,,,,,,
,,,,,,,,,,,,0,2,2,2,1,third,9,21,Male,R,Donders,2021-07-18_13h48.40.997,ImageRatingTask_S5,2021.1.4,Win32,59.24521595,,,,,,,,,,,,,,,,,
,,,,,,,,,,,,0,3,3,3,1,fourth,9,21,Male,R,Donders,2021-07-18_13h48.40.997,ImageRatingTask_S5,2021.1.4,Win32,59.24521595,,,,,,,,,,,,,,,,,
,,,,,,,,,,,,0,4,4,4,1,fifth,9,21,Male,R,Donders,2021-07-18_13h48.40.997,ImageRatingTask_S5,2021.1.4,Win32,59.24521595,,,,,,,,,,,,,,,,,
,,,,,,,,,,,,0,5,5,5,1,sixth,9,21,Male,R,Donders,2021-07-18_13h48.40.997,ImageRatingTask_S5,2021.1.4,Win32,59.24521595,,,,,,,,,,,,,,,,,
,,,,,,,,,,,,0,6,6,6,1,seventh,9,21,Male,R,Donders,2021-07-18_13h48.40.997,ImageRatingTask_S5,2021.1.4,Win32,59.24521595,,,,,,,,,,,,,,,,,
,,,,,,,,,,,,0,7,7,7,1,last,9,21,Male,R,Donders,2021-07-18_13h48.40.997,ImageRatingTask_S5,2021.1.4,Win32,59.24521595,,,,,,,,,,,,,,,,,
,,,,,,,,,,,,,,,,,,9,21,Male,R,Donders,2021-07-18_13h48.40.997,ImageRatingTask_S5,2021.1.4,Win32,59.24521595,0,24,24,37,1,DreamStudyImages_rs1000x750g/Children/Faces_075_v.jpg,,,,,,,,,,,
,,6,2.3902,1,0.7214,7,2.0532,1,1.5361,7,0.1634,0,0,0,0,1,main,9,21,Male,R,Donders,2021-07-18_13h48.40.997,ImageRatingTask_S5,2021.1.4,Win32,59.24521595,,,,,,,,,,,,,,,,,
,,,,,,,,,,,,0,1,1,1,1,second,9,21,Male,R,Donders,2021-07-18_13h48.40.997,ImageRatingTask_S5,2021.1.4,Win32,59.24521595,,,,,,,,,,,,,,,,,
,,,,,,,,,,,,0,2,2,2,1,third,9,21,Male,R,Donders,2021-07-18_13h48.40.997,ImageRatingTask_S5,2021.1.4,Win32,59.24521595,,,,,,,,,,,,,,,,,
,,,,,,,,,,,,0,3,3,3,1,fourth,9,21,Male,R,Donders,2021-07-18_13h48.40.997,ImageRatingTask_S5,2021.1.4,Win32,59.24521595,,,,,,,,,,,,,,,,,
,,,,,,,,,,,,0,4,4,4,1,fifth,9,21,Male,R,Donders,2021-07-18_13h48.40.997,ImageRatingTask_S5,2021.1.4,Win32,59.24521595,,,,,,,,,,,,,,,,,
,,,,,,,,,,,,0,5,5,5,1,sixth,9,21,Male,R,Donders,2021-07-18_13h48.40.997,ImageRatingTask_S5,2021.1.4,Win32,59.24521595,,,,,,,,,,,,,,,,,
,,,,,,,,,,,,0,6,6,6,1,seventh,9,21,Male,R,Donders,2021-07-18_13h48.40.997,ImageRatingTask_S5,2021.1.4,Win32,59.24521595,,,,,,,,,,,,,,,,,
,,,,,,,,,,,,0,7,7,7,1,last,9,21,Male,R,Donders,2021-07-18_13h48.40.997,ImageRatingTask_S5,2021.1.4,Win32,59.24521595,,,,,,,,,,,,,,,,,
,,,,,,,,,,,,,,,,,,9,21,Male,R,Donders,2021-07-18_13h48.40.997,ImageRatingTask_S5,2021.1.4,Win32,59.24521595,0,25,25,77,1,DreamStudyImages_rs1000x750g/Vehicles/Objects_302_h.jpg,,,,,,,,,,,
,,6,28.9503,1,1.1954,7,13.1022,1,1.1515,3,0.2574,0,0,0,0,1,main,9,21,Male,R,Donders,2021-07-18_13h48.40.997,ImageRatingTask_S5,2021.1.4,Win32,59.24521595,,,,,,,,,,,,,,,,,
,,,,,,,,,,,,0,1,1,1,1,second,9,21,Male,R,Donders,2021-07-18_13h48.40.997,ImageRatingTask_S5,2021.1.4,Win32,59.24521595,,,,,,,,,,,,,,,,,
,,,,,,,,,,,,0,2,2,2,1,third,9,21,Male,R,Donders,2021-07-18_13h48.40.997,ImageRatingTask_S5,2021.1.4,Win32,59.24521595,,,,,,,,,,,,,,,,,
,,,,,,,,,,,,0,3,3,3,1,fourth,9,21,Male,R,Donders,2021-07-18_13h48.40.997,ImageRatingTask_S5,2021.1.4,Win32,59.24521595,,,,,,,,,,,,,,,,,
,,,,,,,,,,,,0,4,4,4,1,fifth,9,21,Male,R,Donders,2021-07-18_13h48.40.997,ImageRatingTask_S5,2021.1.4,Win32,59.24521595,,,,,,,,,,,,,,,,,
,,,,,,,,,,,,0,5,5,5,1,sixth,9,21,Male,R,Donders,2021-07-18_13h48.40.997,ImageRatingTask_S5,2021.1.4,Win32,59.24521595,,,,,,,,,,,,,,,,,
,,,,,,,,,,,,0,6,6,6,1,seventh,9,21,Male,R,Donders,2021-07-18_13h48.40.997,ImageRatingTask_S5,2021.1.4,Win32,59.24521595,,,,,,,,,,,,,,,,,
,,,,,,,,,,,,0,7,7,7,1,last,9,21,Male,R,Donders,2021-07-18_13h48.40.997,ImageRatingTask_S5,2021.1.4,Win32,59.24521595,,,,,,,,,,,,,,,,,
,,,,,,,,,,,,,,,,,,9,21,Male,R,Donders,2021-07-18_13h48.40.997,ImageRatingTask_S5,2021.1.4,Win32,59.24521595,0,26,26,102,1,DreamStudyImages_rs1000x750g/Mammals/Animals_178_v.jpg,,,,,,,,,,,
,,4,13.8967,1,0.083,6,1.3455,1,1.754,7,0.5562,0,0,0,0,1,main,9,21,Male,R,Donders,2021-07-18_13h48.40.997,ImageRatingTask_S5,2021.1.4,Win32,59.24521595,,,,,,,,,,,,,,,,,
,,,,,,,,,,,,0,1,1,1,1,second,9,21,Male,R,Donders,2021-07-18_13h48.40.997,ImageRatingTask_S5,2021.1.4,Win32,59.24521595,,,,,,,,,,,,,,,,,
,,,,,,,,,,,,0,2,2,2,1,third,9,21,Male,R,Donders,2021-07-18_13h48.40.997,ImageRatingTask_S5,2021.1.4,Win32,59.24521595,,,,,,,,,,,,,,,,,
,,,,,,,,,,,,0,3,3,3,1,fourth,9,21,Male,R,Donders,2021-07-18_13h48.40.997,ImageRatingTask_S5,2021.1.4,Win32,59.24521595,,,,,,,,,,,,,,,,,
,,,,,,,,,,,,0,4,4,4,1,fifth,9,21,Male,R,Donders,2021-07-18_13h48.40.997,ImageRatingTask_S5,2021.1.4,Win32,59.24521595,,,,,,,,,,,,,,,,,
,,,,,,,,,,,,0,5,5,5,1,sixth,9,21,Male,R,Donders,2021-07-18_13h48.40.997,ImageRatingTask_S5,2021.1.4,Win32,59.24521595,,,,,,,,,,,,,,,,,
,,,,,,,,,,,,0,6,6,6,1,seventh,9,21,Male,R,Donders,2021-07-18_13h48.40.997,ImageRatingTask_S5,2021.1.4,Win32,59.24521595,,,,,,,,,,,,,,,,,
,,,,,,,,,,,,0,7,7,7,1,last,9,21,Male,R,Donders,2021-07-18_13h48.40.997,ImageRatingTask_S5,2021.1.4,Win32,59.24521595,,,,,,,,,,,,,,,,,
,,,,,,,,,,,,,,,,,,9,21,Male,R,Donders,2021-07-18_13h48.40.997,ImageRatingTask_S5,2021.1.4,Win32,59.24521595,0,27,27,95,1,DreamStudyImages_rs1000x750g/Vehicles/rheingoldtrain_CROPPED.jpg,,,,,,,,,,,
,,6,4.4431,1,0.8807,6,1.1288,1,1.7533,5,0.3123,0,0,0,0,1,main,9,21,Male,R,Donders,2021-07-18_13h48.40.997,ImageRatingTask_S5,2021.1.4,Win32,59.24521595,,,,,,,,,,,,,,,,,
,,,,,,,,,,,,0,1,1,1,1,second,9,21,Male,R,Donders,2021-07-18_13h48.40.997,ImageRatingTask_S5,2021.1.4,Win32,59.24521595,,,,,,,,,,,,,,,,,
,,,,,,,,,,,,0,2,2,2,1,third,9,21,Male,R,Donders,2021-07-18_13h48.40.997,ImageRatingTask_S5,2021.1.4,Win32,59.24521595,,,,,,,,,,,,,,,,,
,,,,,,,,,,,,0,3,3,3,1,fourth,9,21,Male,R,Donders,2021-07-18_13h48.40.997,ImageRatingTask_S5,2021.1.4,Win32,59.24521595,,,,,,,,,,,,,,,,,
,,,,,,,,,,,,0,4,4,4,1,fifth,9,21,Male,R,Donders,2021-07-18_13h48.40.997,ImageRatingTask_S5,2021.1.4,Win32,59.24521595,,,,,,,,,,,,,,,,,
,,,,,,,,,,,,0,5,5,5,1,sixth,9,21,Male,R,Donders,2021-07-18_13h48.40.997,ImageRatingTask_S5,2021.1.4,Win32,59.24521595,,,,,,,,,,,,,,,,,
,,,,,,,,,,,,0,6,6,6,1,seventh,9,21,Male,R,Donders,2021-07-18_13h48.40.997,ImageRatingTask_S5,2021.1.4,Win32,59.24521595,,,,,,,,,,,,,,,,,
,,,,,,,,,,,,0,7,7,7,1,last,9,21,Male,R,Donders,2021-07-18_13h48.40.997,ImageRatingTask_S5,2021.1.4,Win32,59.24521595,,,,,,,,,,,,,,,,,
,,,,,,,,,,,,,,,,,,9,21,Male,R,Donders,2021-07-18_13h48.40.997,ImageRatingTask_S5,2021.1.4,Win32,59.24521595,0,28,28,5,1,DreamStudyImages_rs1000x750g/Food/Objects_009_h.jpg,,,,,,,,,,,
,,6,9.9406,1,1.2006,8,1.1371,1,0.8657,7,1.1439,0,0,0,0,1,main,9,21,Male,R,Donders,2021-07-18_13h48.40.997,ImageRatingTask_S5,2021.1.4,Win32,59.24521595,,,,,,,,,,,,,,,,,
,,,,,,,,,,,,0,1,1,1,1,second,9,21,Male,R,Donders,2021-07-18_13h48.40.997,ImageRatingTask_S5,2021.1.4,Win32,59.24521595,,,,,,,,,,,,,,,,,
,,,,,,,,,,,,0,2,2,2,1,third,9,21,Male,R,Donders,2021-07-18_13h48.40.997,ImageRatingTask_S5,2021.1.4,Win32,59.24521595,,,,,,,,,,,,,,,,,
,,,,,,,,,,,,0,3,3,3,1,fourth,9,21,Male,R,Donders,2021-07-18_13h48.40.997,ImageRatingTask_S5,2021.1.4,Win32,59.24521595,,,,,,,,,,,,,,,,,
,,,,,,,,,,,,0,4,4,4,1,fifth,9,21,Male,R,Donders,2021-07-18_13h48.40.997,ImageRatingTask_S5,2021.1.4,Win32,59.24521595,,,,,,,,,,,,,,,,,
,,,,,,,,,,,,0,5,5,5,1,sixth,9,21,Male,R,Donders,2021-07-18_13h48.40.997,ImageRatingTask_S5,2021.1.4,Win32,59.24521595,,,,,,,,,,,,,,,,,
,,,,,,,,,,,,0,6,6,6,1,seventh,9,21,Male,R,Donders,2021-07-18_13h48.40.997,ImageRatingTask_S5,2021.1.4,Win32,59.24521595,,,,,,,,,,,,,,,,,
,,,,,,,,,,,,0,7,7,7,1,last,9,21,Male,R,Donders,2021-07-18_13h48.40.997,ImageRatingTask_S5,2021.1.4,Win32,59.24521595,,,,,,,,,,,,,,,,,
,,,,,,,,,,,,,,,,,,9,21,Male,R,Donders,2021-07-18_13h48.40.997,ImageRatingTask_S5,2021.1.4,Win32,59.24521595,0,29,29,69,1,DreamStudyImages_rs1000x750g/Vehicles/Objects_322_h.jpg,,,,,,,,,,,
,,3,7.4445,1,0.5814,4,3.2517,1,1.679,6,0.6546,0,0,0,0,1,main,9,21,Male,R,Donders,2021-07-18_13h48.40.997,ImageRatingTask_S5,2021.1.4,Win32,59.24521595,,,,,,,,,,,,,,,,,
,,,,,,,,,,,,0,1,1,1,1,second,9,21,Male,R,Donders,2021-07-18_13h48.40.997,ImageRatingTask_S5,2021.1.4,Win32,59.24521595,,,,,,,,,,,,,,,,,
,,,,,,,,,,,,0,2,2,2,1,third,9,21,Male,R,Donders,2021-07-18_13h48.40.997,ImageRatingTask_S5,2021.1.4,Win32,59.24521595,,,,,,,,,,,,,,,,,
,,,,,,,,,,,,0,3,3,3,1,fourth,9,21,Male,R,Donders,2021-07-18_13h48.40.997,ImageRatingTask_S5,2021.1.4,Win32,59.24521595,,,,,,,,,,,,,,,,,
,,,,,,,,,,,,0,4,4,4,1,fifth,9,21,Male,R,Donders,2021-07-18_13h48.40.997,ImageRatingTask_S5,2021.1.4,Win32,59.24521595,,,,,,,,,,,,,,,,,
,,,,,,,,,,,,0,5,5,5,1,sixth,9,21,Male,R,Donders,2021-07-18_13h48.40.997,ImageRatingTask_S5,2021.1.4,Win32,59.24521595,,,,,,,,,,,,,,,,,
,,,,,,,,,,,,0,6,6,6,1,seventh,9,21,Male,R,Donders,2021-07-18_13h48.40.997,ImageRatingTask_S5,2021.1.4,Win32,59.24521595,,,,,,,,,,,,,,,,,
,,,,,,,,,,,,0,7,7,7,1,last,9,21,Male,R,Donders,2021-07-18_13h48.40.997,ImageRatingTask_S5,2021.1.4,Win32,59.24521595,,,,,,,,,,,,,,,,,
,,,,,,,,,,,,,,,,,,9,21,Male,R,Donders,2021-07-18_13h48.40.997,ImageRatingTask_S5,2021.1.4,Win32,59.24521595,0,30,30,30,1,DreamStudyImages_rs1000x750g/Houses/NDPS29_buildings7.jpg,,,,,,,,,,,
,,6,4.5558,1,0.7021,7,1.682,1,1.75,8,0.0539,0,0,0,0,1,main,9,21,Male,R,Donders,2021-07-18_13h48.40.997,ImageRatingTask_S5,2021.1.4,Win32,59.24521595,,,,,,,,,,,,,,,,,
,,,,,,,,,,,,0,1,1,1,1,second,9,21,Male,R,Donders,2021-07-18_13h48.40.997,ImageRatingTask_S5,2021.1.4,Win32,59.24521595,,,,,,,,,,,,,,,,,
,,,,,,,,,,,,0,2,2,2,1,third,9,21,Male,R,Donders,2021-07-18_13h48.40.997,ImageRatingTask_S5,2021.1.4,Win32,59.24521595,,,,,,,,,,,,,,,,,
,,,,,,,,,,,,0,3,3,3,1,fourth,9,21,Male,R,Donders,2021-07-18_13h48.40.997,ImageRatingTask_S5,2021.1.4,Win32,59.24521595,,,,,,,,,,,,,,,,,
,,,,,,,,,,,,0,4,4,4,1,fifth,9,21,Male,R,Donders,2021-07-18_13h48.40.997,ImageRatingTask_S5,2021.1.4,Win32,59.24521595,,,,,,,,,,,,,,,,,
,,,,,,,,,,,,0,5,5,5,1,sixth,9,21,Male,R,Donders,2021-07-18_13h48.40.997,ImageRatingTask_S5,2021.1.4,Win32,59.24521595,,,,,,,,,,,,,,,,,
,,,,,,,,,,,,0,6,6,6,1,seventh,9,21,Male,R,Donders,2021-07-18_13h48.40.997,ImageRatingTask_S5,2021.1.4,Win32,59.24521595,,,,,,,,,,,,,,,,,
,,,,,,,,,,,,0,7,7,7,1,last,9,21,Male,R,Donders,2021-07-18_13h48.40.997,ImageRatingTask_S5,2021.1.4,Win32,59.24521595,,,,,,,,,,,,,,,,,
,,,,,,,,,,,,,,,,,,9,21,Male,R,Donders,2021-07-18_13h48.40.997,ImageRatingTask_S5,2021.1.4,Win32,59.24521595,0,31,31,91,1,DreamStudyImages_rs1000x750g/Water/seacliff.jpg,,,,,,,,,,,
,,6,1.8244,1,0.4032,3,1.7628,2,2.3613,7,1.0779,0,0,0,0,1,main,9,21,Male,R,Donders,2021-07-18_13h48.40.997,ImageRatingTask_S5,2021.1.4,Win32,59.24521595,,,,,,,,,,,,,,,,,
,,,,,,,,,,6,0.1708,0,1,1,1,1,second,9,21,Male,R,Donders,2021-07-18_13h48.40.997,ImageRatingTask_S5,2021.1.4,Win32,59.24521595,,,,,,,,,,,,,,,,,
,,,,,,,,,,,,0,2,2,2,1,third,9,21,Male,R,Donders,2021-07-18_13h48.40.997,ImageRatingTask_S5,2021.1.4,Win32,59.24521595,,,,,,,,,,,,,,,,,
,,,,,,,,,,,,0,3,3,3,1,fourth,9,21,Male,R,Donders,2021-07-18_13h48.40.997,ImageRatingTask_S5,2021.1.4,Win32,59.24521595,,,,,,,,,,,,,,,,,
,,,,,,,,,,,,0,4,4,4,1,fifth,9,21,Male,R,Donders,2021-07-18_13h48.40.997,ImageRatingTask_S5,2021.1.4,Win32,59.24521595,,,,,,,,,,,,,,,,,
,,,,,,,,,,,,0,5,5,5,1,sixth,9,21,Male,R,Donders,2021-07-18_13h48.40.997,ImageRatingTask_S5,2021.1.4,Win32,59.24521595,,,,,,,,,,,,,,,,,
,,,,,,,,,,,,0,6,6,6,1,seventh,9,21,Male,R,Donders,2021-07-18_13h48.40.997,ImageRatingTask_S5,2021.1.4,Win32,59.24521595,,,,,,,,,,,,,,,,,
,,,,,,,,,,,,0,7,7,7,1,last,9,21,Male,R,Donders,2021-07-18_13h48.40.997,ImageRatingTask_S5,2021.1.4,Win32,59.24521595,,,,,,,,,,,,,,,,,
,,,,,,,,,,,,,,,,,,9,21,Male,R,Donders,2021-07-18_13h48.40.997,ImageRatingTask_S5,2021.1.4,Win32,59.24521595,0,32,32,98,1,DreamStudyImages_rs1000x750g/Vehicles/IAPS9909_carcrash6.jpg,,,,,,,,,,,
,,3,8.3324,1,0.623,7,1.9794,1,1.3799,3,1.0079,0,0,0,0,1,main,9,21,Male,R,Donders,2021-07-18_13h48.40.997,ImageRatingTask_S5,2021.1.4,Win32,59.24521595,,,,,,,,,,,,,,,,,
,,,,,,,,,,,,0,1,1,1,1,second,9,21,Male,R,Donders,2021-07-18_13h48.40.997,ImageRatingTask_S5,2021.1.4,Win32,59.24521595,,,,,,,,,,,,,,,,,
,,,,,,,,,,,,0,2,2,2,1,third,9,21,Male,R,Donders,2021-07-18_13h48.40.997,ImageRatingTask_S5,2021.1.4,Win32,59.24521595,,,,,,,,,,,,,,,,,
,,,,,,,,,,,,0,3,3,3,1,fourth,9,21,Male,R,Donders,2021-07-18_13h48.40.997,ImageRatingTask_S5,2021.1.4,Win32,59.24521595,,,,,,,,,,,,,,,,,
,,,,,,,,,,,,0,4,4,4,1,fifth,9,21,Male,R,Donders,2021-07-18_13h48.40.997,ImageRatingTask_S5,2021.1.4,Win32,59.24521595,,,,,,,,,,,,,,,,,
,,,,,,,,,,,,0,5,5,5,1,sixth,9,21,Male,R,Donders,2021-07-18_13h48.40.997,ImageRatingTask_S5,2021.1.4,Win32,59.24521595,,,,,,,,,,,,,,,,,
,,,,,,,,,,,,0,6,6,6,1,seventh,9,21,Male,R,Donders,2021-07-18_13h48.40.997,ImageRatingTask_S5,2021.1.4,Win32,59.24521595,,,,,,,,,,,,,,,,,
,,,,,,,,,,,,0,7,7,7,1,last,9,21,Male,R,Donders,2021-07-18_13h48.40.997,ImageRatingTask_S5,2021.1.4,Win32,59.24521595,,,,,,,,,,,,,,,,,
,,,,,,,,,,,,,,,,,,9,21,Male,R,Donders,2021-07-18_13h48.40.997,ImageRatingTask_S5,2021.1.4,Win32,59.24521595,0,33,33,28,1,DreamStudyImages_rs1000x750g/Mammals/Animals_038_h.jpg,,,,,,,,,,,
,,6,4.1357,1,0.2597,7,2.5556,1,2.7476,8,0.112,0,0,0,0,1,main,9,21,Male,R,Donders,2021-07-18_13h48.40.997,ImageRatingTask_S5,2021.1.4,Win32,59.24521595,,,,,,,,,,,,,,,,,
,,,,,,,,,,,,0,1,1,1,1,second,9,21,Male,R,Donders,2021-07-18_13h48.40.997,ImageRatingTask_S5,2021.1.4,Win32,59.24521595,,,,,,,,,,,,,,,,,
,,,,,,,,,,,,0,2,2,2,1,third,9,21,Male,R,Donders,2021-07-18_13h48.40.997,ImageRatingTask_S5,2021.1.4,Win32,59.24521595,,,,,,,,,,,,,,,,,
,,,,,,,,,,,,0,3,3,3,1,fourth,9,21,Male,R,Donders,2021-07-18_13h48.40.997,ImageRatingTask_S5,2021.1.4,Win32,59.24521595,,,,,,,,,,,,,,,,,
,,,,,,,,,,,,0,4,4,4,1,fifth,9,21,Male,R,Donders,2021-07-18_13h48.40.997,ImageRatingTask_S5,2021.1.4,Win32,59.24521595,,,,,,,,,,,,,,,,,
,,,,,,,,,,,,0,5,5,5,1,sixth,9,21,Male,R,Donders,2021-07-18_13h48.40.997,ImageRatingTask_S5,2021.1.4,Win32,59.24521595,,,,,,,,,,,,,,,,,
,,,,,,,,,,,,0,6,6,6,1,seventh,9,21,Male,R,Donders,2021-07-18_13h48.40.997,ImageRatingTask_S5,2021.1.4,Win32,59.24521595,,,,,,,,,,,,,,,,,
,,,,,,,,,,,,0,7,7,7,1,last,9,21,Male,R,Donders,2021-07-18_13h48.40.997,ImageRatingTask_S5,2021.1.4,Win32,59.24521595,,,,,,,,,,,,,,,,,
,,,,,,,,,,,,,,,,,,9,21,Male,R,Donders,2021-07-18_13h48.40.997,ImageRatingTask_S5,2021.1.4,Win32,59.24521595,0,34,34,48,1,DreamStudyImages_rs1000x750g/Water/Landscapes_115_v.jpg,,,,,,,,,,,
,,7,5.1503,1,0.5108,8,1.4607,1,1.1704,6,0.0715,0,0,0,0,1,main,9,21,Male,R,Donders,2021-07-18_13h48.40.997,ImageRatingTask_S5,2021.1.4,Win32,59.24521595,,,,,,,,,,,,,,,,,
,,,,,,,,,,,,0,1,1,1,1,second,9,21,Male,R,Donders,2021-07-18_13h48.40.997,ImageRatingTask_S5,2021.1.4,Win32,59.24521595,,,,,,,,,,,,,,,,,
,,,,,,,,,,,,0,2,2,2,1,third,9,21,Male,R,Donders,2021-07-18_13h48.40.997,ImageRatingTask_S5,2021.1.4,Win32,59.24521595,,,,,,,,,,,,,,,,,
,,,,,,,,,,,,0,3,3,3,1,fourth,9,21,Male,R,Donders,2021-07-18_13h48.40.997,ImageRatingTask_S5,2021.1.4,Win32,59.24521595,,,,,,,,,,,,,,,,,
,,,,,,,,,,,,0,4,4,4,1,fifth,9,21,Male,R,Donders,2021-07-18_13h48.40.997,ImageRatingTask_S5,2021.1.4,Win32,59.24521595,,,,,,,,,,,,,,,,,
,,,,,,,,,,,,0,5,5,5,1,sixth,9,21,Male,R,Donders,2021-07-18_13h48.40.997,ImageRatingTask_S5,2021.1.4,Win32,59.24521595,,,,,,,,,,,,,,,,,
,,,,,,,,,,,,0,6,6,6,1,seventh,9,21,Male,R,Donders,2021-07-18_13h48.40.997,ImageRatingTask_S5,2021.1.4,Win32,59.24521595,,,,,,,,,,,,,,,,,
,,,,,,,,,,,,0,7,7,7,1,last,9,21,Male,R,Donders,2021-07-18_13h48.40.997,ImageRatingTask_S5,2021.1.4,Win32,59.24521595,,,,,,,,,,,,,,,,,
,,,,,,,,,,,,,,,,,,9,21,Male,R,Donders,2021-07-18_13h48.40.997,ImageRatingTask_S5,2021.1.4,Win32,59.24521595,0,35,35,33,1,DreamStudyImages_rs1000x750g/Vehicles/Objects_323_h.jpg,,,,,,,,,,,
,,1,4.8737,6,1.9343,4,2.1658,1,3.1276,3,0.075,0,0,0,0,1,main,9,21,Male,R,Donders,2021-07-18_13h48.40.997,ImageRatingTask_S5,2021.1.4,Win32,59.24521595,,,,,,,,,,,,,,,,,
,,,,,,,,,,,,0,1,1,1,1,second,9,21,Male,R,Donders,2021-07-18_13h48.40.997,ImageRatingTask_S5,2021.1.4,Win32,59.24521595,,,,,,,,,,,,,,,,,
,,,,,,,,,,,,0,2,2,2,1,third,9,21,Male,R,Donders,2021-07-18_13h48.40.997,ImageRatingTask_S5,2021.1.4,Win32,59.24521595,,,,,,,,,,,,,,,,,
,,,,,,,,,,,,0,3,3,3,1,fourth,9,21,Male,R,Donders,2021-07-18_13h48.40.997,ImageRatingTask_S5,2021.1.4,Win32,59.24521595,,,,,,,,,,,,,,,,,
,,,,,,,,,,,,0,4,4,4,1,fifth,9,21,Male,R,Donders,2021-07-18_13h48.40.997,ImageRatingTask_S5,2021.1.4,Win32,59.24521595,,,,,,,,,,,,,,,,,
,,,,,,,,,,,,0,5,5,5,1,sixth,9,21,Male,R,Donders,2021-07-18_13h48.40.997,ImageRatingTask_S5,2021.1.4,Win32,59.24521595,,,,,,,,,,,,,,,,,
,,,,,,,,,,,,0,6,6,6,1,seventh,9,21,Male,R,Donders,2021-07-18_13h48.40.997,ImageRatingTask_S5,2021.1.4,Win32,59.24521595,,,,,,,,,,,,,,,,,
,,,,,,,,,,,,0,7,7,7,1,last,9,21,Male,R,Donders,2021-07-18_13h48.40.997,ImageRatingTask_S5,2021.1.4,Win32,59.24521595,,,,,,,,,,,,,,,,,
,,,,,,,,,,,,,,,,,,9,21,Male,R,Donders,2021-07-18_13h48.40.997,ImageRatingTask_S5,2021.1.4,Win32,59.24521595,0,36,36,154,1,DreamStudyImages_rs1000x750g/Mammals/Dog 25.jpg,,,,,,,,,,,
,,6,2.5841,1,0.4612,7,2.2955,1,1.354,2,0.1934,0,0,0,0,1,main,9,21,Male,R,Donders,2021-07-18_13h48.40.997,ImageRatingTask_S5,2021.1.4,Win32,59.24521595,,,,,,,,,,,,,,,,,
,,,,,,,,,,,,0,1,1,1,1,second,9,21,Male,R,Donders,2021-07-18_13h48.40.997,ImageRatingTask_S5,2021.1.4,Win32,59.24521595,,,,,,,,,,,,,,,,,
,,,,,,,,,,,,0,2,2,2,1,third,9,21,Male,R,Donders,2021-07-18_13h48.40.997,ImageRatingTask_S5,2021.1.4,Win32,59.24521595,,,,,,,,,,,,,,,,,
,,,,,,,,,,,,0,3,3,3,1,fourth,9,21,Male,R,Donders,2021-07-18_13h48.40.997,ImageRatingTask_S5,2021.1.4,Win32,59.24521595,,,,,,,,,,,,,,,,,
,,,,,,,,,,,,0,4,4,4,1,fifth,9,21,Male,R,Donders,2021-07-18_13h48.40.997,ImageRatingTask_S5,2021.1.4,Win32,59.24521595,,,,,,,,,,,,,,,,,
,,,,,,,,,,,,0,5,5,5,1,sixth,9,21,Male,R,Donders,2021-07-18_13h48.40.997,ImageRatingTask_S5,2021.1.4,Win32,59.24521595,,,,,,,,,,,,,,,,,
,,,,,,,,,,,,0,6,6,6,1,seventh,9,21,Male,R,Donders,2021-07-18_13h48.40.997,ImageRatingTask_S5,2021.1.4,Win32,59.24521595,,,,,,,,,,,,,,,,,
,,,,,,,,,,,,0,7,7,7,1,last,9,21,Male,R,Donders,2021-07-18_13h48.40.997,ImageRatingTask_S5,2021.1.4,Win32,59.24521595,,,,,,,,,,,,,,,,,
,,,,,,,,,,,,,,,,,,9,21,Male,R,Donders,2021-07-18_13h48.40.997,ImageRatingTask_S5,2021.1.4,Win32,59.24521595,0,37,37,45,1,DreamStudyImages_rs1000x750g/Children/Faces_115_h.jpg,,,,,,,,,,,
,,6,2.4919,1,0.6844,7,1.1699,1,1.7544,6,0.315,0,0,0,0,1,main,9,21,Male,R,Donders,2021-07-18_13h48.40.997,ImageRatingTask_S5,2021.1.4,Win32,59.24521595,,,,,,,,,,,,,,,,,
,,,,,,,,,,,,0,1,1,1,1,second,9,21,Male,R,Donders,2021-07-18_13h48.40.997,ImageRatingTask_S5,2021.1.4,Win32,59.24521595,,,,,,,,,,,,,,,,,
,,,,,,,,,,,,0,2,2,2,1,third,9,21,Male,R,Donders,2021-07-18_13h48.40.997,ImageRatingTask_S5,2021.1.4,Win32,59.24521595,,,,,,,,,,,,,,,,,
,,,,,,,,,,,,0,3,3,3,1,fourth,9,21,Male,R,Donders,2021-07-18_13h48.40.997,ImageRatingTask_S5,2021.1.4,Win32,59.24521595,,,,,,,,,,,,,,,,,
,,,,,,,,,,,,0,4,4,4,1,fifth,9,21,Male,R,Donders,2021-07-18_13h48.40.997,ImageRatingTask_S5,2021.1.4,Win32,59.24521595,,,,,,,,,,,,,,,,,
,,,,,,,,,,,,0,5,5,5,1,sixth,9,21,Male,R,Donders,2021-07-18_13h48.40.997,ImageRatingTask_S5,2021.1.4,Win32,59.24521595,,,,,,,,,,,,,,,,,
,,,,,,,,,,,,0,6,6,6,1,seventh,9,21,Male,R,Donders,2021-07-18_13h48.40.997,ImageRatingTask_S5,2021.1.4,Win32,59.24521595,,,,,,,,,,,,,,,,,
,,,,,,,,,,,,0,7,7,7,1,last,9,21,Male,R,Donders,2021-07-18_13h48.40.997,ImageRatingTask_S5,2021.1.4,Win32,59.24521595,,,,,,,,,,,,,,,,,
,,,,,,,,,,,,,,,,,,9,21,Male,R,Donders,2021-07-18_13h48.40.997,ImageRatingTask_S5,2021.1.4,Win32,59.24521595,0,38,38,57,1,DreamStudyImages_rs1000x750g/Houses/Landscapes_092_h.jpg,,,,,,,,,,,
,,4,3.2672,1,0.2715,6,2.3362,1,1.0476,6,0.1571,0,0,0,0,1,main,9,21,Male,R,Donders,2021-07-18_13h48.40.997,ImageRatingTask_S5,2021.1.4,Win32,59.24521595,,,,,,,,,,,,,,,,,
,,,,,,,,,,,,0,1,1,1,1,second,9,21,Male,R,Donders,2021-07-18_13h48.40.997,ImageRatingTask_S5,2021.1.4,Win32,59.24521595,,,,,,,,,,,,,,,,,
,,,,,,,,,,,,0,2,2,2,1,third,9,21,Male,R,Donders,2021-07-18_13h48.40.997,ImageRatingTask_S5,2021.1.4,Win32,59.24521595,,,,,,,,,,,,,,,,,
,,,,,,,,,,,,0,3,3,3,1,fourth,9,21,Male,R,Donders,2021-07-18_13h48.40.997,ImageRatingTask_S5,2021.1.4,Win32,59.24521595,,,,,,,,,,,,,,,,,
,,,,,,,,,,,,0,4,4,4,1,fifth,9,21,Male,R,Donders,2021-07-18_13h48.40.997,ImageRatingTask_S5,2021.1.4,Win32,59.24521595,,,,,,,,,,,,,,,,,
,,,,,,,,,,,,0,5,5,5,1,sixth,9,21,Male,R,Donders,2021-07-18_13h48.40.997,ImageRatingTask_S5,2021.1.4,Win32,59.24521595,,,,,,,,,,,,,,,,,
,,,,,,,,,,,,0,6,6,6,1,seventh,9,21,Male,R,Donders,2021-07-18_13h48.40.997,ImageRatingTask_S5,2021.1.4,Win32,59.24521595,,,,,,,,,,,,,,,,,
,,,,,,,,,,,,0,7,7,7,1,last,9,21,Male,R,Donders,2021-07-18_13h48.40.997,ImageRatingTask_S5,2021.1.4,Win32,59.24521595,,,,,,,,,,,,,,,,,
,,,,,,,,,,,,,,,,,,9,21,Male,R,Donders,2021-07-18_13h48.40.997,ImageRatingTask_S5,2021.1.4,Win32,59.24521595,0,39,39,18,1,DreamStudyImages_rs1000x750g/Houses/IAPS7490_window.jpg,,,,,,,,,,,
,,2,1.8709,8,0.2322,1,0.9678,1,0.4752,2,0.0961,0,0,0,0,1,main,9,21,Male,R,Donders,2021-07-18_13h48.40.997,ImageRatingTask_S5,2021.1.4,Win32,59.24521595,,,,,,,,,,,,,,,,,
,,,,,,,,,,,,0,1,1,1,1,second,9,21,Male,R,Donders,2021-07-18_13h48.40.997,ImageRatingTask_S5,2021.1.4,Win32,59.24521595,,,,,,,,,,,,,,,,,
,,,,,,,,,,,,0,2,2,2,1,third,9,21,Male,R,Donders,2021-07-18_13h48.40.997,ImageRatingTask_S5,2021.1.4,Win32,59.24521595,,,,,,,,,,,,,,,,,
,,,,,,,,,,,,0,3,3,3,1,fourth,9,21,Male,R,Donders,2021-07-18_13h48.40.997,ImageRatingTask_S5,2021.1.4,Win32,59.24521595,,,,,,,,,,,,,,,,,
,,,,,,,,,,,,0,4,4,4,1,fifth,9,21,Male,R,Donders,2021-07-18_13h48.40.997,ImageRatingTask_S5,2021.1.4,Win32,59.24521595,,,,,,,,,,,,,,,,,
,,,,,,,,,,,,0,5,5,5,1,sixth,9,21,Male,R,Donders,2021-07-18_13h48.40.997,ImageRatingTask_S5,2021.1.4,Win32,59.24521595,,,,,,,,,,,,,,,,,
,,,,,,,,,,,,0,6,6,6,1,seventh,9,21,Male,R,Donders,2021-07-18_13h48.40.997,ImageRatingTask_S5,2021.1.4,Win32,59.24521595,,,,,,,,,,,,,,,,,
,,,,,,,,,,,,0,7,7,7,1,last,9,21,Male,R,Donders,2021-07-18_13h48.40.997,ImageRatingTask_S5,2021.1.4,Win32,59.24521595,,,,,,,,,,,,,,,,,
,,,,,,,,,,,,,,,,,,9,21,Male,R,Donders,2021-07-18_13h48.40.997,ImageRatingTask_S5,2021.1.4,Win32,59.24521595,0,40,40,25,1,DreamStudyImages_rs1000x750g/Children/Faces_019_h.jpg,,,,,,,,,,,
,,2,1.3911,6,1.4497,6,3.6716,1,0.9365,6,0.3633,0,0,0,0,1,main,9,21,Male,R,Donders,2021-07-18_13h48.40.997,ImageRatingTask_S5,2021.1.4,Win32,59.24521595,,,,,,,,,,,,,,,,,
,,,,,,,,,,,,0,1,1,1,1,second,9,21,Male,R,Donders,2021-07-18_13h48.40.997,ImageRatingTask_S5,2021.1.4,Win32,59.24521595,,,,,,,,,,,,,,,,,
,,,,,,,,,,,,0,2,2,2,1,third,9,21,Male,R,Donders,2021-07-18_13h48.40.997,ImageRatingTask_S5,2021.1.4,Win32,59.24521595,,,,,,,,,,,,,,,,,
,,,,,,,,,,,,0,3,3,3,1,fourth,9,21,Male,R,Donders,2021-07-18_13h48.40.997,ImageRatingTask_S5,2021.1.4,Win32,59.24521595,,,,,,,,,,,,,,,,,
,,,,,,,,,,,,0,4,4,4,1,fifth,9,21,Male,R,Donders,2021-07-18_13h48.40.997,ImageRatingTask_S5,2021.1.4,Win32,59.24521595,,,,,,,,,,,,,,,,,
,,,,,,,,,,,,0,5,5,5,1,sixth,9,21,Male,R,Donders,2021-07-18_13h48.40.997,ImageRatingTask_S5,2021.1.4,Win32,59.24521595,,,,,,,,,,,,,,,,,
,,,,,,,,,,,,0,6,6,6,1,seventh,9,21,Male,R,Donders,2021-07-18_13h48.40.997,ImageRatingTask_S5,2021.1.4,Win32,59.24521595,,,,,,,,,,,,,,,,,
,,,,,,,,,,,,0,7,7,7,1,last,9,21,Male,R,Donders,2021-07-18_13h48.40.997,ImageRatingTask_S5,2021.1.4,Win32,59.24521595,,,,,,,,,,,,,,,,,
,,,,,,,,,,,,,,,,,,9,21,Male,R,Donders,2021-07-18_13h48.40.997,ImageRatingTask_S5,2021.1.4,Win32,59.24521595,0,41,41,87,1,DreamStudyImages_rs1000x750g/Houses/NDPS92_destroyedhouse.jpg,,,,,,,,,,,
,,2,6.7773,7,0.9571,1,0.4542,1,2.42,8,10.3126,0,0,0,0,1,main,9,21,Male,R,Donders,2021-07-18_13h48.40.997,ImageRatingTask_S5,2021.1.4,Win32,59.24521595,,,,,,,,,,,,,,,,,
,,,,,,,,,,,,0,1,1,1,1,second,9,21,Male,R,Donders,2021-07-18_13h48.40.997,ImageRatingTask_S5,2021.1.4,Win32,59.24521595,,,,,,,,,,,,,,,,,
,,,,,,,,,,,,0,2,2,2,1,third,9,21,Male,R,Donders,2021-07-18_13h48.40.997,ImageRatingTask_S5,2021.1.4,Win32,59.24521595,,,,,,,,,,,,,,,,,
,,,,,,,,,,,,0,3,3,3,1,fourth,9,21,Male,R,Donders,2021-07-18_13h48.40.997,ImageRatingTask_S5,2021.1.4,Win32,59.24521595,,,,,,,,,,,,,,,,,
,,,,,,,,,,,,0,4,4,4,1,fifth,9,21,Male,R,Donders,2021-07-18_13h48.40.997,ImageRatingTask_S5,2021.1.4,Win32,59.24521595,,,,,,,,,,,,,,,,,
,,,,,,,,,,,,0,5,5,5,1,sixth,9,21,Male,R,Donders,2021-07-18_13h48.40.997,ImageRatingTask_S5,2021.1.4,Win32,59.24521595,,,,,,,,,,,,,,,,,
,,,,,,,,,,,,0,6,6,6,1,seventh,9,21,Male,R,Donders,2021-07-18_13h48.40.997,ImageRatingTask_S5,2021.1.4,Win32,59.24521595,,,,,,,,,,,,,,,,,
,,,,,,,,,,,,0,7,7,7,1,last,9,21,Male,R,Donders,2021-07-18_13h48.40.997,ImageRatingTask_S5,2021.1.4,Win32,59.24521595,,,,,,,,,,,,,,,,,
,,,,,,,,,,,,,,,,,,9,21,Male,R,Donders,2021-07-18_13h48.40.997,ImageRatingTask_S5,2021.1.4,Win32,59.24521595,0,42,42,24,1,DreamStudyImages_rs1000x750g/Water/water_neg_bis.jpg,,,,,,,,,,,
,,2,10.7023,8,0.8956,4,2.2771,1,1.8015,2,0.4819,0,0,0,0,1,main,9,21,Male,R,Donders,2021-07-18_13h48.40.997,ImageRatingTask_S5,2021.1.4,Win32,59.24521595,,,,,,,,,,,,,,,,,
,,,,,,,,,,,,0,1,1,1,1,second,9,21,Male,R,Donders,2021-07-18_13h48.40.997,ImageRatingTask_S5,2021.1.4,Win32,59.24521595,,,,,,,,,,,,,,,,,
,,,,,,,,,,,,0,2,2,2,1,third,9,21,Male,R,Donders,2021-07-18_13h48.40.997,ImageRatingTask_S5,2021.1.4,Win32,59.24521595,,,,,,,,,,,,,,,,,
,,,,,,,,,,,,0,3,3,3,1,fourth,9,21,Male,R,Donders,2021-07-18_13h48.40.997,ImageRatingTask_S5,2021.1.4,Win32,59.24521595,,,,,,,,,,,,,,,,,
,,,,,,,,,,,,0,4,4,4,1,fifth,9,21,Male,R,Donders,2021-07-18_13h48.40.997,ImageRatingTask_S5,2021.1.4,Win32,59.24521595,,,,,,,,,,,,,,,,,
,,,,,,,,,,,,0,5,5,5,1,sixth,9,21,Male,R,Donders,2021-07-18_13h48.40.997,ImageRatingTask_S5,2021.1.4,Win32,59.24521595,,,,,,,,,,,,,,,,,
,,,,,,,,,,,,0,6,6,6,1,seventh,9,21,Male,R,Donders,2021-07-18_13h48.40.997,ImageRatingTask_S5,2021.1.4,Win32,59.24521595,,,,,,,,,,,,,,,,,
,,,,,,,,,,,,0,7,7,7,1,last,9,21,Male,R,Donders,2021-07-18_13h48.40.997,ImageRatingTask_S5,2021.1.4,Win32,59.24521595,,,,,,,,,,,,,,,,,
,,,,,,,,,,,,,,,,,,9,21,Male,R,Donders,2021-07-18_13h48.40.997,ImageRatingTask_S5,2021.1.4,Win32,59.24521595,0,43,43,13,1,DreamStudyImages_rs1000x750g/Children/IAPS3310_baby27.jpg,,,,,,,,,,,
,,6,4.0937,3,4.0564,6,1.5974,1,2.0218,3,0.2173,0,0,0,0,1,main,9,21,Male,R,Donders,2021-07-18_13h48.40.997,ImageRatingTask_S5,2021.1.4,Win32,59.24521595,,,,,,,,,,,,,,,,,
,,,,,,,,,,,,0,1,1,1,1,second,9,21,Male,R,Donders,2021-07-18_13h48.40.997,ImageRatingTask_S5,2021.1.4,Win32,59.24521595,,,,,,,,,,,,,,,,,
,,,,,,,,,,,,0,2,2,2,1,third,9,21,Male,R,Donders,2021-07-18_13h48.40.997,ImageRatingTask_S5,2021.1.4,Win32,59.24521595,,,,,,,,,,,,,,,,,
,,,,,,,,,,,,0,3,3,3,1,fourth,9,21,Male,R,Donders,2021-07-18_13h48.40.997,ImageRatingTask_S5,2021.1.4,Win32,59.24521595,,,,,,,,,,,,,,,,,
,,,,,,,,,,,,0,4,4,4,1,fifth,9,21,Male,R,Donders,2021-07-18_13h48.40.997,ImageRatingTask_S5,2021.1.4,Win32,59.24521595,,,,,,,,,,,,,,,,,
,,,,,,,,,,,,0,5,5,5,1,sixth,9,21,Male,R,Donders,2021-07-18_13h48.40.997,ImageRatingTask_S5,2021.1.4,Win32,59.24521595,,,,,,,,,,,,,,,,,
,,,,,,,,,,,,0,6,6,6,1,seventh,9,21,Male,R,Donders,2021-07-18_13h48.40.997,ImageRatingTask_S5,2021.1.4,Win32,59.24521595,,,,,,,,,,,,,,,,,
,,,,,,,,,,,,0,7,7,7,1,last,9,21,Male,R,Donders,2021-07-18_13h48.40.997,ImageRatingTask_S5,2021.1.4,Win32,59.24521595,,,,,,,,,,,,,,,,,
,,,,,,,,,,,,,,,,,,9,21,Male,R,Donders,2021-07-18_13h48.40.997,ImageRatingTask_S5,2021.1.4,Win32,59.24521595,0,44,44,116,1,DreamStudyImages_rs1000x750g/Mammals/Animals_134_h.jpg,,,,,,,,,,,
,,6,5.3699,1,0.7614,7,1.452,1,1.8726,7,0.0933,0,0,0,0,1,main,9,21,Male,R,Donders,2021-07-18_13h48.40.997,ImageRatingTask_S5,2021.1.4,Win32,59.24521595,,,,,,,,,,,,,,,,,
,,,,,,,,,,,,0,1,1,1,1,second,9,21,Male,R,Donders,2021-07-18_13h48.40.997,ImageRatingTask_S5,2021.1.4,Win32,59.24521595,,,,,,,,,,,,,,,,,
,,,,,,,,,,,,0,2,2,2,1,third,9,21,Male,R,Donders,2021-07-18_13h48.40.997,ImageRatingTask_S5,2021.1.4,Win32,59.24521595,,,,,,,,,,,,,,,,,
,,,,,,,,,,,,0,3,3,3,1,fourth,9,21,Male,R,Donders,2021-07-18_13h48.40.997,ImageRatingTask_S5,2021.1.4,Win32,59.24521595,,,,,,,,,,,,,,,,,
,,,,,,,,,,,,0,4,4,4,1,fifth,9,21,Male,R,Donders,2021-07-18_13h48.40.997,ImageRatingTask_S5,2021.1.4,Win32,59.24521595,,,,,,,,,,,,,,,,,
,,,,,,,,,,,,0,5,5,5,1,sixth,9,21,Male,R,Donders,2021-07-18_13h48.40.997,ImageRatingTask_S5,2021.1.4,Win32,59.24521595,,,,,,,,,,,,,,,,,
,,,,,,,,,,,,0,6,6,6,1,seventh,9,21,Male,R,Donders,2021-07-18_13h48.40.997,ImageRatingTask_S5,2021.1.4,Win32,59.24521595,,,,,,,,,,,,,,,,,
,,,,,,,,,,,,0,7,7,7,1,last,9,21,Male,R,Donders,2021-07-18_13h48.40.997,ImageRatingTask_S5,2021.1.4,Win32,59.24521595,,,,,,,,,,,,,,,,,
,,,,,,,,,,,,,,,,,,9,21,Male,R,Donders,2021-07-18_13h48.40.997,ImageRatingTask_S5,2021.1.4,Win32,59.24521595,0,45,45,124,1,DreamStudyImages_rs1000x750g/Vehicles/desertroad.jpg,,,,,,,,,,,
,,8,7.7626,1,0.8959,7,1.4078,1,1.5211,2,0.061,0,0,0,0,1,main,9,21,Male,R,Donders,2021-07-18_13h48.40.997,ImageRatingTask_S5,2021.1.4,Win32,59.24521595,,,,,,,,,,,,,,,,,
,,,,,,,,,,,,0,1,1,1,1,second,9,21,Male,R,Donders,2021-07-18_13h48.40.997,ImageRatingTask_S5,2021.1.4,Win32,59.24521595,,,,,,,,,,,,,,,,,
,,,,,,,,,,,,0,2,2,2,1,third,9,21,Male,R,Donders,2021-07-18_13h48.40.997,ImageRatingTask_S5,2021.1.4,Win32,59.24521595,,,,,,,,,,,,,,,,,
,,,,,,,,,,,,0,3,3,3,1,fourth,9,21,Male,R,Donders,2021-07-18_13h48.40.997,ImageRatingTask_S5,2021.1.4,Win32,59.24521595,,,,,,,,,,,,,,,,,
,,,,,,,,,,,,0,4,4,4,1,fifth,9,21,Male,R,Donders,2021-07-18_13h48.40.997,ImageRatingTask_S5,2021.1.4,Win32,59.24521595,,,,,,,,,,,,,,,,,
,,,,,,,,,,,,0,5,5,5,1,sixth,9,21,Male,R,Donders,2021-07-18_13h48.40.997,ImageRatingTask_S5,2021.1.4,Win32,59.24521595,,,,,,,,,,,,,,,,,
,,,,,,,,,,,,0,6,6,6,1,seventh,9,21,Male,R,Donders,2021-07-18_13h48.40.997,ImageRatingTask_S5,2021.1.4,Win32,59.24521595,,,,,,,,,,,,,,,,,
,,,,,,,,,,,,0,7,7,7,1,last,9,21,Male,R,Donders,2021-07-18_13h48.40.997,ImageRatingTask_S5,2021.1.4,Win32,59.24521595,,,,,,,,,,,,,,,,,
,,,,,,,,,,,,,,,,,,9,21,Male,R,Donders,2021-07-18_13h48.40.997,ImageRatingTask_S5,2021.1.4,Win32,59.24521595,0,46,46,56,1,DreamStudyImages_rs1000x750g/Children/IAPS2347_children12.jpg,,,,,,,,,,,
,,7,2.506,1,0.3843,8,1.411,1,12.4771,8,0.0613,0,0,0,0,1,main,9,21,Male,R,Donders,2021-07-18_13h48.40.997,ImageRatingTask_S5,2021.1.4,Win32,59.24521595,,,,,,,,,,,,,,,,,
,,,,,,,,,,,,0,1,1,1,1,second,9,21,Male,R,Donders,2021-07-18_13h48.40.997,ImageRatingTask_S5,2021.1.4,Win32,59.24521595,,,,,,,,,,,,,,,,,
,,,,,,,,,,,,0,2,2,2,1,third,9,21,Male,R,Donders,2021-07-18_13h48.40.997,ImageRatingTask_S5,2021.1.4,Win32,59.24521595,,,,,,,,,,,,,,,,,
,,,,,,,,,,,,0,3,3,3,1,fourth,9,21,Male,R,Donders,2021-07-18_13h48.40.997,ImageRatingTask_S5,2021.1.4,Win32,59.24521595,,,,,,,,,,,,,,,,,
,,,,,,,,,,,,0,4,4,4,1,fifth,9,21,Male,R,Donders,2021-07-18_13h48.40.997,ImageRatingTask_S5,2021.1.4,Win32,59.24521595,,,,,,,,,,,,,,,,,
,,,,,,,,,,,,0,5,5,5,1,sixth,9,21,Male,R,Donders,2021-07-18_13h48.40.997,ImageRatingTask_S5,2021.1.4,Win32,59.24521595,,,,,,,,,,,,,,,,,
,,,,,,,,,,,,0,6,6,6,1,seventh,9,21,Male,R,Donders,2021-07-18_13h48.40.997,ImageRatingTask_S5,2021.1.4,Win32,59.24521595,,,,,,,,,,,,,,,,,
,,,,,,,,,,,,0,7,7,7,1,last,9,21,Male,R,Donders,2021-07-18_13h48.40.997,ImageRatingTask_S5,2021.1.4,Win32,59.24521595,,,,,,,,,,,,,,,,,
,,,,,,,,,,,,,,,,,,9,21,Male,R,Donders,2021-07-18_13h48.40.997,ImageRatingTask_S5,2021.1.4,Win32,59.24521595,0,47,47,106,1,DreamStudyImages_rs1000x750g/Water/Landscapes_155_h.jpg,,,,,,,,,,,
,,7,5.4618,1,0.5167,8,0.9056,1,0.985,5,0.46,0,0,0,0,1,main,9,21,Male,R,Donders,2021-07-18_13h48.40.997,ImageRatingTask_S5,2021.1.4,Win32,59.24521595,,,,,,,,,,,,,,,,,
,,,,,,,,,,,,0,1,1,1,1,second,9,21,Male,R,Donders,2021-07-18_13h48.40.997,ImageRatingTask_S5,2021.1.4,Win32,59.24521595,,,,,,,,,,,,,,,,,
,,,,,,,,,,,,0,2,2,2,1,third,9,21,Male,R,Donders,2021-07-18_13h48.40.997,ImageRatingTask_S5,2021.1.4,Win32,59.24521595,,,,,,,,,,,,,,,,,
,,,,,,,,,,,,0,3,3,3,1,fourth,9,21,Male,R,Donders,2021-07-18_13h48.40.997,ImageRatingTask_S5,2021.1.4,Win32,59.24521595,,,,,,,,,,,,,,,,,
,,,,,,,,,,,,0,4,4,4,1,fifth,9,21,Male,R,Donders,2021-07-18_13h48.40.997,ImageRatingTask_S5,2021.1.4,Win32,59.24521595,,,,,,,,,,,,,,,,,
,,,,,,,,,,,,0,5,5,5,1,sixth,9,21,Male,R,Donders,2021-07-18_13h48.40.997,ImageRatingTask_S5,2021.1.4,Win32,59.24521595,,,,,,,,,,,,,,,,,
,,,,,,,,,,,,0,6,6,6,1,seventh,9,21,Male,R,Donders,2021-07-18_13h48.40.997,ImageRatingTask_S5,2021.1.4,Win32,59.24521595,,,,,,,,,,,,,,,,,
,,,,,,,,,,,,0,7,7,7,1,last,9,21,Male,R,Donders,2021-07-18_13h48.40.997,ImageRatingTask_S5,2021.1.4,Win32,59.24521595,,,,,,,,,,,,,,,,,
,,,,,,,,,,,,,,,,,,9,21,Male,R,Donders,2021-07-18_13h48.40.997,ImageRatingTask_S5,2021.1.4,Win32,59.24521595,0,48,48,53,1,DreamStudyImages_rs1000x750g/Food/IAPS7365_mincedmeat.jpg,,,,,,,,,,,
,,3,16.6272,5,1.299,4,1.5003,1,1.0281,3,0.2064,0,0,0,0,1,main,9,21,Male,R,Donders,2021-07-18_13h48.40.997,ImageRatingTask_S5,2021.1.4,Win32,59.24521595,,,,,,,,,,,,,,,,,
,,,,,,,,,,,,0,1,1,1,1,second,9,21,Male,R,Donders,2021-07-18_13h48.40.997,ImageRatingTask_S5,2021.1.4,Win32,59.24521595,,,,,,,,,,,,,,,,,
,,,,,,,,,,,,0,2,2,2,1,third,9,21,Male,R,Donders,2021-07-18_13h48.40.997,ImageRatingTask_S5,2021.1.4,Win32,59.24521595,,,,,,,,,,,,,,,,,
,,,,,,,,,,,,0,3,3,3,1,fourth,9,21,Male,R,Donders,2021-07-18_13h48.40.997,ImageRatingTask_S5,2021.1.4,Win32,59.24521595,,,,,,,,,,,,,,,,,
,,,,,,,,,,,,0,4,4,4,1,fifth,9,21,Male,R,Donders,2021-07-18_13h48.40.997,ImageRatingTask_S5,2021.1.4,Win32,59.24521595,,,,,,,,,,,,,,,,,
,,,,,,,,,,,,0,5,5,5,1,sixth,9,21,Male,R,Donders,2021-07-18_13h48.40.997,ImageRatingTask_S5,2021.1.4,Win32,59.24521595,,,,,,,,,,,,,,,,,
,,,,,,,,,,,,0,6,6,6,1,seventh,9,21,Male,R,Donders,2021-07-18_13h48.40.997,ImageRatingTask_S5,2021.1.4,Win32,59.24521595,,,,,,,,,,,,,,,,,
,,,,,,,,,,,,0,7,7,7,1,last,9,21,Male,R,Donders,2021-07-18_13h48.40.997,ImageRatingTask_S5,2021.1.4,Win32,59.24521595,,,,,,,,,,,,,,,,,
,,,,,,,,,,,,,,,,,,9,21,Male,R,Donders,2021-07-18_13h48.40.997,ImageRatingTask_S5,2021.1.4,Win32,59.24521595,0,49,49,128,1,DreamStudyImages_rs1000x750g/Mammals/Animals_050_h.jpg,,,,,,,,,,,
,,7,1.9939,1,0.3051,8,1.4472,1,0.6417,2,0.5716,0,0,0,0,1,main,9,21,Male,R,Donders,2021-07-18_13h48.40.997,ImageRatingTask_S5,2021.1.4,Win32,59.24521595,,,,,,,,,,,,,,,,,
,,,,,,,,,,,,0,1,1,1,1,second,9,21,Male,R,Donders,2021-07-18_13h48.40.997,ImageRatingTask_S5,2021.1.4,Win32,59.24521595,,,,,,,,,,,,,,,,,
,,,,,,,,,,,,0,2,2,2,1,third,9,21,Male,R,Donders,2021-07-18_13h48.40.997,ImageRatingTask_S5,2021.1.4,Win32,59.24521595,,,,,,,,,,,,,,,,,
,,,,,,,,,,,,0,3,3,3,1,fourth,9,21,Male,R,Donders,2021-07-18_13h48.40.997,ImageRatingTask_S5,2021.1.4,Win32,59.24521595,,,,,,,,,,,,,,,,,
,,,,,,,,,,,,0,4,4,4,1,fifth,9,21,Male,R,Donders,2021-07-18_13h48.40.997,ImageRatingTask_S5,2021.1.4,Win32,59.24521595,,,,,,,,,,,,,,,,,
,,,,,,,,,,,,0,5,5,5,1,sixth,9,21,Male,R,Donders,2021-07-18_13h48.40.997,ImageRatingTask_S5,2021.1.4,Win32,59.24521595,,,,,,,,,,,,,,,,,
,,,,,,,,,,,,0,6,6,6,1,seventh,9,21,Male,R,Donders,2021-07-18_13h48.40.997,ImageRatingTask_S5,2021.1.4,Win32,59.24521595,,,,,,,,,,,,,,,,,
,,,,,,,,,,,,0,7,7,7,1,last,9,21,Male,R,Donders,2021-07-18_13h48.40.997,ImageRatingTask_S5,2021.1.4,Win32,59.24521595,,,,,,,,,,,,,,,,,
,,,,,,,,,,,,,,,,,,9,21,Male,R,Donders,2021-07-18_13h48.40.997,ImageRatingTask_S5,2021.1.4,Win32,59.24521595,0,50,50,44,1,DreamStudyImages_rs1000x750g/Children/Excited face 5.jpg,,,,,,,,,,,
,,6,2.1783,2,1.1423,5,2.8035,1,3.5413,5,0.0959,0,0,0,0,1,main,9,21,Male,R,Donders,2021-07-18_13h48.40.997,ImageRatingTask_S5,2021.1.4,Win32,59.24521595,,,,,,,,,,,,,,,,,
,,,,,,,,,,,,0,1,1,1,1,second,9,21,Male,R,Donders,2021-07-18_13h48.40.997,ImageRatingTask_S5,2021.1.4,Win32,59.24521595,,,,,,,,,,,,,,,,,
,,,,,,,,,,,,0,2,2,2,1,third,9,21,Male,R,Donders,2021-07-18_13h48.40.997,ImageRatingTask_S5,2021.1.4,Win32,59.24521595,,,,,,,,,,,,,,,,,
,,,,,,,,,,,,0,3,3,3,1,fourth,9,21,Male,R,Donders,2021-07-18_13h48.40.997,ImageRatingTask_S5,2021.1.4,Win32,59.24521595,,,,,,,,,,,,,,,,,
,,,,,,,,,,,,0,4,4,4,1,fifth,9,21,Male,R,Donders,2021-07-18_13h48.40.997,ImageRatingTask_S5,2021.1.4,Win32,59.24521595,,,,,,,,,,,,,,,,,
,,,,,,,,,,,,0,5,5,5,1,sixth,9,21,Male,R,Donders,2021-07-18_13h48.40.997,ImageRatingTask_S5,2021.1.4,Win32,59.24521595,,,,,,,,,,,,,,,,,
,,,,,,,,,,,,0,6,6,6,1,seventh,9,21,Male,R,Donders,2021-07-18_13h48.40.997,ImageRatingTask_S5,2021.1.4,Win32,59.24521595,,,,,,,,,,,,,,,,,
,,,,,,,,,,,,0,7,7,7,1,last,9,21,Male,R,Donders,2021-07-18_13h48.40.997,ImageRatingTask_S5,2021.1.4,Win32,59.24521595,,,,,,,,,,,,,,,,,
,,,,,,,,,,,,,,,,,,9,21,Male,R,Donders,2021-07-18_13h48.40.997,ImageRatingTask_S5,2021.1.4,Win32,59.24521595,0,51,51,22,1,DreamStudyImages_rs1000x750g/Food/Birthday 1.jpg,,,,,,,,,,,
,,7,1.4615,1,0.3844,4,1.7432,1,0.6163,5,0.1943,0,0,0,0,1,main,9,21,Male,R,Donders,2021-07-18_13h48.40.997,ImageRatingTask_S5,2021.1.4,Win32,59.24521595,,,,,,,,,,,,,,,,,
,,,,,,,,,,,,0,1,1,1,1,second,9,21,Male,R,Donders,2021-07-18_13h48.40.997,ImageRatingTask_S5,2021.1.4,Win32,59.24521595,,,,,,,,,,,,,,,,,
,,,,,,,,,,,,0,2,2,2,1,third,9,21,Male,R,Donders,2021-07-18_13h48.40.997,ImageRatingTask_S5,2021.1.4,Win32,59.24521595,,,,,,,,,,,,,,,,,
,,,,,,,,,,,,0,3,3,3,1,fourth,9,21,Male,R,Donders,2021-07-18_13h48.40.997,ImageRatingTask_S5,2021.1.4,Win32,59.24521595,,,,,,,,,,,,,,,,,
,,,,,,,,,,,,0,4,4,4,1,fifth,9,21,Male,R,Donders,2021-07-18_13h48.40.997,ImageRatingTask_S5,2021.1.4,Win32,59.24521595,,,,,,,,,,,,,,,,,
,,,,,,,,,,,,0,5,5,5,1,sixth,9,21,Male,R,Donders,2021-07-18_13h48.40.997,ImageRatingTask_S5,2021.1.4,Win32,59.24521595,,,,,,,,,,,,,,,,,
,,,,,,,,,,,,0,6,6,6,1,seventh,9,21,Male,R,Donders,2021-07-18_13h48.40.997,ImageRatingTask_S5,2021.1.4,Win32,59.24521595,,,,,,,,,,,,,,,,,
,,,,,,,,,,,,0,7,7,7,1,last,9,21,Male,R,Donders,2021-07-18_13h48.40.997,ImageRatingTask_S5,2021.1.4,Win32,59.24521595,,,,,,,,,,,,,,,,,
,,,,,,,,,,,,,,,,,,9,21,Male,R,Donders,2021-07-18_13h48.40.997,ImageRatingTask_S5,2021.1.4,Win32,59.24521595,0,52,52,139,1,DreamStudyImages_rs1000x750g/Food/Wedding 4.jpg,,,,,,,,,,,
,,3,2.8354,6,0.7572,3,1.7594,1,1.1513,3,0.0958,0,0,0,0,1,main,9,21,Male,R,Donders,2021-07-18_13h48.40.997,ImageRatingTask_S5,2021.1.4,Win32,59.24521595,,,,,,,,,,,,,,,,,
,,,,,,,,,,,,0,1,1,1,1,second,9,21,Male,R,Donders,2021-07-18_13h48.40.997,ImageRatingTask_S5,2021.1.4,Win32,59.24521595,,,,,,,,,,,,,,,,,
,,,,,,,,,,,,0,2,2,2,1,third,9,21,Male,R,Donders,2021-07-18_13h48.40.997,ImageRatingTask_S5,2021.1.4,Win32,59.24521595,,,,,,,,,,,,,,,,,
,,,,,,,,,,,,0,3,3,3,1,fourth,9,21,Male,R,Donders,2021-07-18_13h48.40.997,ImageRatingTask_S5,2021.1.4,Win32,59.24521595,,,,,,,,,,,,,,,,,
,,,,,,,,,,,,0,4,4,4,1,fifth,9,21,Male,R,Donders,2021-07-18_13h48.40.997,ImageRatingTask_S5,2021.1.4,Win32,59.24521595,,,,,,,,,,,,,,,,,
,,,,,,,,,,,,0,5,5,5,1,sixth,9,21,Male,R,Donders,2021-07-18_13h48.40.997,ImageRatingTask_S5,2021.1.4,Win32,59.24521595,,,,,,,,,,,,,,,,,
,,,,,,,,,,,,0,6,6,6,1,seventh,9,21,Male,R,Donders,2021-07-18_13h48.40.997,ImageRatingTask_S5,2021.1.4,Win32,59.24521595,,,,,,,,,,,,,,,,,
,,,,,,,,,,,,0,7,7,7,1,last,9,21,Male,R,Donders,2021-07-18_13h48.40.997,ImageRatingTask_S5,2021.1.4,Win32,59.24521595,,,,,,,,,,,,,,,,,
,,,,,,,,,,,,,,,,,,9,21,Male,R,Donders,2021-07-18_13h48.40.997,ImageRatingTask_S5,2021.1.4,Win32,59.24521595,0,53,53,140,1,DreamStudyImages_rs1000x750g/Mammals/1675.jpg,,,,,,,,,,,
,,6,16.6064,1,0.5741,6,2.76,1,1.3994,5,0.2024,0,0,0,0,1,main,9,21,Male,R,Donders,2021-07-18_13h48.40.997,ImageRatingTask_S5,2021.1.4,Win32,59.24521595,,,,,,,,,,,,,,,,,
,,,,,,,,,,,,0,1,1,1,1,second,9,21,Male,R,Donders,2021-07-18_13h48.40.997,ImageRatingTask_S5,2021.1.4,Win32,59.24521595,,,,,,,,,,,,,,,,,
,,,,,,,,,,,,0,2,2,2,1,third,9,21,Male,R,Donders,2021-07-18_13h48.40.997,ImageRatingTask_S5,2021.1.4,Win32,59.24521595,,,,,,,,,,,,,,,,,
,,,,,,,,,,,,0,3,3,3,1,fourth,9,21,Male,R,Donders,2021-07-18_13h48.40.997,ImageRatingTask_S5,2021.1.4,Win32,59.24521595,,,,,,,,,,,,,,,,,
,,,,,,,,,,,,0,4,4,4,1,fifth,9,21,Male,R,Donders,2021-07-18_13h48.40.997,ImageRatingTask_S5,2021.1.4,Win32,59.24521595,,,,,,,,,,,,,,,,,
,,,,,,,,,,,,0,5,5,5,1,sixth,9,21,Male,R,Donders,2021-07-18_13h48.40.997,ImageRatingTask_S5,2021.1.4,Win32,59.24521595,,,,,,,,,,,,,,,,,
,,,,,,,,,,,,0,6,6,6,1,seventh,9,21,Male,R,Donders,2021-07-18_13h48.40.997,ImageRatingTask_S5,2021.1.4,Win32,59.24521595,,,,,,,,,,,,,,,,,
,,,,,,,,,,,,0,7,7,7,1,last,9,21,Male,R,Donders,2021-07-18_13h48.40.997,ImageRatingTask_S5,2021.1.4,Win32,59.24521595,,,,,,,,,,,,,,,,,
,,,,,,,,,,,,,,,,,,9,21,Male,R,Donders,2021-07-18_13h48.40.997,ImageRatingTask_S5,2021.1.4,Win32,59.24521595,0,54,54,68,1,DreamStudyImages_rs1000x750g/Food/Objects_086_h.jpg,,,,,,,,,,,
,,7,2.9361,1,0.2783,6,1.6672,2,1.5604,6,1.4982,0,0,0,0,1,main,9,21,Male,R,Donders,2021-07-18_13h48.40.997,ImageRatingTask_S5,2021.1.4,Win32,59.24521595,,,,,,,,,,,,,,,,,
,,,,,,,,,,8,0.1011,0,1,1,1,1,second,9,21,Male,R,Donders,2021-07-18_13h48.40.997,ImageRatingTask_S5,2021.1.4,Win32,59.24521595,,,,,,,,,,,,,,,,,
,,,,,,,,,,,,0,2,2,2,1,third,9,21,Male,R,Donders,2021-07-18_13h48.40.997,ImageRatingTask_S5,2021.1.4,Win32,59.24521595,,,,,,,,,,,,,,,,,
,,,,,,,,,,,,0,3,3,3,1,fourth,9,21,Male,R,Donders,2021-07-18_13h48.40.997,ImageRatingTask_S5,2021.1.4,Win32,59.24521595,,,,,,,,,,,,,,,,,
,,,,,,,,,,,,0,4,4,4,1,fifth,9,21,Male,R,Donders,2021-07-18_13h48.40.997,ImageRatingTask_S5,2021.1.4,Win32,59.24521595,,,,,,,,,,,,,,,,,
,,,,,,,,,,,,0,5,5,5,1,sixth,9,21,Male,R,Donders,2021-07-18_13h48.40.997,ImageRatingTask_S5,2021.1.4,Win32,59.24521595,,,,,,,,,,,,,,,,,
,,,,,,,,,,,,0,6,6,6,1,seventh,9,21,Male,R,Donders,2021-07-18_13h48.40.997,ImageRatingTask_S5,2021.1.4,Win32,59.24521595,,,,,,,,,,,,,,,,,
,,,,,,,,,,,,0,7,7,7,1,last,9,21,Male,R,Donders,2021-07-18_13h48.40.997,ImageRatingTask_S5,2021.1.4,Win32,59.24521595,,,,,,,,,,,,,,,,,
,,,,,,,,,,,,,,,,,,9,21,Male,R,Donders,2021-07-18_13h48.40.997,ImageRatingTask_S5,2021.1.4,Win32,59.24521595,0,55,55,80,1,DreamStudyImages_rs1000x750g/Houses/Landscapes_065_h.jpg,,,,,,,,,,,
,,6,2.9423,1,0.4464,4,3.8253,1,0.7659,5,0.1565,0,0,0,0,1,main,9,21,Male,R,Donders,2021-07-18_13h48.40.997,ImageRatingTask_S5,2021.1.4,Win32,59.24521595,,,,,,,,,,,,,,,,,
,,,,,,,,,,,,0,1,1,1,1,second,9,21,Male,R,Donders,2021-07-18_13h48.40.997,ImageRatingTask_S5,2021.1.4,Win32,59.24521595,,,,,,,,,,,,,,,,,
,,,,,,,,,,,,0,2,2,2,1,third,9,21,Male,R,Donders,2021-07-18_13h48.40.997,ImageRatingTask_S5,2021.1.4,Win32,59.24521595,,,,,,,,,,,,,,,,,
,,,,,,,,,,,,0,3,3,3,1,fourth,9,21,Male,R,Donders,2021-07-18_13h48.40.997,ImageRatingTask_S5,2021.1.4,Win32,59.24521595,,,,,,,,,,,,,,,,,
,,,,,,,,,,,,0,4,4,4,1,fifth,9,21,Male,R,Donders,2021-07-18_13h48.40.997,ImageRatingTask_S5,2021.1.4,Win32,59.24521595,,,,,,,,,,,,,,,,,
,,,,,,,,,,,,0,5,5,5,1,sixth,9,21,Male,R,Donders,2021-07-18_13h48.40.997,ImageRatingTask_S5,2021.1.4,Win32,59.24521595,,,,,,,,,,,,,,,,,
,,,,,,,,,,,,0,6,6,6,1,seventh,9,21,Male,R,Donders,2021-07-18_13h48.40.997,ImageRatingTask_S5,2021.1.4,Win32,59.24521595,,,,,,,,,,,,,,,,,
,,,,,,,,,,,,0,7,7,7,1,last,9,21,Male,R,Donders,2021-07-18_13h48.40.997,ImageRatingTask_S5,2021.1.4,Win32,59.24521595,,,,,,,,,,,,,,,,,
,,,,,,,,,,,,,,,,,,9,21,Male,R,Donders,2021-07-18_13h48.40.997,ImageRatingTask_S5,2021.1.4,Win32,59.24521595,0,56,56,135,1,DreamStudyImages_rs1000x750g/Food/Objects_033_h.jpg,,,,,,,,,,,
,,6,2.0552,1,0.822,7,10.6825,1,1.5286,6,0.7726,0,0,0,0,1,main,9,21,Male,R,Donders,2021-07-18_13h48.40.997,ImageRatingTask_S5,2021.1.4,Win32,59.24521595,,,,,,,,,,,,,,,,,
,,,,,,,,,,,,0,1,1,1,1,second,9,21,Male,R,Donders,2021-07-18_13h48.40.997,ImageRatingTask_S5,2021.1.4,Win32,59.24521595,,,,,,,,,,,,,,,,,
,,,,,,,,,,,,0,2,2,2,1,third,9,21,Male,R,Donders,2021-07-18_13h48.40.997,ImageRatingTask_S5,2021.1.4,Win32,59.24521595,,,,,,,,,,,,,,,,,
,,,,,,,,,,,,0,3,3,3,1,fourth,9,21,Male,R,Donders,2021-07-18_13h48.40.997,ImageRatingTask_S5,2021.1.4,Win32,59.24521595,,,,,,,,,,,,,,,,,
,,,,,,,,,,,,0,4,4,4,1,fifth,9,21,Male,R,Donders,2021-07-18_13h48.40.997,ImageRatingTask_S5,2021.1.4,Win32,59.24521595,,,,,,,,,,,,,,,,,
,,,,,,,,,,,,0,5,5,5,1,sixth,9,21,Male,R,Donders,2021-07-18_13h48.40.997,ImageRatingTask_S5,2021.1.4,Win32,59.24521595,,,,,,,,,,,,,,,,,
,,,,,,,,,,,,0,6,6,6,1,seventh,9,21,Male,R,Donders,2021-07-18_13h48.40.997,ImageRatingTask_S5,2021.1.4,Win32,59.24521595,,,,,,,,,,,,,,,,,
,,,,,,,,,,,,0,7,7,7,1,last,9,21,Male,R,Donders,2021-07-18_13h48.40.997,ImageRatingTask_S5,2021.1.4,Win32,59.24521595,,,,,,,,,,,,,,,,,
,,,,,,,,,,,,,,,,,,9,21,Male,R,Donders,2021-07-18_13h48.40.997,ImageRatingTask_S5,2021.1.4,Win32,59.24521595,0,57,57,121,1,DreamStudyImages_rs1000x750g/Houses/Landscapes_059_v.jpg,,,,,,,,,,,
,,8,3.4069,1,0.1232,7,1.3105,2,1.4718,6,0.8597,0,0,0,0,1,main,9,21,Male,R,Donders,2021-07-18_13h48.40.997,ImageRatingTask_S5,2021.1.4,Win32,59.24521595,,,,,,,,,,,,,,,,,
,,,,,,,,,,8,0.2321,0,1,1,1,1,second,9,21,Male,R,Donders,2021-07-18_13h48.40.997,ImageRatingTask_S5,2021.1.4,Win32,59.24521595,,,,,,,,,,,,,,,,,
,,,,,,,,,,,,0,2,2,2,1,third,9,21,Male,R,Donders,2021-07-18_13h48.40.997,ImageRatingTask_S5,2021.1.4,Win32,59.24521595,,,,,,,,,,,,,,,,,
,,,,,,,,,,,,0,3,3,3,1,fourth,9,21,Male,R,Donders,2021-07-18_13h48.40.997,ImageRatingTask_S5,2021.1.4,Win32,59.24521595,,,,,,,,,,,,,,,,,
,,,,,,,,,,,,0,4,4,4,1,fifth,9,21,Male,R,Donders,2021-07-18_13h48.40.997,ImageRatingTask_S5,2021.1.4,Win32,59.24521595,,,,,,,,,,,,,,,,,
,,,,,,,,,,,,0,5,5,5,1,sixth,9,21,Male,R,Donders,2021-07-18_13h48.40.997,ImageRatingTask_S5,2021.1.4,Win32,59.24521595,,,,,,,,,,,,,,,,,
,,,,,,,,,,,,0,6,6,6,1,seventh,9,21,Male,R,Donders,2021-07-18_13h48.40.997,ImageRatingTask_S5,2021.1.4,Win32,59.24521595,,,,,,,,,,,,,,,,,
,,,,,,,,,,,,0,7,7,7,1,last,9,21,Male,R,Donders,2021-07-18_13h48.40.997,ImageRatingTask_S5,2021.1.4,Win32,59.24521595,,,,,,,,,,,,,,,,,
,,,,,,,,,,,,,,,,,,9,21,Male,R,Donders,2021-07-18_13h48.40.997,ImageRatingTask_S5,2021.1.4,Win32,59.24521595,0,58,58,10,1,DreamStudyImages_rs1000x750g/Water/sydneyopera.jpg,,,,,,,,,,,
,,6,4.7077,1,0.5925,2,0.2042,1,1.3343,7,0.2115,0,0,0,0,1,main,9,21,Male,R,Donders,2021-07-18_13h48.40.997,ImageRatingTask_S5,2021.1.4,Win32,59.24521595,,,,,,,,,,,,,,,,,
,,,,,,,,,,,,0,1,1,1,1,second,9,21,Male,R,Donders,2021-07-18_13h48.40.997,ImageRatingTask_S5,2021.1.4,Win32,59.24521595,,,,,,,,,,,,,,,,,
,,,,,,,,,,,,0,2,2,2,1,third,9,21,Male,R,Donders,2021-07-18_13h48.40.997,ImageRatingTask_S5,2021.1.4,Win32,59.24521595,,,,,,,,,,,,,,,,,
,,,,,,,,,,,,0,3,3,3,1,fourth,9,21,Male,R,Donders,2021-07-18_13h48.40.997,ImageRatingTask_S5,2021.1.4,Win32,59.24521595,,,,,,,,,,,,,,,,,
,,,,,,,,,,,,0,4,4,4,1,fifth,9,21,Male,R,Donders,2021-07-18_13h48.40.997,ImageRatingTask_S5,2021.1.4,Win32,59.24521595,,,,,,,,,,,,,,,,,
,,,,,,,,,,,,0,5,5,5,1,sixth,9,21,Male,R,Donders,2021-07-18_13h48.40.997,ImageRatingTask_S5,2021.1.4,Win32,59.24521595,,,,,,,,,,,,,,,,,
,,,,,,,,,,,,0,6,6,6,1,seventh,9,21,Male,R,Donders,2021-07-18_13h48.40.997,ImageRatingTask_S5,2021.1.4,Win32,59.24521595,,,,,,,,,,,,,,,,,
,,,,,,,,,,,,0,7,7,7,1,last,9,21,Male,R,Donders,2021-07-18_13h48.40.997,ImageRatingTask_S5,2021.1.4,Win32,59.24521595,,,,,,,,,,,,,,,,,
,,,,,,,,,,,,,,,,,,9,21,Male,R,Donders,2021-07-18_13h48.40.997,ImageRatingTask_S5,2021.1.4,Win32,59.24521595,0,59,59,39,1,DreamStudyImages_rs1000x750g/Vehicles/IAPS7039_train3.jpg,,,,,,,,,,,
,,6,4.9107,1,0.5666,4,1.5779,1,9.5494,1,0.2615,0,0,0,0,1,main,9,21,Male,R,Donders,2021-07-18_13h48.40.997,ImageRatingTask_S5,2021.1.4,Win32,59.24521595,,,,,,,,,,,,,,,,,
,,,,,,,,,,,,0,1,1,1,1,second,9,21,Male,R,Donders,2021-07-18_13h48.40.997,ImageRatingTask_S5,2021.1.4,Win32,59.24521595,,,,,,,,,,,,,,,,,
,,,,,,,,,,,,0,2,2,2,1,third,9,21,Male,R,Donders,2021-07-18_13h48.40.997,ImageRatingTask_S5,2021.1.4,Win32,59.24521595,,,,,,,,,,,,,,,,,
,,,,,,,,,,,,0,3,3,3,1,fourth,9,21,Male,R,Donders,2021-07-18_13h48.40.997,ImageRatingTask_S5,2021.1.4,Win32,59.24521595,,,,,,,,,,,,,,,,,
,,,,,,,,,,,,0,4,4,4,1,fifth,9,21,Male,R,Donders,2021-07-18_13h48.40.997,ImageRatingTask_S5,2021.1.4,Win32,59.24521595,,,,,,,,,,,,,,,,,
,,,,,,,,,,,,0,5,5,5,1,sixth,9,21,Male,R,Donders,2021-07-18_13h48.40.997,ImageRatingTask_S5,2021.1.4,Win32,59.24521595,,,,,,,,,,,,,,,,,
,,,,,,,,,,,,0,6,6,6,1,seventh,9,21,Male,R,Donders,2021-07-18_13h48.40.997,ImageRatingTask_S5,2021.1.4,Win32,59.24521595,,,,,,,,,,,,,,,,,
,,,,,,,,,,,,0,7,7,7,1,last,9,21,Male,R,Donders,2021-07-18_13h48.40.997,ImageRatingTask_S5,2021.1.4,Win32,59.24521595,,,,,,,,,,,,,,,,,
,,,,,,,,,,,,,,,,,,9,21,Male,R,Donders,2021-07-18_13h48.40.997,ImageRatingTask_S5,2021.1.4,Win32,59.24521595,0,60,60,108,1,DreamStudyImages_rs1000x750g/Children/Faces_042_h.jpg,,,,,,,,,,,
,,6,3.2447,1,0.5303,3,0.4161,1,0.9674,3,0.1435,0,0,0,0,1,main,9,21,Male,R,Donders,2021-07-18_13h48.40.997,ImageRatingTask_S5,2021.1.4,Win32,59.24521595,,,,,,,,,,,,,,,,,
,,,,,,,,,,,,0,1,1,1,1,second,9,21,Male,R,Donders,2021-07-18_13h48.40.997,ImageRatingTask_S5,2021.1.4,Win32,59.24521595,,,,,,,,,,,,,,,,,
,,,,,,,,,,,,0,2,2,2,1,third,9,21,Male,R,Donders,2021-07-18_13h48.40.997,ImageRatingTask_S5,2021.1.4,Win32,59.24521595,,,,,,,,,,,,,,,,,
,,,,,,,,,,,,0,3,3,3,1,fourth,9,21,Male,R,Donders,2021-07-18_13h48.40.997,ImageRatingTask_S5,2021.1.4,Win32,59.24521595,,,,,,,,,,,,,,,,,
,,,,,,,,,,,,0,4,4,4,1,fifth,9,21,Male,R,Donders,2021-07-18_13h48.40.997,ImageRatingTask_S5,2021.1.4,Win32,59.24521595,,,,,,,,,,,,,,,,,
,,,,,,,,,,,,0,5,5,5,1,sixth,9,21,Male,R,Donders,2021-07-18_13h48.40.997,ImageRatingTask_S5,2021.1.4,Win32,59.24521595,,,,,,,,,,,,,,,,,
,,,,,,,,,,,,0,6,6,6,1,seventh,9,21,Male,R,Donders,2021-07-18_13h48.40.997,ImageRatingTask_S5,2021.1.4,Win32,59.24521595,,,,,,,,,,,,,,,,,
,,,,,,,,,,,,0,7,7,7,1,last,9,21,Male,R,Donders,2021-07-18_13h48.40.997,ImageRatingTask_S5,2021.1.4,Win32,59.24521595,,,,,,,,,,,,,,,,,
,,,,,,,,,,,,,,,,,,9,21,Male,R,Donders,2021-07-18_13h48.40.997,ImageRatingTask_S5,2021.1.4,Win32,59.24521595,0,61,61,0,1,DreamStudyImages_rs1000x750g/Mammals/IAPS1640_fox.jpg,,,,,,,,,,,
,,6,2.2405,1,0.5639,6,1.4915,1,1.4691,3,0.1926,0,0,0,0,1,main,9,21,Male,R,Donders,2021-07-18_13h48.40.997,ImageRatingTask_S5,2021.1.4,Win32,59.24521595,,,,,,,,,,,,,,,,,
,,,,,,,,,,,,0,1,1,1,1,second,9,21,Male,R,Donders,2021-07-18_13h48.40.997,ImageRatingTask_S5,2021.1.4,Win32,59.24521595,,,,,,,,,,,,,,,,,
,,,,,,,,,,,,0,2,2,2,1,third,9,21,Male,R,Donders,2021-07-18_13h48.40.997,ImageRatingTask_S5,2021.1.4,Win32,59.24521595,,,,,,,,,,,,,,,,,
,,,,,,,,,,,,0,3,3,3,1,fourth,9,21,Male,R,Donders,2021-07-18_13h48.40.997,ImageRatingTask_S5,2021.1.4,Win32,59.24521595,,,,,,,,,,,,,,,,,
,,,,,,,,,,,,0,4,4,4,1,fifth,9,21,Male,R,Donders,2021-07-18_13h48.40.997,ImageRatingTask_S5,2021.1.4,Win32,59.24521595,,,,,,,,,,,,,,,,,
,,,,,,,,,,,,0,5,5,5,1,sixth,9,21,Male,R,Donders,2021-07-18_13h48.40.997,ImageRatingTask_S5,2021.1.4,Win32,59.24521595,,,,,,,,,,,,,,,,,
,,,,,,,,,,,,0,6,6,6,1,seventh,9,21,Male,R,Donders,2021-07-18_13h48.40.997,ImageRatingTask_S5,2021.1.4,Win32,59.24521595,,,,,,,,,,,,,,,,,
,,,,,,,,,,,,0,7,7,7,1,last,9,21,Male,R,Donders,2021-07-18_13h48.40.997,ImageRatingTask_S5,2021.1.4,Win32,59.24521595,,,,,,,,,,,,,,,,,
,,,,,,,,,,,,,,,,,,9,21,Male,R,Donders,2021-07-18_13h48.40.997,ImageRatingTask_S5,2021.1.4,Win32,59.24521595,0,62,62,65,1,DreamStudyImages_rs1000x750g/Mammals/Scared cat 1.jpg,,,,,,,,,,,
,,6,2.8923,1,0.3981,7,1.811,1,2.1668,3,0.1553,0,0,0,0,1,main,9,21,Male,R,Donders,2021-07-18_13h48.40.997,ImageRatingTask_S5,2021.1.4,Win32,59.24521595,,,,,,,,,,,,,,,,,
,,,,,,,,,,,,0,1,1,1,1,second,9,21,Male,R,Donders,2021-07-18_13h48.40.997,ImageRatingTask_S5,2021.1.4,Win32,59.24521595,,,,,,,,,,,,,,,,,
,,,,,,,,,,,,0,2,2,2,1,third,9,21,Male,R,Donders,2021-07-18_13h48.40.997,ImageRatingTask_S5,2021.1.4,Win32,59.24521595,,,,,,,,,,,,,,,,,
,,,,,,,,,,,,0,3,3,3,1,fourth,9,21,Male,R,Donders,2021-07-18_13h48.40.997,ImageRatingTask_S5,2021.1.4,Win32,59.24521595,,,,,,,,,,,,,,,,,
,,,,,,,,,,,,0,4,4,4,1,fifth,9,21,Male,R,Donders,2021-07-18_13h48.40.997,ImageRatingTask_S5,2021.1.4,Win32,59.24521595,,,,,,,,,,,,,,,,,
,,,,,,,,,,,,0,5,5,5,1,sixth,9,21,Male,R,Donders,2021-07-18_13h48.40.997,ImageRatingTask_S5,2021.1.4,Win32,59.24521595,,,,,,,,,,,,,,,,,
,,,,,,,,,,,,0,6,6,6,1,seventh,9,21,Male,R,Donders,2021-07-18_13h48.40.997,ImageRatingTask_S5,2021.1.4,Win32,59.24521595,,,,,,,,,,,,,,,,,
,,,,,,,,,,,,0,7,7,7,1,last,9,21,Male,R,Donders,2021-07-18_13h48.40.997,ImageRatingTask_S5,2021.1.4,Win32,59.24521595,,,,,,,,,,,,,,,,,
,,,,,,,,,,,,,,,,,,9,21,Male,R,Donders,2021-07-18_13h48.40.997,ImageRatingTask_S5,2021.1.4,Win32,59.24521595,0,63,63,19,1,DreamStudyImages_rs1000x750g/Mammals/Animals_124_v.jpg,,,,,,,,,,,
,,3,2.0344,7,0.6856,3,2.2699,1,0.7514,2,0.1469,0,0,0,0,1,main,9,21,Male,R,Donders,2021-07-18_13h48.40.997,ImageRatingTask_S5,2021.1.4,Win32,59.24521595,,,,,,,,,,,,,,,,,
,,,,,,,,,,,,0,1,1,1,1,second,9,21,Male,R,Donders,2021-07-18_13h48.40.997,ImageRatingTask_S5,2021.1.4,Win32,59.24521595,,,,,,,,,,,,,,,,,
,,,,,,,,,,,,0,2,2,2,1,third,9,21,Male,R,Donders,2021-07-18_13h48.40.997,ImageRatingTask_S5,2021.1.4,Win32,59.24521595,,,,,,,,,,,,,,,,,
,,,,,,,,,,,,0,3,3,3,1,fourth,9,21,Male,R,Donders,2021-07-18_13h48.40.997,ImageRatingTask_S5,2021.1.4,Win32,59.24521595,,,,,,,,,,,,,,,,,
,,,,,,,,,,,,0,4,4,4,1,fifth,9,21,Male,R,Donders,2021-07-18_13h48.40.997,ImageRatingTask_S5,2021.1.4,Win32,59.24521595,,,,,,,,,,,,,,,,,
,,,,,,,,,,,,0,5,5,5,1,sixth,9,21,Male,R,Donders,2021-07-18_13h48.40.997,ImageRatingTask_S5,2021.1.4,Win32,59.24521595,,,,,,,,,,,,,,,,,
,,,,,,,,,,,,0,6,6,6,1,seventh,9,21,Male,R,Donders,2021-07-18_13h48.40.997,ImageRatingTask_S5,2021.1.4,Win32,59.24521595,,,,,,,,,,,,,,,,,
,,,,,,,,,,,,0,7,7,7,1,last,9,21,Male,R,Donders,2021-07-18_13h48.40.997,ImageRatingTask_S5,2021.1.4,Win32,59.24521595,,,,,,,,,,,,,,,,,
,,,,,,,,,,,,,,,,,,9,21,Male,R,Donders,2021-07-18_13h48.40.997,ImageRatingTask_S5,2021.1.4,Win32,59.24521595,0,64,64,115,1,DreamStudyImages_rs1000x750g/Children/Sad face 9.jpg,,,,,,,,,,,
,,7,3.7075,1,0.4823,3,0.2406,1,4.4145,8,0.1703,0,0,0,0,1,main,9,21,Male,R,Donders,2021-07-18_13h48.40.997,ImageRatingTask_S5,2021.1.4,Win32,59.24521595,,,,,,,,,,,,,,,,,
,,,,,,,,,,,,0,1,1,1,1,second,9,21,Male,R,Donders,2021-07-18_13h48.40.997,ImageRatingTask_S5,2021.1.4,Win32,59.24521595,,,,,,,,,,,,,,,,,
,,,,,,,,,,,,0,2,2,2,1,third,9,21,Male,R,Donders,2021-07-18_13h48.40.997,ImageRatingTask_S5,2021.1.4,Win32,59.24521595,,,,,,,,,,,,,,,,,
,,,,,,,,,,,,0,3,3,3,1,fourth,9,21,Male,R,Donders,2021-07-18_13h48.40.997,ImageRatingTask_S5,2021.1.4,Win32,59.24521595,,,,,,,,,,,,,,,,,
,,,,,,,,,,,,0,4,4,4,1,fifth,9,21,Male,R,Donders,2021-07-18_13h48.40.997,ImageRatingTask_S5,2021.1.4,Win32,59.24521595,,,,,,,,,,,,,,,,,
,,,,,,,,,,,,0,5,5,5,1,sixth,9,21,Male,R,Donders,2021-07-18_13h48.40.997,ImageRatingTask_S5,2021.1.4,Win32,59.24521595,,,,,,,,,,,,,,,,,
,,,,,,,,,,,,0,6,6,6,1,seventh,9,21,Male,R,Donders,2021-07-18_13h48.40.997,ImageRatingTask_S5,2021.1.4,Win32,59.24521595,,,,,,,,,,,,,,,,,
,,,,,,,,,,,,0,7,7,7,1,last,9,21,Male,R,Donders,2021-07-18_13h48.40.997,ImageRatingTask_S5,2021.1.4,Win32,59.24521595,,,,,,,,,,,,,,,,,
,,,,,,,,,,,,,,,,,,9,21,Male,R,Donders,2021-07-18_13h48.40.997,ImageRatingTask_S5,2021.1.4,Win32,59.24521595,0,65,65,54,1,DreamStudyImages_rs1000x750g/Water/IAPS7492_mountainlake_CROPPED.jpg,,,,,,,,,,,
,,7,1.8262,1,0.4574,4,3.3908,1,1.2651,6,0.066,0,0,0,0,1,main,9,21,Male,R,Donders,2021-07-18_13h48.40.997,ImageRatingTask_S5,2021.1.4,Win32,59.24521595,,,,,,,,,,,,,,,,,
,,,,,,,,,,,,0,1,1,1,1,second,9,21,Male,R,Donders,2021-07-18_13h48.40.997,ImageRatingTask_S5,2021.1.4,Win32,59.24521595,,,,,,,,,,,,,,,,,
,,,,,,,,,,,,0,2,2,2,1,third,9,21,Male,R,Donders,2021-07-18_13h48.40.997,ImageRatingTask_S5,2021.1.4,Win32,59.24521595,,,,,,,,,,,,,,,,,
,,,,,,,,,,,,0,3,3,3,1,fourth,9,21,Male,R,Donders,2021-07-18_13h48.40.997,ImageRatingTask_S5,2021.1.4,Win32,59.24521595,,,,,,,,,,,,,,,,,
,,,,,,,,,,,,0,4,4,4,1,fifth,9,21,Male,R,Donders,2021-07-18_13h48.40.997,ImageRatingTask_S5,2021.1.4,Win32,59.24521595,,,,,,,,,,,,,,,,,
,,,,,,,,,,,,0,5,5,5,1,sixth,9,21,Male,R,Donders,2021-07-18_13h48.40.997,ImageRatingTask_S5,2021.1.4,Win32,59.24521595,,,,,,,,,,,,,,,,,
,,,,,,,,,,,,0,6,6,6,1,seventh,9,21,Male,R,Donders,2021-07-18_13h48.40.997,ImageRatingTask_S5,2021.1.4,Win32,59.24521595,,,,,,,,,,,,,,,,,
,,,,,,,,,,,,0,7,7,7,1,last,9,21,Male,R,Donders,2021-07-18_13h48.40.997,ImageRatingTask_S5,2021.1.4,Win32,59.24521595,,,,,,,,,,,,,,,,,
,,,,,,,,,,,,,,,,,,9,21,Male,R,Donders,2021-07-18_13h48.40.997,ImageRatingTask_S5,2021.1.4,Win32,59.24521595,0,66,66,147,1,DreamStudyImages_rs1000x750g/Houses/IAPS7491_bunker.jpg,,,,,,,,,,,
,,6,4.1289,1,0.7117,7,3.5515,1,2.0968,7,0.1135,0,0,0,0,1,main,9,21,Male,R,Donders,2021-07-18_13h48.40.997,ImageRatingTask_S5,2021.1.4,Win32,59.24521595,,,,,,,,,,,,,,,,,
,,,,,,,,,,,,0,1,1,1,1,second,9,21,Male,R,Donders,2021-07-18_13h48.40.997,ImageRatingTask_S5,2021.1.4,Win32,59.24521595,,,,,,,,,,,,,,,,,
,,,,,,,,,,,,0,2,2,2,1,third,9,21,Male,R,Donders,2021-07-18_13h48.40.997,ImageRatingTask_S5,2021.1.4,Win32,59.24521595,,,,,,,,,,,,,,,,,
,,,,,,,,,,,,0,3,3,3,1,fourth,9,21,Male,R,Donders,2021-07-18_13h48.40.997,ImageRatingTask_S5,2021.1.4,Win32,59.24521595,,,,,,,,,,,,,,,,,
,,,,,,,,,,,,0,4,4,4,1,fifth,9,21,Male,R,Donders,2021-07-18_13h48.40.997,ImageRatingTask_S5,2021.1.4,Win32,59.24521595,,,,,,,,,,,,,,,,,
,,,,,,,,,,,,0,5,5,5,1,sixth,9,21,Male,R,Donders,2021-07-18_13h48.40.997,ImageRatingTask_S5,2021.1.4,Win32,59.24521595,,,,,,,,,,,,,,,,,
,,,,,,,,,,,,0,6,6,6,1,seventh,9,21,Male,R,Donders,2021-07-18_13h48.40.997,ImageRatingTask_S5,2021.1.4,Win32,59.24521595,,,,,,,,,,,,,,,,,
,,,,,,,,,,,,0,7,7,7,1,last,9,21,Male,R,Donders,2021-07-18_13h48.40.997,ImageRatingTask_S5,2021.1.4,Win32,59.24521595,,,,,,,,,,,,,,,,,
,,,,,,,,,,,,,,,,,,9,21,Male,R,Donders,2021-07-18_13h48.40.997,ImageRatingTask_S5,2021.1.4,Win32,59.24521595,0,67,67,72,1,DreamStudyImages_rs1000x750g/Vehicles/vanfleet.jpg,,,,,,,,,,,
,,2,20.4478,7,0.8758,4,1.4395,7,5.0894,2,3.4649,0,0,0,0,1,main,9,21,Male,R,Donders,2021-07-18_13h48.40.997,ImageRatingTask_S5,2021.1.4,Win32,59.24521595,,,,,,,,,,,,,,,,,
,,,,,,,,,,2,0.2842,0,1,1,1,1,second,9,21,Male,R,Donders,2021-07-18_13h48.40.997,ImageRatingTask_S5,2021.1.4,Win32,59.24521595,,,,,,,,,,,,,,,,,
,,,,,,,,,,2,0.1054,0,2,2,2,1,third,9,21,Male,R,Donders,2021-07-18_13h48.40.997,ImageRatingTask_S5,2021.1.4,Win32,59.24521595,,,,,,,,,,,,,,,,,
,,,,,,,,,,2,0.1385,0,3,3,3,1,fourth,9,21,Male,R,Donders,2021-07-18_13h48.40.997,ImageRatingTask_S5,2021.1.4,Win32,59.24521595,,,,,,,,,,,,,,,,,
,,,,,,,,,,2,0.1268,0,4,4,4,1,fifth,9,21,Male,R,Donders,2021-07-18_13h48.40.997,ImageRatingTask_S5,2021.1.4,Win32,59.24521595,,,,,,,,,,,,,,,,,
,,,,,,,,,,2,0.1326,0,5,5,5,1,sixth,9,21,Male,R,Donders,2021-07-18_13h48.40.997,ImageRatingTask_S5,2021.1.4,Win32,59.24521595,,,,,,,,,,,,,,,,,
,,,,,,,,,,2,0.1511,0,6,6,6,1,seventh,9,21,Male,R,Donders,2021-07-18_13h48.40.997,ImageRatingTask_S5,2021.1.4,Win32,59.24521595,,,,,,,,,,,,,,,,,
,,,,,,,,,,,,0,7,7,7,1,last,9,21,Male,R,Donders,2021-07-18_13h48.40.997,ImageRatingTask_S5,2021.1.4,Win32,59.24521595,,,,,,,,,,,,,,,,,
,,,,,,,,,,,,,,,,,,9,21,Male,R,Donders,2021-07-18_13h48.40.997,ImageRatingTask_S5,2021.1.4,Win32,59.24521595,0,68,68,55,1,DreamStudyImages_rs1000x750g/Children/IAPS2301_boy5.jpg,,,,,,,,,,,
,,4,4.209,1,0.6552,3,1.1984,1,1.2164,7,0.4337,0,0,0,0,1,main,9,21,Male,R,Donders,2021-07-18_13h48.40.997,ImageRatingTask_S5,2021.1.4,Win32,59.24521595,,,,,,,,,,,,,,,,,
,,,,,,,,,,,,0,1,1,1,1,second,9,21,Male,R,Donders,2021-07-18_13h48.40.997,ImageRatingTask_S5,2021.1.4,Win32,59.24521595,,,,,,,,,,,,,,,,,
,,,,,,,,,,,,0,2,2,2,1,third,9,21,Male,R,Donders,2021-07-18_13h48.40.997,ImageRatingTask_S5,2021.1.4,Win32,59.24521595,,,,,,,,,,,,,,,,,
,,,,,,,,,,,,0,3,3,3,1,fourth,9,21,Male,R,Donders,2021-07-18_13h48.40.997,ImageRatingTask_S5,2021.1.4,Win32,59.24521595,,,,,,,,,,,,,,,,,
,,,,,,,,,,,,0,4,4,4,1,fifth,9,21,Male,R,Donders,2021-07-18_13h48.40.997,ImageRatingTask_S5,2021.1.4,Win32,59.24521595,,,,,,,,,,,,,,,,,
,,,,,,,,,,,,0,5,5,5,1,sixth,9,21,Male,R,Donders,2021-07-18_13h48.40.997,ImageRatingTask_S5,2021.1.4,Win32,59.24521595,,,,,,,,,,,,,,,,,
,,,,,,,,,,,,0,6,6,6,1,seventh,9,21,Male,R,Donders,2021-07-18_13h48.40.997,ImageRatingTask_S5,2021.1.4,Win32,59.24521595,,,,,,,,,,,,,,,,,
,,,,,,,,,,,,0,7,7,7,1,last,9,21,Male,R,Donders,2021-07-18_13h48.40.997,ImageRatingTask_S5,2021.1.4,Win32,59.24521595,,,,,,,,,,,,,,,,,
,,,,,,,,,,,,,,,,,,9,21,Male,R,Donders,2021-07-18_13h48.40.997,ImageRatingTask_S5,2021.1.4,Win32,59.24521595,0,69,69,78,1,DreamStudyImages_rs1000x750g/Vehicles/IAPS7095_carlight.jpg,,,,,,,,,,,
,,7,5.7066,1,0.3417,6,1.4356,1,1.4251,8,0.1332,0,0,0,0,1,main,9,21,Male,R,Donders,2021-07-18_13h48.40.997,ImageRatingTask_S5,2021.1.4,Win32,59.24521595,,,,,,,,,,,,,,,,,
,,,,,,,,,,,,0,1,1,1,1,second,9,21,Male,R,Donders,2021-07-18_13h48.40.997,ImageRatingTask_S5,2021.1.4,Win32,59.24521595,,,,,,,,,,,,,,,,,
,,,,,,,,,,,,0,2,2,2,1,third,9,21,Male,R,Donders,2021-07-18_13h48.40.997,ImageRatingTask_S5,2021.1.4,Win32,59.24521595,,,,,,,,,,,,,,,,,
,,,,,,,,,,,,0,3,3,3,1,fourth,9,21,Male,R,Donders,2021-07-18_13h48.40.997,ImageRatingTask_S5,2021.1.4,Win32,59.24521595,,,,,,,,,,,,,,,,,
,,,,,,,,,,,,0,4,4,4,1,fifth,9,21,Male,R,Donders,2021-07-18_13h48.40.997,ImageRatingTask_S5,2021.1.4,Win32,59.24521595,,,,,,,,,,,,,,,,,
,,,,,,,,,,,,0,5,5,5,1,sixth,9,21,Male,R,Donders,2021-07-18_13h48.40.997,ImageRatingTask_S5,2021.1.4,Win32,59.24521595,,,,,,,,,,,,,,,,,
,,,,,,,,,,,,0,6,6,6,1,seventh,9,21,Male,R,Donders,2021-07-18_13h48.40.997,ImageRatingTask_S5,2021.1.4,Win32,59.24521595,,,,,,,,,,,,,,,,,
,,,,,,,,,,,,0,7,7,7,1,last,9,21,Male,R,Donders,2021-07-18_13h48.40.997,ImageRatingTask_S5,2021.1.4,Win32,59.24521595,,,,,,,,,,,,,,,,,
,,,,,,,,,,,,,,,,,,9,21,Male,R,Donders,2021-07-18_13h48.40.997,ImageRatingTask_S5,2021.1.4,Win32,59.24521595,0,70,70,64,1,DreamStudyImages_rs1000x750g/Water/97.jpg,,,,,,,,,,,
,,6,41.4356,1,0.4904,4,1.6821,1,2.1085,2,0.1254,0,0,0,0,1,main,9,21,Male,R,Donders,2021-07-18_13h48.40.997,ImageRatingTask_S5,2021.1.4,Win32,59.24521595,,,,,,,,,,,,,,,,,
,,,,,,,,,,,,0,1,1,1,1,second,9,21,Male,R,Donders,2021-07-18_13h48.40.997,ImageRatingTask_S5,2021.1.4,Win32,59.24521595,,,,,,,,,,,,,,,,,
,,,,,,,,,,,,0,2,2,2,1,third,9,21,Male,R,Donders,2021-07-18_13h48.40.997,ImageRatingTask_S5,2021.1.4,Win32,59.24521595,,,,,,,,,,,,,,,,,
,,,,,,,,,,,,0,3,3,3,1,fourth,9,21,Male,R,Donders,2021-07-18_13h48.40.997,ImageRatingTask_S5,2021.1.4,Win32,59.24521595,,,,,,,,,,,,,,,,,
,,,,,,,,,,,,0,4,4,4,1,fifth,9,21,Male,R,Donders,2021-07-18_13h48.40.997,ImageRatingTask_S5,2021.1.4,Win32,59.24521595,,,,,,,,,,,,,,,,,
,,,,,,,,,,,,0,5,5,5,1,sixth,9,21,Male,R,Donders,2021-07-18_13h48.40.997,ImageRatingTask_S5,2021.1.4,Win32,59.24521595,,,,,,,,,,,,,,,,,
,,,,,,,,,,,,0,6,6,6,1,seventh,9,21,Male,R,Donders,2021-07-18_13h48.40.997,ImageRatingTask_S5,2021.1.4,Win32,59.24521595,,,,,,,,,,,,,,,,,
,,,,,,,,,,,,0,7,7,7,1,last,9,21,Male,R,Donders,2021-07-18_13h48.40.997,ImageRatingTask_S5,2021.1.4,Win32,59.24521595,,,,,,,,,,,,,,,,,
,,,,,,,,,,,,,,,,,,9,21,Male,R,Donders,2021-07-18_13h48.40.997,ImageRatingTask_S5,2021.1.4,Win32,59.24521595,0,71,71,90,1,DreamStudyImages_rs1000x750g/Children/IAPS2075_baby10.jpg,,,,,,,,,,,
,,7,3.5591,1,0.7072,6,2.0092,1,1.4652,8,0.0503,0,0,0,0,1,main,9,21,Male,R,Donders,2021-07-18_13h48.40.997,ImageRatingTask_S5,2021.1.4,Win32,59.24521595,,,,,,,,,,,,,,,,,
,,,,,,,,,,,,0,1,1,1,1,second,9,21,Male,R,Donders,2021-07-18_13h48.40.997,ImageRatingTask_S5,2021.1.4,Win32,59.24521595,,,,,,,,,,,,,,,,,
,,,,,,,,,,,,0,2,2,2,1,third,9,21,Male,R,Donders,2021-07-18_13h48.40.997,ImageRatingTask_S5,2021.1.4,Win32,59.24521595,,,,,,,,,,,,,,,,,
,,,,,,,,,,,,0,3,3,3,1,fourth,9,21,Male,R,Donders,2021-07-18_13h48.40.997,ImageRatingTask_S5,2021.1.4,Win32,59.24521595,,,,,,,,,,,,,,,,,
,,,,,,,,,,,,0,4,4,4,1,fifth,9,21,Male,R,Donders,2021-07-18_13h48.40.997,ImageRatingTask_S5,2021.1.4,Win32,59.24521595,,,,,,,,,,,,,,,,,
,,,,,,,,,,,,0,5,5,5,1,sixth,9,21,Male,R,Donders,2021-07-18_13h48.40.997,ImageRatingTask_S5,2021.1.4,Win32,59.24521595,,,,,,,,,,,,,,,,,
,,,,,,,,,,,,0,6,6,6,1,seventh,9,21,Male,R,Donders,2021-07-18_13h48.40.997,ImageRatingTask_S5,2021.1.4,Win32,59.24521595,,,,,,,,,,,,,,,,,
,,,,,,,,,,,,0,7,7,7,1,last,9,21,Male,R,Donders,2021-07-18_13h48.40.997,ImageRatingTask_S5,2021.1.4,Win32,59.24521595,,,,,,,,,,,,,,,,,
,,,,,,,,,,,,,,,,,,9,21,Male,R,Donders,2021-07-18_13h48.40.997,ImageRatingTask_S5,2021.1.4,Win32,59.24521595,0,72,72,156,1,DreamStudyImages_rs1000x750g/Water/lake_CROPPED.jpg,,,,,,,,,,,
,,7,20.1811,1,0.3039,6,3.8116,1,1.2687,3,0.1442,0,0,0,0,1,main,9,21,Male,R,Donders,2021-07-18_13h48.40.997,ImageRatingTask_S5,2021.1.4,Win32,59.24521595,,,,,,,,,,,,,,,,,
,,,,,,,,,,,,0,1,1,1,1,second,9,21,Male,R,Donders,2021-07-18_13h48.40.997,ImageRatingTask_S5,2021.1.4,Win32,59.24521595,,,,,,,,,,,,,,,,,
,,,,,,,,,,,,0,2,2,2,1,third,9,21,Male,R,Donders,2021-07-18_13h48.40.997,ImageRatingTask_S5,2021.1.4,Win32,59.24521595,,,,,,,,,,,,,,,,,
,,,,,,,,,,,,0,3,3,3,1,fourth,9,21,Male,R,Donders,2021-07-18_13h48.40.997,ImageRatingTask_S5,2021.1.4,Win32,59.24521595,,,,,,,,,,,,,,,,,
,,,,,,,,,,,,0,4,4,4,1,fifth,9,21,Male,R,Donders,2021-07-18_13h48.40.997,ImageRatingTask_S5,2021.1.4,Win32,59.24521595,,,,,,,,,,,,,,,,,
,,,,,,,,,,,,0,5,5,5,1,sixth,9,21,Male,R,Donders,2021-07-18_13h48.40.997,ImageRatingTask_S5,2021.1.4,Win32,59.24521595,,,,,,,,,,,,,,,,,
,,,,,,,,,,,,0,6,6,6,1,seventh,9,21,Male,R,Donders,2021-07-18_13h48.40.997,ImageRatingTask_S5,2021.1.4,Win32,59.24521595,,,,,,,,,,,,,,,,,
,,,,,,,,,,,,0,7,7,7,1,last,9,21,Male,R,Donders,2021-07-18_13h48.40.997,ImageRatingTask_S5,2021.1.4,Win32,59.24521595,,,,,,,,,,,,,,,,,
,,,,,,,,,,,,,,,,,,9,21,Male,R,Donders,2021-07-18_13h48.40.997,ImageRatingTask_S5,2021.1.4,Win32,59.24521595,0,73,73,145,1,DreamStudyImages_rs1000x750g/Mammals/IAPS1721_tiger1.jpg,,,,,,,,,,,
,,6,4.4877,1,0.5819,4,1.33,1,2.7309,3,0.0237,0,0,0,0,1,main,9,21,Male,R,Donders,2021-07-18_13h48.40.997,ImageRatingTask_S5,2021.1.4,Win32,59.24521595,,,,,,,,,,,,,,,,,
,,,,,,,,,,,,0,1,1,1,1,second,9,21,Male,R,Donders,2021-07-18_13h48.40.997,ImageRatingTask_S5,2021.1.4,Win32,59.24521595,,,,,,,,,,,,,,,,,
,,,,,,,,,,,,0,2,2,2,1,third,9,21,Male,R,Donders,2021-07-18_13h48.40.997,ImageRatingTask_S5,2021.1.4,Win32,59.24521595,,,,,,,,,,,,,,,,,
,,,,,,,,,,,,0,3,3,3,1,fourth,9,21,Male,R,Donders,2021-07-18_13h48.40.997,ImageRatingTask_S5,2021.1.4,Win32,59.24521595,,,,,,,,,,,,,,,,,
,,,,,,,,,,,,0,4,4,4,1,fifth,9,21,Male,R,Donders,2021-07-18_13h48.40.997,ImageRatingTask_S5,2021.1.4,Win32,59.24521595,,,,,,,,,,,,,,,,,
,,,,,,,,,,,,0,5,5,5,1,sixth,9,21,Male,R,Donders,2021-07-18_13h48.40.997,ImageRatingTask_S5,2021.1.4,Win32,59.24521595,,,,,,,,,,,,,,,,,
,,,,,,,,,,,,0,6,6,6,1,seventh,9,21,Male,R,Donders,2021-07-18_13h48.40.997,ImageRatingTask_S5,2021.1.4,Win32,59.24521595,,,,,,,,,,,,,,,,,
,,,,,,,,,,,,0,7,7,7,1,last,9,21,Male,R,Donders,2021-07-18_13h48.40.997,ImageRatingTask_S5,2021.1.4,Win32,59.24521595,,,,,,,,,,,,,,,,,
,,,,,,,,,,,,,,,,,,9,21,Male,R,Donders,2021-07-18_13h48.40.997,ImageRatingTask_S5,2021.1.4,Win32,59.24521595,0,74,74,149,1,DreamStudyImages_rs1000x750g/Mammals/Animals_087_h.jpg,,,,,,,,,,,
,,5,6.0973,1,0.3777,6,1.3029,1,0.9182,5,0.1928,0,0,0,0,1,main,9,21,Male,R,Donders,2021-07-18_13h48.40.997,ImageRatingTask_S5,2021.1.4,Win32,59.24521595,,,,,,,,,,,,,,,,,
,,,,,,,,,,,,0,1,1,1,1,second,9,21,Male,R,Donders,2021-07-18_13h48.40.997,ImageRatingTask_S5,2021.1.4,Win32,59.24521595,,,,,,,,,,,,,,,,,
,,,,,,,,,,,,0,2,2,2,1,third,9,21,Male,R,Donders,2021-07-18_13h48.40.997,ImageRatingTask_S5,2021.1.4,Win32,59.24521595,,,,,,,,,,,,,,,,,
,,,,,,,,,,,,0,3,3,3,1,fourth,9,21,Male,R,Donders,2021-07-18_13h48.40.997,ImageRatingTask_S5,2021.1.4,Win32,59.24521595,,,,,,,,,,,,,,,,,
,,,,,,,,,,,,0,4,4,4,1,fifth,9,21,Male,R,Donders,2021-07-18_13h48.40.997,ImageRatingTask_S5,2021.1.4,Win32,59.24521595,,,,,,,,,,,,,,,,,
,,,,,,,,,,,,0,5,5,5,1,sixth,9,21,Male,R,Donders,2021-07-18_13h48.40.997,ImageRatingTask_S5,2021.1.4,Win32,59.24521595,,,,,,,,,,,,,,,,,
,,,,,,,,,,,,0,6,6,6,1,seventh,9,21,Male,R,Donders,2021-07-18_13h48.40.997,ImageRatingTask_S5,2021.1.4,Win32,59.24521595,,,,,,,,,,,,,,,,,
,,,,,,,,,,,,0,7,7,7,1,last,9,21,Male,R,Donders,2021-07-18_13h48.40.997,ImageRatingTask_S5,2021.1.4,Win32,59.24521595,,,,,,,,,,,,,,,,,
,,,,,,,,,,,,,,,,,,9,21,Male,R,Donders,2021-07-18_13h48.40.997,ImageRatingTask_S5,2021.1.4,Win32,59.24521595,0,75,75,111,1,DreamStudyImages_rs1000x750g/Food/Objects_101_h.jpg,,,,,,,,,,,
,,2,3.48,7,1.1505,4,1.6503,1,2.5573,3,0.1513,0,0,0,0,1,main,9,21,Male,R,Donders,2021-07-18_13h48.40.997,ImageRatingTask_S5,2021.1.4,Win32,59.24521595,,,,,,,,,,,,,,,,,
