slider_pre.response,slider_pre.rt,key_val.keys,key_val.rt,key_aro.keys,key_aro.rt,key_qual.keys,key_qual.rt,key_ncat.keys,key_ncat.rt,key_cats.keys,key_cats.rt,ncat_order.thisRepN,ncat_order.thisTrialN,ncat_order.thisN,ncat_order.thisIndex,ncat_order.ran,cond_cat,participant,age,gender,handedness (L/R),site (IMT/Donders),date,expName,psychopyVersion,OS,frameRate,img_trials.thisRepN,img_trials.thisTrialN,img_trials.thisN,img_trials.thisIndex,img_trials.ran,filename,slider_post.response,slider_post.rt,textbox_openfb.text
7,8.078,4,4.473,1,1.0707,7,1.4094,1,1.0239,8,1.1119,0,0,0,0,1,main,9,21,male,R,Donders,2021-07-14_08h40.23.505,ImageRatingTask_S2,2021.1.4,Win32,61.03143119,,,,,,,,,
,,,,,,,,,,,,0,1,1,1,1,second,9,21,male,R,Donders,2021-07-14_08h40.23.505,ImageRatingTask_S2,2021.1.4,Win32,61.03143119,,,,,,,,,
,,,,,,,,,,,,0,2,2,2,1,third,9,21,male,R,Donders,2021-07-14_08h40.23.505,ImageRatingTask_S2,2021.1.4,Win32,61.03143119,,,,,,,,,
,,,,,,,,,,,,0,3,3,3,1,fourth,9,21,male,R,Donders,2021-07-14_08h40.23.505,ImageRatingTask_S2,2021.1.4,Win32,61.03143119,,,,,,,,,
,,,,,,,,,,,,0,4,4,4,1,fifth,9,21,male,R,Donders,2021-07-14_08h40.23.505,ImageRatingTask_S2,2021.1.4,Win32,61.03143119,,,,,,,,,
,,,,,,,,,,,,0,5,5,5,1,sixth,9,21,male,R,Donders,2021-07-14_08h40.23.505,ImageRatingTask_S2,2021.1.4,Win32,61.03143119,,,,,,,,,
,,,,,,,,,,,,0,6,6,6,1,seventh,9,21,male,R,Donders,2021-07-14_08h40.23.505,ImageRatingTask_S2,2021.1.4,Win32,61.03143119,,,,,,,,,
,,,,,,,,,,,,0,7,7,7,1,last,9,21,male,R,Donders,2021-07-14_08h40.23.505,ImageRatingTask_S2,2021.1.4,Win32,61.03143119,,,,,,,,,
,,,,,,,,,,,,,,,,,,9,21,male,R,Donders,2021-07-14_08h40.23.505,ImageRatingTask_S2,2021.1.4,Win32,61.03143119,0,0,0,91,1,DreamStudyImages_rs1000x750g/Water/Landscapes_111_h.jpg,,,
,,2,4.8166,4,0.5568,6,1.5745,1,1.3286,6,0.9302,0,0,0,0,1,main,9,21,male,R,Donders,2021-07-14_08h40.23.505,ImageRatingTask_S2,2021.1.4,Win32,61.03143119,,,,,,,,,
,,,,,,,,,,,,0,1,1,1,1,second,9,21,male,R,Donders,2021-07-14_08h40.23.505,ImageRatingTask_S2,2021.1.4,Win32,61.03143119,,,,,,,,,
,,,,,,,,,,,,0,2,2,2,1,third,9,21,male,R,Donders,2021-07-14_08h40.23.505,ImageRatingTask_S2,2021.1.4,Win32,61.03143119,,,,,,,,,
,,,,,,,,,,,,0,3,3,3,1,fourth,9,21,male,R,Donders,2021-07-14_08h40.23.505,ImageRatingTask_S2,2021.1.4,Win32,61.03143119,,,,,,,,,
,,,,,,,,,,,,0,4,4,4,1,fifth,9,21,male,R,Donders,2021-07-14_08h40.23.505,ImageRatingTask_S2,2021.1.4,Win32,61.03143119,,,,,,,,,
,,,,,,,,,,,,0,5,5,5,1,sixth,9,21,male,R,Donders,2021-07-14_08h40.23.505,ImageRatingTask_S2,2021.1.4,Win32,61.03143119,,,,,,,,,
,,,,,,,,,,,,0,6,6,6,1,seventh,9,21,male,R,Donders,2021-07-14_08h40.23.505,ImageRatingTask_S2,2021.1.4,Win32,61.03143119,,,,,,,,,
,,,,,,,,,,,,0,7,7,7,1,last,9,21,male,R,Donders,2021-07-14_08h40.23.505,ImageRatingTask_S2,2021.1.4,Win32,61.03143119,,,,,,,,,
,,,,,,,,,,,,,,,,,,9,21,male,R,Donders,2021-07-14_08h40.23.505,ImageRatingTask_S2,2021.1.4,Win32,61.03143119,0,1,1,111,1,DreamStudyImages_rs1000x750g/Houses/Landscapes_039_v.jpg,,,
,,6,3.281,1,0.925,3,2.2937,1,3.9115,5,1.3024,0,0,0,0,1,main,9,21,male,R,Donders,2021-07-14_08h40.23.505,ImageRatingTask_S2,2021.1.4,Win32,61.03143119,,,,,,,,,
,,,,,,,,,,,,0,1,1,1,1,second,9,21,male,R,Donders,2021-07-14_08h40.23.505,ImageRatingTask_S2,2021.1.4,Win32,61.03143119,,,,,,,,,
,,,,,,,,,,,,0,2,2,2,1,third,9,21,male,R,Donders,2021-07-14_08h40.23.505,ImageRatingTask_S2,2021.1.4,Win32,61.03143119,,,,,,,,,
,,,,,,,,,,,,0,3,3,3,1,fourth,9,21,male,R,Donders,2021-07-14_08h40.23.505,ImageRatingTask_S2,2021.1.4,Win32,61.03143119,,,,,,,,,
,,,,,,,,,,,,0,4,4,4,1,fifth,9,21,male,R,Donders,2021-07-14_08h40.23.505,ImageRatingTask_S2,2021.1.4,Win32,61.03143119,,,,,,,,,
,,,,,,,,,,,,0,5,5,5,1,sixth,9,21,male,R,Donders,2021-07-14_08h40.23.505,ImageRatingTask_S2,2021.1.4,Win32,61.03143119,,,,,,,,,
,,,,,,,,,,,,0,6,6,6,1,seventh,9,21,male,R,Donders,2021-07-14_08h40.23.505,ImageRatingTask_S2,2021.1.4,Win32,61.03143119,,,,,,,,,
,,,,,,,,,,,,0,7,7,7,1,last,9,21,male,R,Donders,2021-07-14_08h40.23.505,ImageRatingTask_S2,2021.1.4,Win32,61.03143119,,,,,,,,,
,,,,,,,,,,,,,,,,,,9,21,male,R,Donders,2021-07-14_08h40.23.505,ImageRatingTask_S2,2021.1.4,Win32,61.03143119,0,2,2,151,1,DreamStudyImages_rs1000x750g/Food/IAPS7430_chocolate3.jpg,,,
,,1,2.446,7,0.5875,5,1.8753,1,1.5713,3,0.7635,0,0,0,0,1,main,9,21,male,R,Donders,2021-07-14_08h40.23.505,ImageRatingTask_S2,2021.1.4,Win32,61.03143119,,,,,,,,,
,,,,,,,,,,,,0,1,1,1,1,second,9,21,male,R,Donders,2021-07-14_08h40.23.505,ImageRatingTask_S2,2021.1.4,Win32,61.03143119,,,,,,,,,
,,,,,,,,,,,,0,2,2,2,1,third,9,21,male,R,Donders,2021-07-14_08h40.23.505,ImageRatingTask_S2,2021.1.4,Win32,61.03143119,,,,,,,,,
,,,,,,,,,,,,0,3,3,3,1,fourth,9,21,male,R,Donders,2021-07-14_08h40.23.505,ImageRatingTask_S2,2021.1.4,Win32,61.03143119,,,,,,,,,
,,,,,,,,,,,,0,4,4,4,1,fifth,9,21,male,R,Donders,2021-07-14_08h40.23.505,ImageRatingTask_S2,2021.1.4,Win32,61.03143119,,,,,,,,,
,,,,,,,,,,,,0,5,5,5,1,sixth,9,21,male,R,Donders,2021-07-14_08h40.23.505,ImageRatingTask_S2,2021.1.4,Win32,61.03143119,,,,,,,,,
,,,,,,,,,,,,0,6,6,6,1,seventh,9,21,male,R,Donders,2021-07-14_08h40.23.505,ImageRatingTask_S2,2021.1.4,Win32,61.03143119,,,,,,,,,
,,,,,,,,,,,,0,7,7,7,1,last,9,21,male,R,Donders,2021-07-14_08h40.23.505,ImageRatingTask_S2,2021.1.4,Win32,61.03143119,,,,,,,,,
,,,,,,,,,,,,,,,,,,9,21,male,R,Donders,2021-07-14_08h40.23.505,ImageRatingTask_S2,2021.1.4,Win32,61.03143119,0,3,3,158,1,DreamStudyImages_rs1000x750g/Mammals/Animals_019_h.jpg,,,
,,6,2.7101,1,0.9473,6,3.1187,1,1.1304,6,1.3189,0,0,0,0,1,main,9,21,male,R,Donders,2021-07-14_08h40.23.505,ImageRatingTask_S2,2021.1.4,Win32,61.03143119,,,,,,,,,
,,,,,,,,,,,,0,1,1,1,1,second,9,21,male,R,Donders,2021-07-14_08h40.23.505,ImageRatingTask_S2,2021.1.4,Win32,61.03143119,,,,,,,,,
,,,,,,,,,,,,0,2,2,2,1,third,9,21,male,R,Donders,2021-07-14_08h40.23.505,ImageRatingTask_S2,2021.1.4,Win32,61.03143119,,,,,,,,,
,,,,,,,,,,,,0,3,3,3,1,fourth,9,21,male,R,Donders,2021-07-14_08h40.23.505,ImageRatingTask_S2,2021.1.4,Win32,61.03143119,,,,,,,,,
,,,,,,,,,,,,0,4,4,4,1,fifth,9,21,male,R,Donders,2021-07-14_08h40.23.505,ImageRatingTask_S2,2021.1.4,Win32,61.03143119,,,,,,,,,
,,,,,,,,,,,,0,5,5,5,1,sixth,9,21,male,R,Donders,2021-07-14_08h40.23.505,ImageRatingTask_S2,2021.1.4,Win32,61.03143119,,,,,,,,,
,,,,,,,,,,,,0,6,6,6,1,seventh,9,21,male,R,Donders,2021-07-14_08h40.23.505,ImageRatingTask_S2,2021.1.4,Win32,61.03143119,,,,,,,,,
,,,,,,,,,,,,0,7,7,7,1,last,9,21,male,R,Donders,2021-07-14_08h40.23.505,ImageRatingTask_S2,2021.1.4,Win32,61.03143119,,,,,,,,,
,,,,,,,,,,,,,,,,,,9,21,male,R,Donders,2021-07-14_08h40.23.505,ImageRatingTask_S2,2021.1.4,Win32,61.03143119,0,4,4,39,1,DreamStudyImages_rs1000x750g/Houses/Landscapes_056_h.jpg,,,
,,5,4.43,1,0.8379,2,1.7747,1,5.3305,6,1.0794,0,0,0,0,1,main,9,21,male,R,Donders,2021-07-14_08h40.23.505,ImageRatingTask_S2,2021.1.4,Win32,61.03143119,,,,,,,,,
,,,,,,,,,,,,0,1,1,1,1,second,9,21,male,R,Donders,2021-07-14_08h40.23.505,ImageRatingTask_S2,2021.1.4,Win32,61.03143119,,,,,,,,,
,,,,,,,,,,,,0,2,2,2,1,third,9,21,male,R,Donders,2021-07-14_08h40.23.505,ImageRatingTask_S2,2021.1.4,Win32,61.03143119,,,,,,,,,
,,,,,,,,,,,,0,3,3,3,1,fourth,9,21,male,R,Donders,2021-07-14_08h40.23.505,ImageRatingTask_S2,2021.1.4,Win32,61.03143119,,,,,,,,,
,,,,,,,,,,,,0,4,4,4,1,fifth,9,21,male,R,Donders,2021-07-14_08h40.23.505,ImageRatingTask_S2,2021.1.4,Win32,61.03143119,,,,,,,,,
,,,,,,,,,,,,0,5,5,5,1,sixth,9,21,male,R,Donders,2021-07-14_08h40.23.505,ImageRatingTask_S2,2021.1.4,Win32,61.03143119,,,,,,,,,
,,,,,,,,,,,,0,6,6,6,1,seventh,9,21,male,R,Donders,2021-07-14_08h40.23.505,ImageRatingTask_S2,2021.1.4,Win32,61.03143119,,,,,,,,,
,,,,,,,,,,,,0,7,7,7,1,last,9,21,male,R,Donders,2021-07-14_08h40.23.505,ImageRatingTask_S2,2021.1.4,Win32,61.03143119,,,,,,,,,
,,,,,,,,,,,,,,,,,,9,21,male,R,Donders,2021-07-14_08h40.23.505,ImageRatingTask_S2,2021.1.4,Win32,61.03143119,0,5,5,33,1,DreamStudyImages_rs1000x750g/Houses/IAPS7510_building2.jpg,,,
,,6,4.6413,1,1.1755,6,3.2275,1,1.6287,3,0.9964,0,0,0,0,1,main,9,21,male,R,Donders,2021-07-14_08h40.23.505,ImageRatingTask_S2,2021.1.4,Win32,61.03143119,,,,,,,,,
,,,,,,,,,,,,0,1,1,1,1,second,9,21,male,R,Donders,2021-07-14_08h40.23.505,ImageRatingTask_S2,2021.1.4,Win32,61.03143119,,,,,,,,,
,,,,,,,,,,,,0,2,2,2,1,third,9,21,male,R,Donders,2021-07-14_08h40.23.505,ImageRatingTask_S2,2021.1.4,Win32,61.03143119,,,,,,,,,
,,,,,,,,,,,,0,3,3,3,1,fourth,9,21,male,R,Donders,2021-07-14_08h40.23.505,ImageRatingTask_S2,2021.1.4,Win32,61.03143119,,,,,,,,,
,,,,,,,,,,,,0,4,4,4,1,fifth,9,21,male,R,Donders,2021-07-14_08h40.23.505,ImageRatingTask_S2,2021.1.4,Win32,61.03143119,,,,,,,,,
,,,,,,,,,,,,0,5,5,5,1,sixth,9,21,male,R,Donders,2021-07-14_08h40.23.505,ImageRatingTask_S2,2021.1.4,Win32,61.03143119,,,,,,,,,
,,,,,,,,,,,,0,6,6,6,1,seventh,9,21,male,R,Donders,2021-07-14_08h40.23.505,ImageRatingTask_S2,2021.1.4,Win32,61.03143119,,,,,,,,,
,,,,,,,,,,,,0,7,7,7,1,last,9,21,male,R,Donders,2021-07-14_08h40.23.505,ImageRatingTask_S2,2021.1.4,Win32,61.03143119,,,,,,,,,
,,,,,,,,,,,,,,,,,,9,21,male,R,Donders,2021-07-14_08h40.23.505,ImageRatingTask_S2,2021.1.4,Win32,61.03143119,0,6,6,31,1,DreamStudyImages_rs1000x750g/Mammals/Pig 1.jpg,,,
,,6,28.1321,1,1.1043,6,5.432,1,1.6129,5,1.0141,0,0,0,0,1,main,9,21,male,R,Donders,2021-07-14_08h40.23.505,ImageRatingTask_S2,2021.1.4,Win32,61.03143119,,,,,,,,,
,,,,,,,,,,,,0,1,1,1,1,second,9,21,male,R,Donders,2021-07-14_08h40.23.505,ImageRatingTask_S2,2021.1.4,Win32,61.03143119,,,,,,,,,
,,,,,,,,,,,,0,2,2,2,1,third,9,21,male,R,Donders,2021-07-14_08h40.23.505,ImageRatingTask_S2,2021.1.4,Win32,61.03143119,,,,,,,,,
,,,,,,,,,,,,0,3,3,3,1,fourth,9,21,male,R,Donders,2021-07-14_08h40.23.505,ImageRatingTask_S2,2021.1.4,Win32,61.03143119,,,,,,,,,
,,,,,,,,,,,,0,4,4,4,1,fifth,9,21,male,R,Donders,2021-07-14_08h40.23.505,ImageRatingTask_S2,2021.1.4,Win32,61.03143119,,,,,,,,,
,,,,,,,,,,,,0,5,5,5,1,sixth,9,21,male,R,Donders,2021-07-14_08h40.23.505,ImageRatingTask_S2,2021.1.4,Win32,61.03143119,,,,,,,,,
,,,,,,,,,,,,0,6,6,6,1,seventh,9,21,male,R,Donders,2021-07-14_08h40.23.505,ImageRatingTask_S2,2021.1.4,Win32,61.03143119,,,,,,,,,
,,,,,,,,,,,,0,7,7,7,1,last,9,21,male,R,Donders,2021-07-14_08h40.23.505,ImageRatingTask_S2,2021.1.4,Win32,61.03143119,,,,,,,,,
,,,,,,,,,,,,,,,,,,9,21,male,R,Donders,2021-07-14_08h40.23.505,ImageRatingTask_S2,2021.1.4,Win32,61.03143119,0,7,7,22,1,DreamStudyImages_rs1000x750g/Food/Objects_054_h.jpg,,,
,,7,3.6708,2,1.4311,4,1.7273,1,1.1395,5,0.7208,0,0,0,0,1,main,9,21,male,R,Donders,2021-07-14_08h40.23.505,ImageRatingTask_S2,2021.1.4,Win32,61.03143119,,,,,,,,,
,,,,,,,,,,,,0,1,1,1,1,second,9,21,male,R,Donders,2021-07-14_08h40.23.505,ImageRatingTask_S2,2021.1.4,Win32,61.03143119,,,,,,,,,
,,,,,,,,,,,,0,2,2,2,1,third,9,21,male,R,Donders,2021-07-14_08h40.23.505,ImageRatingTask_S2,2021.1.4,Win32,61.03143119,,,,,,,,,
,,,,,,,,,,,,0,3,3,3,1,fourth,9,21,male,R,Donders,2021-07-14_08h40.23.505,ImageRatingTask_S2,2021.1.4,Win32,61.03143119,,,,,,,,,
,,,,,,,,,,,,0,4,4,4,1,fifth,9,21,male,R,Donders,2021-07-14_08h40.23.505,ImageRatingTask_S2,2021.1.4,Win32,61.03143119,,,,,,,,,
,,,,,,,,,,,,0,5,5,5,1,sixth,9,21,male,R,Donders,2021-07-14_08h40.23.505,ImageRatingTask_S2,2021.1.4,Win32,61.03143119,,,,,,,,,
,,,,,,,,,,,,0,6,6,6,1,seventh,9,21,male,R,Donders,2021-07-14_08h40.23.505,ImageRatingTask_S2,2021.1.4,Win32,61.03143119,,,,,,,,,
,,,,,,,,,,,,0,7,7,7,1,last,9,21,male,R,Donders,2021-07-14_08h40.23.505,ImageRatingTask_S2,2021.1.4,Win32,61.03143119,,,,,,,,,
,,,,,,,,,,,,,,,,,,9,21,male,R,Donders,2021-07-14_08h40.23.505,ImageRatingTask_S2,2021.1.4,Win32,61.03143119,0,8,8,17,1,DreamStudyImages_rs1000x750g/Food/IAPS7472_fruitbasket3.jpg,,,
,,4,4.6315,2,1.0216,5,3.4619,1,1.479,7,0.827,0,0,0,0,1,main,9,21,male,R,Donders,2021-07-14_08h40.23.505,ImageRatingTask_S2,2021.1.4,Win32,61.03143119,,,,,,,,,
,,,,,,,,,,,,0,1,1,1,1,second,9,21,male,R,Donders,2021-07-14_08h40.23.505,ImageRatingTask_S2,2021.1.4,Win32,61.03143119,,,,,,,,,
,,,,,,,,,,,,0,2,2,2,1,third,9,21,male,R,Donders,2021-07-14_08h40.23.505,ImageRatingTask_S2,2021.1.4,Win32,61.03143119,,,,,,,,,
,,,,,,,,,,,,0,3,3,3,1,fourth,9,21,male,R,Donders,2021-07-14_08h40.23.505,ImageRatingTask_S2,2021.1.4,Win32,61.03143119,,,,,,,,,
,,,,,,,,,,,,0,4,4,4,1,fifth,9,21,male,R,Donders,2021-07-14_08h40.23.505,ImageRatingTask_S2,2021.1.4,Win32,61.03143119,,,,,,,,,
,,,,,,,,,,,,0,5,5,5,1,sixth,9,21,male,R,Donders,2021-07-14_08h40.23.505,ImageRatingTask_S2,2021.1.4,Win32,61.03143119,,,,,,,,,
,,,,,,,,,,,,0,6,6,6,1,seventh,9,21,male,R,Donders,2021-07-14_08h40.23.505,ImageRatingTask_S2,2021.1.4,Win32,61.03143119,,,,,,,,,
,,,,,,,,,,,,0,7,7,7,1,last,9,21,male,R,Donders,2021-07-14_08h40.23.505,ImageRatingTask_S2,2021.1.4,Win32,61.03143119,,,,,,,,,
,,,,,,,,,,,,,,,,,,9,21,male,R,Donders,2021-07-14_08h40.23.505,ImageRatingTask_S2,2021.1.4,Win32,61.03143119,0,9,9,89,1,DreamStudyImages_rs1000x750g/Vehicles/Objects_277_h.jpg,,,
,,7,10.2958,1,1.0788,3,2.0311,2,1.5284,3,1.455,0,0,0,0,1,main,9,21,male,R,Donders,2021-07-14_08h40.23.505,ImageRatingTask_S2,2021.1.4,Win32,61.03143119,,,,,,,,,
,,,,,,,,,,7,0.7679,0,1,1,1,1,second,9,21,male,R,Donders,2021-07-14_08h40.23.505,ImageRatingTask_S2,2021.1.4,Win32,61.03143119,,,,,,,,,
,,,,,,,,,,,,0,2,2,2,1,third,9,21,male,R,Donders,2021-07-14_08h40.23.505,ImageRatingTask_S2,2021.1.4,Win32,61.03143119,,,,,,,,,
,,,,,,,,,,,,0,3,3,3,1,fourth,9,21,male,R,Donders,2021-07-14_08h40.23.505,ImageRatingTask_S2,2021.1.4,Win32,61.03143119,,,,,,,,,
,,,,,,,,,,,,0,4,4,4,1,fifth,9,21,male,R,Donders,2021-07-14_08h40.23.505,ImageRatingTask_S2,2021.1.4,Win32,61.03143119,,,,,,,,,
,,,,,,,,,,,,0,5,5,5,1,sixth,9,21,male,R,Donders,2021-07-14_08h40.23.505,ImageRatingTask_S2,2021.1.4,Win32,61.03143119,,,,,,,,,
,,,,,,,,,,,,0,6,6,6,1,seventh,9,21,male,R,Donders,2021-07-14_08h40.23.505,ImageRatingTask_S2,2021.1.4,Win32,61.03143119,,,,,,,,,
,,,,,,,,,,,,0,7,7,7,1,last,9,21,male,R,Donders,2021-07-14_08h40.23.505,ImageRatingTask_S2,2021.1.4,Win32,61.03143119,,,,,,,,,
,,,,,,,,,,,,,,,,,,9,21,male,R,Donders,2021-07-14_08h40.23.505,ImageRatingTask_S2,2021.1.4,Win32,61.03143119,0,10,10,97,1,DreamStudyImages_rs1000x750g/Mammals/IAPS1670_cow.jpg,,,
,,3,3.2324,5,1.5025,3,2.6404,1,1.0344,2,0.7858,0,0,0,0,1,main,9,21,male,R,Donders,2021-07-14_08h40.23.505,ImageRatingTask_S2,2021.1.4,Win32,61.03143119,,,,,,,,,
,,,,,,,,,,,,0,1,1,1,1,second,9,21,male,R,Donders,2021-07-14_08h40.23.505,ImageRatingTask_S2,2021.1.4,Win32,61.03143119,,,,,,,,,
,,,,,,,,,,,,0,2,2,2,1,third,9,21,male,R,Donders,2021-07-14_08h40.23.505,ImageRatingTask_S2,2021.1.4,Win32,61.03143119,,,,,,,,,
,,,,,,,,,,,,0,3,3,3,1,fourth,9,21,male,R,Donders,2021-07-14_08h40.23.505,ImageRatingTask_S2,2021.1.4,Win32,61.03143119,,,,,,,,,
,,,,,,,,,,,,0,4,4,4,1,fifth,9,21,male,R,Donders,2021-07-14_08h40.23.505,ImageRatingTask_S2,2021.1.4,Win32,61.03143119,,,,,,,,,
,,,,,,,,,,,,0,5,5,5,1,sixth,9,21,male,R,Donders,2021-07-14_08h40.23.505,ImageRatingTask_S2,2021.1.4,Win32,61.03143119,,,,,,,,,
,,,,,,,,,,,,0,6,6,6,1,seventh,9,21,male,R,Donders,2021-07-14_08h40.23.505,ImageRatingTask_S2,2021.1.4,Win32,61.03143119,,,,,,,,,
,,,,,,,,,,,,0,7,7,7,1,last,9,21,male,R,Donders,2021-07-14_08h40.23.505,ImageRatingTask_S2,2021.1.4,Win32,61.03143119,,,,,,,,,
,,,,,,,,,,,,,,,,,,9,21,male,R,Donders,2021-07-14_08h40.23.505,ImageRatingTask_S2,2021.1.4,Win32,61.03143119,0,11,11,19,1,DreamStudyImages_rs1000x750g/Children/IAPS2345.1_boy7.jpg,,,
,,2,4.3285,3,1.4715,4,1.7731,1,3.1615,2,1.0471,0,0,0,0,1,main,9,21,male,R,Donders,2021-07-14_08h40.23.505,ImageRatingTask_S2,2021.1.4,Win32,61.03143119,,,,,,,,,
,,,,,,,,,,,,0,1,1,1,1,second,9,21,male,R,Donders,2021-07-14_08h40.23.505,ImageRatingTask_S2,2021.1.4,Win32,61.03143119,,,,,,,,,
,,,,,,,,,,,,0,2,2,2,1,third,9,21,male,R,Donders,2021-07-14_08h40.23.505,ImageRatingTask_S2,2021.1.4,Win32,61.03143119,,,,,,,,,
,,,,,,,,,,,,0,3,3,3,1,fourth,9,21,male,R,Donders,2021-07-14_08h40.23.505,ImageRatingTask_S2,2021.1.4,Win32,61.03143119,,,,,,,,,
,,,,,,,,,,,,0,4,4,4,1,fifth,9,21,male,R,Donders,2021-07-14_08h40.23.505,ImageRatingTask_S2,2021.1.4,Win32,61.03143119,,,,,,,,,
,,,,,,,,,,,,0,5,5,5,1,sixth,9,21,male,R,Donders,2021-07-14_08h40.23.505,ImageRatingTask_S2,2021.1.4,Win32,61.03143119,,,,,,,,,
,,,,,,,,,,,,0,6,6,6,1,seventh,9,21,male,R,Donders,2021-07-14_08h40.23.505,ImageRatingTask_S2,2021.1.4,Win32,61.03143119,,,,,,,,,
,,,,,,,,,,,,0,7,7,7,1,last,9,21,male,R,Donders,2021-07-14_08h40.23.505,ImageRatingTask_S2,2021.1.4,Win32,61.03143119,,,,,,,,,
,,,,,,,,,,,,,,,,,,9,21,male,R,Donders,2021-07-14_08h40.23.505,ImageRatingTask_S2,2021.1.4,Win32,61.03143119,0,12,12,86,1,DreamStudyImages_rs1000x750g/Children/Faces_034_h.jpg,,,
,,7,3.4677,3,1.2215,4,1.8602,1,1.0763,2,0.3758,0,0,0,0,1,main,9,21,male,R,Donders,2021-07-14_08h40.23.505,ImageRatingTask_S2,2021.1.4,Win32,61.03143119,,,,,,,,,
,,,,,,,,,,,,0,1,1,1,1,second,9,21,male,R,Donders,2021-07-14_08h40.23.505,ImageRatingTask_S2,2021.1.4,Win32,61.03143119,,,,,,,,,
,,,,,,,,,,,,0,2,2,2,1,third,9,21,male,R,Donders,2021-07-14_08h40.23.505,ImageRatingTask_S2,2021.1.4,Win32,61.03143119,,,,,,,,,
,,,,,,,,,,,,0,3,3,3,1,fourth,9,21,male,R,Donders,2021-07-14_08h40.23.505,ImageRatingTask_S2,2021.1.4,Win32,61.03143119,,,,,,,,,
,,,,,,,,,,,,0,4,4,4,1,fifth,9,21,male,R,Donders,2021-07-14_08h40.23.505,ImageRatingTask_S2,2021.1.4,Win32,61.03143119,,,,,,,,,
,,,,,,,,,,,,0,5,5,5,1,sixth,9,21,male,R,Donders,2021-07-14_08h40.23.505,ImageRatingTask_S2,2021.1.4,Win32,61.03143119,,,,,,,,,
,,,,,,,,,,,,0,6,6,6,1,seventh,9,21,male,R,Donders,2021-07-14_08h40.23.505,ImageRatingTask_S2,2021.1.4,Win32,61.03143119,,,,,,,,,
,,,,,,,,,,,,0,7,7,7,1,last,9,21,male,R,Donders,2021-07-14_08h40.23.505,ImageRatingTask_S2,2021.1.4,Win32,61.03143119,,,,,,,,,
,,,,,,,,,,,,,,,,,,9,21,male,R,Donders,2021-07-14_08h40.23.505,ImageRatingTask_S2,2021.1.4,Win32,61.03143119,0,13,13,36,1,DreamStudyImages_rs1000x750g/Children/Faces_086_v.jpg,,,
,,6,12.327,1,0.9852,4,2.9463,1,1.1709,7,0.6927,0,0,0,0,1,main,9,21,male,R,Donders,2021-07-14_08h40.23.505,ImageRatingTask_S2,2021.1.4,Win32,61.03143119,,,,,,,,,
,,,,,,,,,,,,0,1,1,1,1,second,9,21,male,R,Donders,2021-07-14_08h40.23.505,ImageRatingTask_S2,2021.1.4,Win32,61.03143119,,,,,,,,,
,,,,,,,,,,,,0,2,2,2,1,third,9,21,male,R,Donders,2021-07-14_08h40.23.505,ImageRatingTask_S2,2021.1.4,Win32,61.03143119,,,,,,,,,
,,,,,,,,,,,,0,3,3,3,1,fourth,9,21,male,R,Donders,2021-07-14_08h40.23.505,ImageRatingTask_S2,2021.1.4,Win32,61.03143119,,,,,,,,,
,,,,,,,,,,,,0,4,4,4,1,fifth,9,21,male,R,Donders,2021-07-14_08h40.23.505,ImageRatingTask_S2,2021.1.4,Win32,61.03143119,,,,,,,,,
,,,,,,,,,,,,0,5,5,5,1,sixth,9,21,male,R,Donders,2021-07-14_08h40.23.505,ImageRatingTask_S2,2021.1.4,Win32,61.03143119,,,,,,,,,
,,,,,,,,,,,,0,6,6,6,1,seventh,9,21,male,R,Donders,2021-07-14_08h40.23.505,ImageRatingTask_S2,2021.1.4,Win32,61.03143119,,,,,,,,,
,,,,,,,,,,,,0,7,7,7,1,last,9,21,male,R,Donders,2021-07-14_08h40.23.505,ImageRatingTask_S2,2021.1.4,Win32,61.03143119,,,,,,,,,
,,,,,,,,,,,,,,,,,,9,21,male,R,Donders,2021-07-14_08h40.23.505,ImageRatingTask_S2,2021.1.4,Win32,61.03143119,0,14,14,2,1,DreamStudyImages_rs1000x750g/Vehicles/trainwagon.jpg,,,
,,5,8.6215,1,0.9726,6,1.5735,1,0.862,7,0.7204,0,0,0,0,1,main,9,21,male,R,Donders,2021-07-14_08h40.23.505,ImageRatingTask_S2,2021.1.4,Win32,61.03143119,,,,,,,,,
,,,,,,,,,,,,0,1,1,1,1,second,9,21,male,R,Donders,2021-07-14_08h40.23.505,ImageRatingTask_S2,2021.1.4,Win32,61.03143119,,,,,,,,,
,,,,,,,,,,,,0,2,2,2,1,third,9,21,male,R,Donders,2021-07-14_08h40.23.505,ImageRatingTask_S2,2021.1.4,Win32,61.03143119,,,,,,,,,
,,,,,,,,,,,,0,3,3,3,1,fourth,9,21,male,R,Donders,2021-07-14_08h40.23.505,ImageRatingTask_S2,2021.1.4,Win32,61.03143119,,,,,,,,,
,,,,,,,,,,,,0,4,4,4,1,fifth,9,21,male,R,Donders,2021-07-14_08h40.23.505,ImageRatingTask_S2,2021.1.4,Win32,61.03143119,,,,,,,,,
,,,,,,,,,,,,0,5,5,5,1,sixth,9,21,male,R,Donders,2021-07-14_08h40.23.505,ImageRatingTask_S2,2021.1.4,Win32,61.03143119,,,,,,,,,
,,,,,,,,,,,,0,6,6,6,1,seventh,9,21,male,R,Donders,2021-07-14_08h40.23.505,ImageRatingTask_S2,2021.1.4,Win32,61.03143119,,,,,,,,,
,,,,,,,,,,,,0,7,7,7,1,last,9,21,male,R,Donders,2021-07-14_08h40.23.505,ImageRatingTask_S2,2021.1.4,Win32,61.03143119,,,,,,,,,
,,,,,,,,,,,,,,,,,,9,21,male,R,Donders,2021-07-14_08h40.23.505,ImageRatingTask_S2,2021.1.4,Win32,61.03143119,0,15,15,58,1,DreamStudyImages_rs1000x750g/Vehicles/Objects_250_h.jpg,,,
,,3,3.5787,4,0.7361,3,1.2137,1,1.3859,2,5.2613,0,0,0,0,1,main,9,21,male,R,Donders,2021-07-14_08h40.23.505,ImageRatingTask_S2,2021.1.4,Win32,61.03143119,,,,,,,,,
,,,,,,,,,,,,0,1,1,1,1,second,9,21,male,R,Donders,2021-07-14_08h40.23.505,ImageRatingTask_S2,2021.1.4,Win32,61.03143119,,,,,,,,,
,,,,,,,,,,,,0,2,2,2,1,third,9,21,male,R,Donders,2021-07-14_08h40.23.505,ImageRatingTask_S2,2021.1.4,Win32,61.03143119,,,,,,,,,
,,,,,,,,,,,,0,3,3,3,1,fourth,9,21,male,R,Donders,2021-07-14_08h40.23.505,ImageRatingTask_S2,2021.1.4,Win32,61.03143119,,,,,,,,,
,,,,,,,,,,,,0,4,4,4,1,fifth,9,21,male,R,Donders,2021-07-14_08h40.23.505,ImageRatingTask_S2,2021.1.4,Win32,61.03143119,,,,,,,,,
,,,,,,,,,,,,0,5,5,5,1,sixth,9,21,male,R,Donders,2021-07-14_08h40.23.505,ImageRatingTask_S2,2021.1.4,Win32,61.03143119,,,,,,,,,
,,,,,,,,,,,,0,6,6,6,1,seventh,9,21,male,R,Donders,2021-07-14_08h40.23.505,ImageRatingTask_S2,2021.1.4,Win32,61.03143119,,,,,,,,,
,,,,,,,,,,,,0,7,7,7,1,last,9,21,male,R,Donders,2021-07-14_08h40.23.505,ImageRatingTask_S2,2021.1.4,Win32,61.03143119,,,,,,,,,
,,,,,,,,,,,,,,,,,,9,21,male,R,Donders,2021-07-14_08h40.23.505,ImageRatingTask_S2,2021.1.4,Win32,61.03143119,0,16,16,142,1,DreamStudyImages_rs1000x750g/Children/IAPS2278_children6.jpg,,,
,,4,15.0092,1,0.4584,4,1.4707,2,2.993,8,1.3582,0,0,0,0,1,main,9,21,male,R,Donders,2021-07-14_08h40.23.505,ImageRatingTask_S2,2021.1.4,Win32,61.03143119,,,,,,,,,
,,,,,,,,,,1,0.5681,0,1,1,1,1,second,9,21,male,R,Donders,2021-07-14_08h40.23.505,ImageRatingTask_S2,2021.1.4,Win32,61.03143119,,,,,,,,,
,,,,,,,,,,,,0,2,2,2,1,third,9,21,male,R,Donders,2021-07-14_08h40.23.505,ImageRatingTask_S2,2021.1.4,Win32,61.03143119,,,,,,,,,
,,,,,,,,,,,,0,3,3,3,1,fourth,9,21,male,R,Donders,2021-07-14_08h40.23.505,ImageRatingTask_S2,2021.1.4,Win32,61.03143119,,,,,,,,,
,,,,,,,,,,,,0,4,4,4,1,fifth,9,21,male,R,Donders,2021-07-14_08h40.23.505,ImageRatingTask_S2,2021.1.4,Win32,61.03143119,,,,,,,,,
,,,,,,,,,,,,0,5,5,5,1,sixth,9,21,male,R,Donders,2021-07-14_08h40.23.505,ImageRatingTask_S2,2021.1.4,Win32,61.03143119,,,,,,,,,
,,,,,,,,,,,,0,6,6,6,1,seventh,9,21,male,R,Donders,2021-07-14_08h40.23.505,ImageRatingTask_S2,2021.1.4,Win32,61.03143119,,,,,,,,,
,,,,,,,,,,,,0,7,7,7,1,last,9,21,male,R,Donders,2021-07-14_08h40.23.505,ImageRatingTask_S2,2021.1.4,Win32,61.03143119,,,,,,,,,
,,,,,,,,,,,,,,,,,,9,21,male,R,Donders,2021-07-14_08h40.23.505,ImageRatingTask_S2,2021.1.4,Win32,61.03143119,0,17,17,20,1,DreamStudyImages_rs1000x750g/Water/IAPS2446_mudpuddle.jpg,,,
,,2,5.645,4,1.1311,3,1.3184,1,1.0122,3,0.961,0,0,0,0,1,main,9,21,male,R,Donders,2021-07-14_08h40.23.505,ImageRatingTask_S2,2021.1.4,Win32,61.03143119,,,,,,,,,
,,,,,,,,,,,,0,1,1,1,1,second,9,21,male,R,Donders,2021-07-14_08h40.23.505,ImageRatingTask_S2,2021.1.4,Win32,61.03143119,,,,,,,,,
,,,,,,,,,,,,0,2,2,2,1,third,9,21,male,R,Donders,2021-07-14_08h40.23.505,ImageRatingTask_S2,2021.1.4,Win32,61.03143119,,,,,,,,,
,,,,,,,,,,,,0,3,3,3,1,fourth,9,21,male,R,Donders,2021-07-14_08h40.23.505,ImageRatingTask_S2,2021.1.4,Win32,61.03143119,,,,,,,,,
,,,,,,,,,,,,0,4,4,4,1,fifth,9,21,male,R,Donders,2021-07-14_08h40.23.505,ImageRatingTask_S2,2021.1.4,Win32,61.03143119,,,,,,,,,
,,,,,,,,,,,,0,5,5,5,1,sixth,9,21,male,R,Donders,2021-07-14_08h40.23.505,ImageRatingTask_S2,2021.1.4,Win32,61.03143119,,,,,,,,,
,,,,,,,,,,,,0,6,6,6,1,seventh,9,21,male,R,Donders,2021-07-14_08h40.23.505,ImageRatingTask_S2,2021.1.4,Win32,61.03143119,,,,,,,,,
,,,,,,,,,,,,0,7,7,7,1,last,9,21,male,R,Donders,2021-07-14_08h40.23.505,ImageRatingTask_S2,2021.1.4,Win32,61.03143119,,,,,,,,,
,,,,,,,,,,,,,,,,,,9,21,male,R,Donders,2021-07-14_08h40.23.505,ImageRatingTask_S2,2021.1.4,Win32,61.03143119,0,18,18,94,1,DreamStudyImages_rs1000x750g/Mammals/Animals_207_h.jpg,,,
,,8,11.5107,4,1.4225,4,1.8914,1,1.3773,3,0.8782,0,0,0,0,1,main,9,21,male,R,Donders,2021-07-14_08h40.23.505,ImageRatingTask_S2,2021.1.4,Win32,61.03143119,,,,,,,,,
,,,,,,,,,,,,0,1,1,1,1,second,9,21,male,R,Donders,2021-07-14_08h40.23.505,ImageRatingTask_S2,2021.1.4,Win32,61.03143119,,,,,,,,,
,,,,,,,,,,,,0,2,2,2,1,third,9,21,male,R,Donders,2021-07-14_08h40.23.505,ImageRatingTask_S2,2021.1.4,Win32,61.03143119,,,,,,,,,
,,,,,,,,,,,,0,3,3,3,1,fourth,9,21,male,R,Donders,2021-07-14_08h40.23.505,ImageRatingTask_S2,2021.1.4,Win32,61.03143119,,,,,,,,,
,,,,,,,,,,,,0,4,4,4,1,fifth,9,21,male,R,Donders,2021-07-14_08h40.23.505,ImageRatingTask_S2,2021.1.4,Win32,61.03143119,,,,,,,,,
,,,,,,,,,,,,0,5,5,5,1,sixth,9,21,male,R,Donders,2021-07-14_08h40.23.505,ImageRatingTask_S2,2021.1.4,Win32,61.03143119,,,,,,,,,
,,,,,,,,,,,,0,6,6,6,1,seventh,9,21,male,R,Donders,2021-07-14_08h40.23.505,ImageRatingTask_S2,2021.1.4,Win32,61.03143119,,,,,,,,,
,,,,,,,,,,,,0,7,7,7,1,last,9,21,male,R,Donders,2021-07-14_08h40.23.505,ImageRatingTask_S2,2021.1.4,Win32,61.03143119,,,,,,,,,
,,,,,,,,,,,,,,,,,,9,21,male,R,Donders,2021-07-14_08h40.23.505,ImageRatingTask_S2,2021.1.4,Win32,61.03143119,0,19,19,79,1,DreamStudyImages_rs1000x750g/Mammals/IAPS1750_rabbits.jpg,,,
,,7,2.8755,2,1.6473,8,2.4795,1,1.0815,2,0.3582,0,0,0,0,1,main,9,21,male,R,Donders,2021-07-14_08h40.23.505,ImageRatingTask_S2,2021.1.4,Win32,61.03143119,,,,,,,,,
,,,,,,,,,,,,0,1,1,1,1,second,9,21,male,R,Donders,2021-07-14_08h40.23.505,ImageRatingTask_S2,2021.1.4,Win32,61.03143119,,,,,,,,,
,,,,,,,,,,,,0,2,2,2,1,third,9,21,male,R,Donders,2021-07-14_08h40.23.505,ImageRatingTask_S2,2021.1.4,Win32,61.03143119,,,,,,,,,
,,,,,,,,,,,,0,3,3,3,1,fourth,9,21,male,R,Donders,2021-07-14_08h40.23.505,ImageRatingTask_S2,2021.1.4,Win32,61.03143119,,,,,,,,,
,,,,,,,,,,,,0,4,4,4,1,fifth,9,21,male,R,Donders,2021-07-14_08h40.23.505,ImageRatingTask_S2,2021.1.4,Win32,61.03143119,,,,,,,,,
,,,,,,,,,,,,0,5,5,5,1,sixth,9,21,male,R,Donders,2021-07-14_08h40.23.505,ImageRatingTask_S2,2021.1.4,Win32,61.03143119,,,,,,,,,
,,,,,,,,,,,,0,6,6,6,1,seventh,9,21,male,R,Donders,2021-07-14_08h40.23.505,ImageRatingTask_S2,2021.1.4,Win32,61.03143119,,,,,,,,,
,,,,,,,,,,,,0,7,7,7,1,last,9,21,male,R,Donders,2021-07-14_08h40.23.505,ImageRatingTask_S2,2021.1.4,Win32,61.03143119,,,,,,,,,
,,,,,,,,,,,,,,,,,,9,21,male,R,Donders,2021-07-14_08h40.23.505,ImageRatingTask_S2,2021.1.4,Win32,61.03143119,0,20,20,53,1,DreamStudyImages_rs1000x750g/Children/Baby 5.jpg,,,
,,6,2.3127,1,1.0295,8,1.5491,1,1.028,6,0.9256,0,0,0,0,1,main,9,21,male,R,Donders,2021-07-14_08h40.23.505,ImageRatingTask_S2,2021.1.4,Win32,61.03143119,,,,,,,,,
,,,,,,,,,,,,0,1,1,1,1,second,9,21,male,R,Donders,2021-07-14_08h40.23.505,ImageRatingTask_S2,2021.1.4,Win32,61.03143119,,,,,,,,,
,,,,,,,,,,,,0,2,2,2,1,third,9,21,male,R,Donders,2021-07-14_08h40.23.505,ImageRatingTask_S2,2021.1.4,Win32,61.03143119,,,,,,,,,
,,,,,,,,,,,,0,3,3,3,1,fourth,9,21,male,R,Donders,2021-07-14_08h40.23.505,ImageRatingTask_S2,2021.1.4,Win32,61.03143119,,,,,,,,,
,,,,,,,,,,,,0,4,4,4,1,fifth,9,21,male,R,Donders,2021-07-14_08h40.23.505,ImageRatingTask_S2,2021.1.4,Win32,61.03143119,,,,,,,,,
,,,,,,,,,,,,0,5,5,5,1,sixth,9,21,male,R,Donders,2021-07-14_08h40.23.505,ImageRatingTask_S2,2021.1.4,Win32,61.03143119,,,,,,,,,
,,,,,,,,,,,,0,6,6,6,1,seventh,9,21,male,R,Donders,2021-07-14_08h40.23.505,ImageRatingTask_S2,2021.1.4,Win32,61.03143119,,,,,,,,,
,,,,,,,,,,,,0,7,7,7,1,last,9,21,male,R,Donders,2021-07-14_08h40.23.505,ImageRatingTask_S2,2021.1.4,Win32,61.03143119,,,,,,,,,
,,,,,,,,,,,,,,,,,,9,21,male,R,Donders,2021-07-14_08h40.23.505,ImageRatingTask_S2,2021.1.4,Win32,61.03143119,0,21,21,133,1,DreamStudyImages_rs1000x750g/Houses/Landscapes_019_h.jpg,,,
,,7,10.1456,1,1.893,6,2.2961,2,1.2797,2,0.6703,0,0,0,0,1,main,9,21,male,R,Donders,2021-07-14_08h40.23.505,ImageRatingTask_S2,2021.1.4,Win32,61.03143119,,,,,,,,,
,,,,,,,,,,1,0.1676,0,1,1,1,1,second,9,21,male,R,Donders,2021-07-14_08h40.23.505,ImageRatingTask_S2,2021.1.4,Win32,61.03143119,,,,,,,,,
,,,,,,,,,,,,0,2,2,2,1,third,9,21,male,R,Donders,2021-07-14_08h40.23.505,ImageRatingTask_S2,2021.1.4,Win32,61.03143119,,,,,,,,,
,,,,,,,,,,,,0,3,3,3,1,fourth,9,21,male,R,Donders,2021-07-14_08h40.23.505,ImageRatingTask_S2,2021.1.4,Win32,61.03143119,,,,,,,,,
,,,,,,,,,,,,0,4,4,4,1,fifth,9,21,male,R,Donders,2021-07-14_08h40.23.505,ImageRatingTask_S2,2021.1.4,Win32,61.03143119,,,,,,,,,
,,,,,,,,,,,,0,5,5,5,1,sixth,9,21,male,R,Donders,2021-07-14_08h40.23.505,ImageRatingTask_S2,2021.1.4,Win32,61.03143119,,,,,,,,,
,,,,,,,,,,,,0,6,6,6,1,seventh,9,21,male,R,Donders,2021-07-14_08h40.23.505,ImageRatingTask_S2,2021.1.4,Win32,61.03143119,,,,,,,,,
,,,,,,,,,,,,0,7,7,7,1,last,9,21,male,R,Donders,2021-07-14_08h40.23.505,ImageRatingTask_S2,2021.1.4,Win32,61.03143119,,,,,,,,,
,,,,,,,,,,,,,,,,,,9,21,male,R,Donders,2021-07-14_08h40.23.505,ImageRatingTask_S2,2021.1.4,Win32,61.03143119,0,22,22,12,1,DreamStudyImages_rs1000x750g/Children/Faces_082_v.jpg,,,
,,2,5.2148,4,0.9437,3,3.4171,2,3.1182,6,1.5449,0,0,0,0,1,main,9,21,male,R,Donders,2021-07-14_08h40.23.505,ImageRatingTask_S2,2021.1.4,Win32,61.03143119,,,,,,,,,
,,,,,,,,,,7,0.1666,0,1,1,1,1,second,9,21,male,R,Donders,2021-07-14_08h40.23.505,ImageRatingTask_S2,2021.1.4,Win32,61.03143119,,,,,,,,,
,,,,,,,,,,,,0,2,2,2,1,third,9,21,male,R,Donders,2021-07-14_08h40.23.505,ImageRatingTask_S2,2021.1.4,Win32,61.03143119,,,,,,,,,
,,,,,,,,,,,,0,3,3,3,1,fourth,9,21,male,R,Donders,2021-07-14_08h40.23.505,ImageRatingTask_S2,2021.1.4,Win32,61.03143119,,,,,,,,,
,,,,,,,,,,,,0,4,4,4,1,fifth,9,21,male,R,Donders,2021-07-14_08h40.23.505,ImageRatingTask_S2,2021.1.4,Win32,61.03143119,,,,,,,,,
,,,,,,,,,,,,0,5,5,5,1,sixth,9,21,male,R,Donders,2021-07-14_08h40.23.505,ImageRatingTask_S2,2021.1.4,Win32,61.03143119,,,,,,,,,
,,,,,,,,,,,,0,6,6,6,1,seventh,9,21,male,R,Donders,2021-07-14_08h40.23.505,ImageRatingTask_S2,2021.1.4,Win32,61.03143119,,,,,,,,,
,,,,,,,,,,,,0,7,7,7,1,last,9,21,male,R,Donders,2021-07-14_08h40.23.505,ImageRatingTask_S2,2021.1.4,Win32,61.03143119,,,,,,,,,
,,,,,,,,,,,,,,,,,,9,21,male,R,Donders,2021-07-14_08h40.23.505,ImageRatingTask_S2,2021.1.4,Win32,61.03143119,0,23,23,3,1,DreamStudyImages_rs1000x750g/Houses/Landscapes_007_h.jpg,,,
,,6,13.7663,1,1.4111,3,1.8158,1,1.4961,3,0.4059,0,0,0,0,1,main,9,21,male,R,Donders,2021-07-14_08h40.23.505,ImageRatingTask_S2,2021.1.4,Win32,61.03143119,,,,,,,,,
,,,,,,,,,,,,0,1,1,1,1,second,9,21,male,R,Donders,2021-07-14_08h40.23.505,ImageRatingTask_S2,2021.1.4,Win32,61.03143119,,,,,,,,,
,,,,,,,,,,,,0,2,2,2,1,third,9,21,male,R,Donders,2021-07-14_08h40.23.505,ImageRatingTask_S2,2021.1.4,Win32,61.03143119,,,,,,,,,
,,,,,,,,,,,,0,3,3,3,1,fourth,9,21,male,R,Donders,2021-07-14_08h40.23.505,ImageRatingTask_S2,2021.1.4,Win32,61.03143119,,,,,,,,,
,,,,,,,,,,,,0,4,4,4,1,fifth,9,21,male,R,Donders,2021-07-14_08h40.23.505,ImageRatingTask_S2,2021.1.4,Win32,61.03143119,,,,,,,,,
,,,,,,,,,,,,0,5,5,5,1,sixth,9,21,male,R,Donders,2021-07-14_08h40.23.505,ImageRatingTask_S2,2021.1.4,Win32,61.03143119,,,,,,,,,
,,,,,,,,,,,,0,6,6,6,1,seventh,9,21,male,R,Donders,2021-07-14_08h40.23.505,ImageRatingTask_S2,2021.1.4,Win32,61.03143119,,,,,,,,,
,,,,,,,,,,,,0,7,7,7,1,last,9,21,male,R,Donders,2021-07-14_08h40.23.505,ImageRatingTask_S2,2021.1.4,Win32,61.03143119,,,,,,,,,
,,,,,,,,,,,,,,,,,,9,21,male,R,Donders,2021-07-14_08h40.23.505,ImageRatingTask_S2,2021.1.4,Win32,61.03143119,0,24,24,37,1,DreamStudyImages_rs1000x750g/Mammals/Animals_122_h.jpg,,,
,,4,4.784,2,0.7941,6,1.9558,1,2.5451,2,0.3557,0,0,0,0,1,main,9,21,male,R,Donders,2021-07-14_08h40.23.505,ImageRatingTask_S2,2021.1.4,Win32,61.03143119,,,,,,,,,
,,,,,,,,,,,,0,1,1,1,1,second,9,21,male,R,Donders,2021-07-14_08h40.23.505,ImageRatingTask_S2,2021.1.4,Win32,61.03143119,,,,,,,,,
,,,,,,,,,,,,0,2,2,2,1,third,9,21,male,R,Donders,2021-07-14_08h40.23.505,ImageRatingTask_S2,2021.1.4,Win32,61.03143119,,,,,,,,,
,,,,,,,,,,,,0,3,3,3,1,fourth,9,21,male,R,Donders,2021-07-14_08h40.23.505,ImageRatingTask_S2,2021.1.4,Win32,61.03143119,,,,,,,,,
,,,,,,,,,,,,0,4,4,4,1,fifth,9,21,male,R,Donders,2021-07-14_08h40.23.505,ImageRatingTask_S2,2021.1.4,Win32,61.03143119,,,,,,,,,
,,,,,,,,,,,,0,5,5,5,1,sixth,9,21,male,R,Donders,2021-07-14_08h40.23.505,ImageRatingTask_S2,2021.1.4,Win32,61.03143119,,,,,,,,,
,,,,,,,,,,,,0,6,6,6,1,seventh,9,21,male,R,Donders,2021-07-14_08h40.23.505,ImageRatingTask_S2,2021.1.4,Win32,61.03143119,,,,,,,,,
,,,,,,,,,,,,0,7,7,7,1,last,9,21,male,R,Donders,2021-07-14_08h40.23.505,ImageRatingTask_S2,2021.1.4,Win32,61.03143119,,,,,,,,,
,,,,,,,,,,,,,,,,,,9,21,male,R,Donders,2021-07-14_08h40.23.505,ImageRatingTask_S2,2021.1.4,Win32,61.03143119,0,25,25,156,1,DreamStudyImages_rs1000x750g/Children/Faces_044_h.jpg,,,
,,7,3.1645,1,1.2549,6,0.8631,2,2.8213,8,1.0039,0,0,0,0,1,main,9,21,male,R,Donders,2021-07-14_08h40.23.505,ImageRatingTask_S2,2021.1.4,Win32,61.03143119,,,,,,,,,
,,,,,,,,,,6,0.3851,0,1,1,1,1,second,9,21,male,R,Donders,2021-07-14_08h40.23.505,ImageRatingTask_S2,2021.1.4,Win32,61.03143119,,,,,,,,,
,,,,,,,,,,,,0,2,2,2,1,third,9,21,male,R,Donders,2021-07-14_08h40.23.505,ImageRatingTask_S2,2021.1.4,Win32,61.03143119,,,,,,,,,
,,,,,,,,,,,,0,3,3,3,1,fourth,9,21,male,R,Donders,2021-07-14_08h40.23.505,ImageRatingTask_S2,2021.1.4,Win32,61.03143119,,,,,,,,,
,,,,,,,,,,,,0,4,4,4,1,fifth,9,21,male,R,Donders,2021-07-14_08h40.23.505,ImageRatingTask_S2,2021.1.4,Win32,61.03143119,,,,,,,,,
,,,,,,,,,,,,0,5,5,5,1,sixth,9,21,male,R,Donders,2021-07-14_08h40.23.505,ImageRatingTask_S2,2021.1.4,Win32,61.03143119,,,,,,,,,
,,,,,,,,,,,,0,6,6,6,1,seventh,9,21,male,R,Donders,2021-07-14_08h40.23.505,ImageRatingTask_S2,2021.1.4,Win32,61.03143119,,,,,,,,,
,,,,,,,,,,,,0,7,7,7,1,last,9,21,male,R,Donders,2021-07-14_08h40.23.505,ImageRatingTask_S2,2021.1.4,Win32,61.03143119,,,,,,,,,
,,,,,,,,,,,,,,,,,,9,21,male,R,Donders,2021-07-14_08h40.23.505,ImageRatingTask_S2,2021.1.4,Win32,61.03143119,0,26,26,69,1,DreamStudyImages_rs1000x750g/Water/Lake 8.jpg,,,
,,6,4.6564,1,0.9723,3,1.2087,1,1.5314,5,0.5207,0,0,0,0,1,main,9,21,male,R,Donders,2021-07-14_08h40.23.505,ImageRatingTask_S2,2021.1.4,Win32,61.03143119,,,,,,,,,
,,,,,,,,,,,,0,1,1,1,1,second,9,21,male,R,Donders,2021-07-14_08h40.23.505,ImageRatingTask_S2,2021.1.4,Win32,61.03143119,,,,,,,,,
,,,,,,,,,,,,0,2,2,2,1,third,9,21,male,R,Donders,2021-07-14_08h40.23.505,ImageRatingTask_S2,2021.1.4,Win32,61.03143119,,,,,,,,,
,,,,,,,,,,,,0,3,3,3,1,fourth,9,21,male,R,Donders,2021-07-14_08h40.23.505,ImageRatingTask_S2,2021.1.4,Win32,61.03143119,,,,,,,,,
,,,,,,,,,,,,0,4,4,4,1,fifth,9,21,male,R,Donders,2021-07-14_08h40.23.505,ImageRatingTask_S2,2021.1.4,Win32,61.03143119,,,,,,,,,
,,,,,,,,,,,,0,5,5,5,1,sixth,9,21,male,R,Donders,2021-07-14_08h40.23.505,ImageRatingTask_S2,2021.1.4,Win32,61.03143119,,,,,,,,,
,,,,,,,,,,,,0,6,6,6,1,seventh,9,21,male,R,Donders,2021-07-14_08h40.23.505,ImageRatingTask_S2,2021.1.4,Win32,61.03143119,,,,,,,,,
,,,,,,,,,,,,0,7,7,7,1,last,9,21,male,R,Donders,2021-07-14_08h40.23.505,ImageRatingTask_S2,2021.1.4,Win32,61.03143119,,,,,,,,,
,,,,,,,,,,,,,,,,,,9,21,male,R,Donders,2021-07-14_08h40.23.505,ImageRatingTask_S2,2021.1.4,Win32,61.03143119,0,27,27,137,1,DreamStudyImages_rs1000x750g/Food/IAPS7281_skewers.jpg,,,
,,6,3.6019,1,1.0781,3,1.4344,2,1.1889,8,1.332,0,0,0,0,1,main,9,21,male,R,Donders,2021-07-14_08h40.23.505,ImageRatingTask_S2,2021.1.4,Win32,61.03143119,,,,,,,,,
,,,,,,,,,,6,0.3672,0,1,1,1,1,second,9,21,male,R,Donders,2021-07-14_08h40.23.505,ImageRatingTask_S2,2021.1.4,Win32,61.03143119,,,,,,,,,
,,,,,,,,,,,,0,2,2,2,1,third,9,21,male,R,Donders,2021-07-14_08h40.23.505,ImageRatingTask_S2,2021.1.4,Win32,61.03143119,,,,,,,,,
,,,,,,,,,,,,0,3,3,3,1,fourth,9,21,male,R,Donders,2021-07-14_08h40.23.505,ImageRatingTask_S2,2021.1.4,Win32,61.03143119,,,,,,,,,
,,,,,,,,,,,,0,4,4,4,1,fifth,9,21,male,R,Donders,2021-07-14_08h40.23.505,ImageRatingTask_S2,2021.1.4,Win32,61.03143119,,,,,,,,,
,,,,,,,,,,,,0,5,5,5,1,sixth,9,21,male,R,Donders,2021-07-14_08h40.23.505,ImageRatingTask_S2,2021.1.4,Win32,61.03143119,,,,,,,,,
,,,,,,,,,,,,0,6,6,6,1,seventh,9,21,male,R,Donders,2021-07-14_08h40.23.505,ImageRatingTask_S2,2021.1.4,Win32,61.03143119,,,,,,,,,
,,,,,,,,,,,,0,7,7,7,1,last,9,21,male,R,Donders,2021-07-14_08h40.23.505,ImageRatingTask_S2,2021.1.4,Win32,61.03143119,,,,,,,,,
,,,,,,,,,,,,,,,,,,9,21,male,R,Donders,2021-07-14_08h40.23.505,ImageRatingTask_S2,2021.1.4,Win32,61.03143119,0,28,28,76,1,DreamStudyImages_rs1000x750g/Water/lakepontoon2.jpg,,,
,,2,2.5974,7,0.7144,5,2.2536,1,3.9494,6,0.9749,0,0,0,0,1,main,9,21,male,R,Donders,2021-07-14_08h40.23.505,ImageRatingTask_S2,2021.1.4,Win32,61.03143119,,,,,,,,,
,,,,,,,,,,,,0,1,1,1,1,second,9,21,male,R,Donders,2021-07-14_08h40.23.505,ImageRatingTask_S2,2021.1.4,Win32,61.03143119,,,,,,,,,
,,,,,,,,,,,,0,2,2,2,1,third,9,21,male,R,Donders,2021-07-14_08h40.23.505,ImageRatingTask_S2,2021.1.4,Win32,61.03143119,,,,,,,,,
,,,,,,,,,,,,0,3,3,3,1,fourth,9,21,male,R,Donders,2021-07-14_08h40.23.505,ImageRatingTask_S2,2021.1.4,Win32,61.03143119,,,,,,,,,
,,,,,,,,,,,,0,4,4,4,1,fifth,9,21,male,R,Donders,2021-07-14_08h40.23.505,ImageRatingTask_S2,2021.1.4,Win32,61.03143119,,,,,,,,,
,,,,,,,,,,,,0,5,5,5,1,sixth,9,21,male,R,Donders,2021-07-14_08h40.23.505,ImageRatingTask_S2,2021.1.4,Win32,61.03143119,,,,,,,,,
,,,,,,,,,,,,0,6,6,6,1,seventh,9,21,male,R,Donders,2021-07-14_08h40.23.505,ImageRatingTask_S2,2021.1.4,Win32,61.03143119,,,,,,,,,
,,,,,,,,,,,,0,7,7,7,1,last,9,21,male,R,Donders,2021-07-14_08h40.23.505,ImageRatingTask_S2,2021.1.4,Win32,61.03143119,,,,,,,,,
,,,,,,,,,,,,,,,,,,9,21,male,R,Donders,2021-07-14_08h40.23.505,ImageRatingTask_S2,2021.1.4,Win32,61.03143119,0,29,29,55,1,DreamStudyImages_rs1000x750g/Houses/Graveyard 4.jpg,,,
,,6,21.1723,1,28.7628,5,1.4982,1,1.551,2,0.1487,0,0,0,0,1,main,9,21,male,R,Donders,2021-07-14_08h40.23.505,ImageRatingTask_S2,2021.1.4,Win32,61.03143119,,,,,,,,,
,,,,,,,,,,,,0,1,1,1,1,second,9,21,male,R,Donders,2021-07-14_08h40.23.505,ImageRatingTask_S2,2021.1.4,Win32,61.03143119,,,,,,,,,
,,,,,,,,,,,,0,2,2,2,1,third,9,21,male,R,Donders,2021-07-14_08h40.23.505,ImageRatingTask_S2,2021.1.4,Win32,61.03143119,,,,,,,,,
,,,,,,,,,,,,0,3,3,3,1,fourth,9,21,male,R,Donders,2021-07-14_08h40.23.505,ImageRatingTask_S2,2021.1.4,Win32,61.03143119,,,,,,,,,
,,,,,,,,,,,,0,4,4,4,1,fifth,9,21,male,R,Donders,2021-07-14_08h40.23.505,ImageRatingTask_S2,2021.1.4,Win32,61.03143119,,,,,,,,,
,,,,,,,,,,,,0,5,5,5,1,sixth,9,21,male,R,Donders,2021-07-14_08h40.23.505,ImageRatingTask_S2,2021.1.4,Win32,61.03143119,,,,,,,,,
,,,,,,,,,,,,0,6,6,6,1,seventh,9,21,male,R,Donders,2021-07-14_08h40.23.505,ImageRatingTask_S2,2021.1.4,Win32,61.03143119,,,,,,,,,
,,,,,,,,,,,,0,7,7,7,1,last,9,21,male,R,Donders,2021-07-14_08h40.23.505,ImageRatingTask_S2,2021.1.4,Win32,61.03143119,,,,,,,,,
,,,,,,,,,,,,,,,,,,9,21,male,R,Donders,2021-07-14_08h40.23.505,ImageRatingTask_S2,2021.1.4,Win32,61.03143119,0,30,30,98,1,DreamStudyImages_rs1000x750g/Children/Faces_114_h.jpg,,,
,,6,2.8095,1,0.6914,3,1.0497,2,0.8181,2,0.4184,0,0,0,0,1,main,9,21,male,R,Donders,2021-07-14_08h40.23.505,ImageRatingTask_S2,2021.1.4,Win32,61.03143119,,,,,,,,,
,,,,,,,,,,1,0.1345,0,1,1,1,1,second,9,21,male,R,Donders,2021-07-14_08h40.23.505,ImageRatingTask_S2,2021.1.4,Win32,61.03143119,,,,,,,,,
,,,,,,,,,,,,0,2,2,2,1,third,9,21,male,R,Donders,2021-07-14_08h40.23.505,ImageRatingTask_S2,2021.1.4,Win32,61.03143119,,,,,,,,,
,,,,,,,,,,,,0,3,3,3,1,fourth,9,21,male,R,Donders,2021-07-14_08h40.23.505,ImageRatingTask_S2,2021.1.4,Win32,61.03143119,,,,,,,,,
,,,,,,,,,,,,0,4,4,4,1,fifth,9,21,male,R,Donders,2021-07-14_08h40.23.505,ImageRatingTask_S2,2021.1.4,Win32,61.03143119,,,,,,,,,
,,,,,,,,,,,,0,5,5,5,1,sixth,9,21,male,R,Donders,2021-07-14_08h40.23.505,ImageRatingTask_S2,2021.1.4,Win32,61.03143119,,,,,,,,,
,,,,,,,,,,,,0,6,6,6,1,seventh,9,21,male,R,Donders,2021-07-14_08h40.23.505,ImageRatingTask_S2,2021.1.4,Win32,61.03143119,,,,,,,,,
,,,,,,,,,,,,0,7,7,7,1,last,9,21,male,R,Donders,2021-07-14_08h40.23.505,ImageRatingTask_S2,2021.1.4,Win32,61.03143119,,,,,,,,,
,,,,,,,,,,,,,,,,,,9,21,male,R,Donders,2021-07-14_08h40.23.505,ImageRatingTask_S2,2021.1.4,Win32,61.03143119,0,31,31,130,1,DreamStudyImages_rs1000x750g/Children/IAPS2900.2_girl12.jpg,,,
,,6,1.6009,1,1.1993,3,1.4477,1,2.4463,3,0.1932,0,0,0,0,1,main,9,21,male,R,Donders,2021-07-14_08h40.23.505,ImageRatingTask_S2,2021.1.4,Win32,61.03143119,,,,,,,,,
,,,,,,,,,,,,0,1,1,1,1,second,9,21,male,R,Donders,2021-07-14_08h40.23.505,ImageRatingTask_S2,2021.1.4,Win32,61.03143119,,,,,,,,,
,,,,,,,,,,,,0,2,2,2,1,third,9,21,male,R,Donders,2021-07-14_08h40.23.505,ImageRatingTask_S2,2021.1.4,Win32,61.03143119,,,,,,,,,
,,,,,,,,,,,,0,3,3,3,1,fourth,9,21,male,R,Donders,2021-07-14_08h40.23.505,ImageRatingTask_S2,2021.1.4,Win32,61.03143119,,,,,,,,,
,,,,,,,,,,,,0,4,4,4,1,fifth,9,21,male,R,Donders,2021-07-14_08h40.23.505,ImageRatingTask_S2,2021.1.4,Win32,61.03143119,,,,,,,,,
,,,,,,,,,,,,0,5,5,5,1,sixth,9,21,male,R,Donders,2021-07-14_08h40.23.505,ImageRatingTask_S2,2021.1.4,Win32,61.03143119,,,,,,,,,
,,,,,,,,,,,,0,6,6,6,1,seventh,9,21,male,R,Donders,2021-07-14_08h40.23.505,ImageRatingTask_S2,2021.1.4,Win32,61.03143119,,,,,,,,,
,,,,,,,,,,,,0,7,7,7,1,last,9,21,male,R,Donders,2021-07-14_08h40.23.505,ImageRatingTask_S2,2021.1.4,Win32,61.03143119,,,,,,,,,
,,,,,,,,,,,,,,,,,,9,21,male,R,Donders,2021-07-14_08h40.23.505,ImageRatingTask_S2,2021.1.4,Win32,61.03143119,0,32,32,110,1,DreamStudyImages_rs1000x750g/Mammals/Animals_120_h.jpg,,,
,,2,1.9705,5,0.8414,3,1.3561,1,1.0125,6,0.7091,0,0,0,0,1,main,9,21,male,R,Donders,2021-07-14_08h40.23.505,ImageRatingTask_S2,2021.1.4,Win32,61.03143119,,,,,,,,,
,,,,,,,,,,,,0,1,1,1,1,second,9,21,male,R,Donders,2021-07-14_08h40.23.505,ImageRatingTask_S2,2021.1.4,Win32,61.03143119,,,,,,,,,
,,,,,,,,,,,,0,2,2,2,1,third,9,21,male,R,Donders,2021-07-14_08h40.23.505,ImageRatingTask_S2,2021.1.4,Win32,61.03143119,,,,,,,,,
,,,,,,,,,,,,0,3,3,3,1,fourth,9,21,male,R,Donders,2021-07-14_08h40.23.505,ImageRatingTask_S2,2021.1.4,Win32,61.03143119,,,,,,,,,
,,,,,,,,,,,,0,4,4,4,1,fifth,9,21,male,R,Donders,2021-07-14_08h40.23.505,ImageRatingTask_S2,2021.1.4,Win32,61.03143119,,,,,,,,,
,,,,,,,,,,,,0,5,5,5,1,sixth,9,21,male,R,Donders,2021-07-14_08h40.23.505,ImageRatingTask_S2,2021.1.4,Win32,61.03143119,,,,,,,,,
,,,,,,,,,,,,0,6,6,6,1,seventh,9,21,male,R,Donders,2021-07-14_08h40.23.505,ImageRatingTask_S2,2021.1.4,Win32,61.03143119,,,,,,,,,
,,,,,,,,,,,,0,7,7,7,1,last,9,21,male,R,Donders,2021-07-14_08h40.23.505,ImageRatingTask_S2,2021.1.4,Win32,61.03143119,,,,,,,,,
,,,,,,,,,,,,,,,,,,9,21,male,R,Donders,2021-07-14_08h40.23.505,ImageRatingTask_S2,2021.1.4,Win32,61.03143119,0,33,33,16,1,DreamStudyImages_rs1000x750g/Houses/Pollution 1.jpg,,,
,,5,12.717,1,0.6369,7,1.7342,1,0.7457,8,0.8568,0,0,0,0,1,main,9,21,male,R,Donders,2021-07-14_08h40.23.505,ImageRatingTask_S2,2021.1.4,Win32,61.03143119,,,,,,,,,
,,,,,,,,,,,,0,1,1,1,1,second,9,21,male,R,Donders,2021-07-14_08h40.23.505,ImageRatingTask_S2,2021.1.4,Win32,61.03143119,,,,,,,,,
,,,,,,,,,,,,0,2,2,2,1,third,9,21,male,R,Donders,2021-07-14_08h40.23.505,ImageRatingTask_S2,2021.1.4,Win32,61.03143119,,,,,,,,,
,,,,,,,,,,,,0,3,3,3,1,fourth,9,21,male,R,Donders,2021-07-14_08h40.23.505,ImageRatingTask_S2,2021.1.4,Win32,61.03143119,,,,,,,,,
,,,,,,,,,,,,0,4,4,4,1,fifth,9,21,male,R,Donders,2021-07-14_08h40.23.505,ImageRatingTask_S2,2021.1.4,Win32,61.03143119,,,,,,,,,
,,,,,,,,,,,,0,5,5,5,1,sixth,9,21,male,R,Donders,2021-07-14_08h40.23.505,ImageRatingTask_S2,2021.1.4,Win32,61.03143119,,,,,,,,,
,,,,,,,,,,,,0,6,6,6,1,seventh,9,21,male,R,Donders,2021-07-14_08h40.23.505,ImageRatingTask_S2,2021.1.4,Win32,61.03143119,,,,,,,,,
,,,,,,,,,,,,0,7,7,7,1,last,9,21,male,R,Donders,2021-07-14_08h40.23.505,ImageRatingTask_S2,2021.1.4,Win32,61.03143119,,,,,,,,,
,,,,,,,,,,,,,,,,,,9,21,male,R,Donders,2021-07-14_08h40.23.505,ImageRatingTask_S2,2021.1.4,Win32,61.03143119,0,34,34,128,1,DreamStudyImages_rs1000x750g/Water/Landscapes_164_h.jpg,,,
,,3,2.9606,1,0.8089,4,1.5286,1,1.0157,8,0.8052,0,0,0,0,1,main,9,21,male,R,Donders,2021-07-14_08h40.23.505,ImageRatingTask_S2,2021.1.4,Win32,61.03143119,,,,,,,,,
,,,,,,,,,,,,0,1,1,1,1,second,9,21,male,R,Donders,2021-07-14_08h40.23.505,ImageRatingTask_S2,2021.1.4,Win32,61.03143119,,,,,,,,,
,,,,,,,,,,,,0,2,2,2,1,third,9,21,male,R,Donders,2021-07-14_08h40.23.505,ImageRatingTask_S2,2021.1.4,Win32,61.03143119,,,,,,,,,
,,,,,,,,,,,,0,3,3,3,1,fourth,9,21,male,R,Donders,2021-07-14_08h40.23.505,ImageRatingTask_S2,2021.1.4,Win32,61.03143119,,,,,,,,,
,,,,,,,,,,,,0,4,4,4,1,fifth,9,21,male,R,Donders,2021-07-14_08h40.23.505,ImageRatingTask_S2,2021.1.4,Win32,61.03143119,,,,,,,,,
,,,,,,,,,,,,0,5,5,5,1,sixth,9,21,male,R,Donders,2021-07-14_08h40.23.505,ImageRatingTask_S2,2021.1.4,Win32,61.03143119,,,,,,,,,
,,,,,,,,,,,,0,6,6,6,1,seventh,9,21,male,R,Donders,2021-07-14_08h40.23.505,ImageRatingTask_S2,2021.1.4,Win32,61.03143119,,,,,,,,,
,,,,,,,,,,,,0,7,7,7,1,last,9,21,male,R,Donders,2021-07-14_08h40.23.505,ImageRatingTask_S2,2021.1.4,Win32,61.03143119,,,,,,,,,
,,,,,,,,,,,,,,,,,,9,21,male,R,Donders,2021-07-14_08h40.23.505,ImageRatingTask_S2,2021.1.4,Win32,61.03143119,0,35,35,85,1,DreamStudyImages_rs1000x750g/Water/NDPS124_swamp.jpg,,,
,,7,7.5744,2,3.0945,3,1.5028,1,3.2293,2,0.5389,0,0,0,0,1,main,9,21,male,R,Donders,2021-07-14_08h40.23.505,ImageRatingTask_S2,2021.1.4,Win32,61.03143119,,,,,,,,,
,,,,,,,,,,,,0,1,1,1,1,second,9,21,male,R,Donders,2021-07-14_08h40.23.505,ImageRatingTask_S2,2021.1.4,Win32,61.03143119,,,,,,,,,
,,,,,,,,,,,,0,2,2,2,1,third,9,21,male,R,Donders,2021-07-14_08h40.23.505,ImageRatingTask_S2,2021.1.4,Win32,61.03143119,,,,,,,,,
,,,,,,,,,,,,0,3,3,3,1,fourth,9,21,male,R,Donders,2021-07-14_08h40.23.505,ImageRatingTask_S2,2021.1.4,Win32,61.03143119,,,,,,,,,
,,,,,,,,,,,,0,4,4,4,1,fifth,9,21,male,R,Donders,2021-07-14_08h40.23.505,ImageRatingTask_S2,2021.1.4,Win32,61.03143119,,,,,,,,,
,,,,,,,,,,,,0,5,5,5,1,sixth,9,21,male,R,Donders,2021-07-14_08h40.23.505,ImageRatingTask_S2,2021.1.4,Win32,61.03143119,,,,,,,,,
,,,,,,,,,,,,0,6,6,6,1,seventh,9,21,male,R,Donders,2021-07-14_08h40.23.505,ImageRatingTask_S2,2021.1.4,Win32,61.03143119,,,,,,,,,
,,,,,,,,,,,,0,7,7,7,1,last,9,21,male,R,Donders,2021-07-14_08h40.23.505,ImageRatingTask_S2,2021.1.4,Win32,61.03143119,,,,,,,,,
,,,,,,,,,,,,,,,,,,9,21,male,R,Donders,2021-07-14_08h40.23.505,ImageRatingTask_S2,2021.1.4,Win32,61.03143119,0,36,36,14,1,DreamStudyImages_rs1000x750g/Children/IAPS2040_baby1.jpg,,,
,,4,2.8195,3,1.4649,4,6.4801,1,2.3968,6,0.7529,0,0,0,0,1,main,9,21,male,R,Donders,2021-07-14_08h40.23.505,ImageRatingTask_S2,2021.1.4,Win32,61.03143119,,,,,,,,,
,,,,,,,,,,,,0,1,1,1,1,second,9,21,male,R,Donders,2021-07-14_08h40.23.505,ImageRatingTask_S2,2021.1.4,Win32,61.03143119,,,,,,,,,
,,,,,,,,,,,,0,2,2,2,1,third,9,21,male,R,Donders,2021-07-14_08h40.23.505,ImageRatingTask_S2,2021.1.4,Win32,61.03143119,,,,,,,,,
,,,,,,,,,,,,0,3,3,3,1,fourth,9,21,male,R,Donders,2021-07-14_08h40.23.505,ImageRatingTask_S2,2021.1.4,Win32,61.03143119,,,,,,,,,
,,,,,,,,,,,,0,4,4,4,1,fifth,9,21,male,R,Donders,2021-07-14_08h40.23.505,ImageRatingTask_S2,2021.1.4,Win32,61.03143119,,,,,,,,,
,,,,,,,,,,,,0,5,5,5,1,sixth,9,21,male,R,Donders,2021-07-14_08h40.23.505,ImageRatingTask_S2,2021.1.4,Win32,61.03143119,,,,,,,,,
,,,,,,,,,,,,0,6,6,6,1,seventh,9,21,male,R,Donders,2021-07-14_08h40.23.505,ImageRatingTask_S2,2021.1.4,Win32,61.03143119,,,,,,,,,
,,,,,,,,,,,,0,7,7,7,1,last,9,21,male,R,Donders,2021-07-14_08h40.23.505,ImageRatingTask_S2,2021.1.4,Win32,61.03143119,,,,,,,,,
,,,,,,,,,,,,,,,,,,9,21,male,R,Donders,2021-07-14_08h40.23.505,ImageRatingTask_S2,2021.1.4,Win32,61.03143119,0,37,37,60,1,DreamStudyImages_rs1000x750g/Houses/Objects_162_h.jpg,,,
,,6,3.2628,1,0.7239,7,4.2906,2,1.1626,6,1.2139,0,0,0,0,1,main,9,21,male,R,Donders,2021-07-14_08h40.23.505,ImageRatingTask_S2,2021.1.4,Win32,61.03143119,,,,,,,,,
,,,,,,,,,,8,0.3535,0,1,1,1,1,second,9,21,male,R,Donders,2021-07-14_08h40.23.505,ImageRatingTask_S2,2021.1.4,Win32,61.03143119,,,,,,,,,
,,,,,,,,,,,,0,2,2,2,1,third,9,21,male,R,Donders,2021-07-14_08h40.23.505,ImageRatingTask_S2,2021.1.4,Win32,61.03143119,,,,,,,,,
,,,,,,,,,,,,0,3,3,3,1,fourth,9,21,male,R,Donders,2021-07-14_08h40.23.505,ImageRatingTask_S2,2021.1.4,Win32,61.03143119,,,,,,,,,
,,,,,,,,,,,,0,4,4,4,1,fifth,9,21,male,R,Donders,2021-07-14_08h40.23.505,ImageRatingTask_S2,2021.1.4,Win32,61.03143119,,,,,,,,,
,,,,,,,,,,,,0,5,5,5,1,sixth,9,21,male,R,Donders,2021-07-14_08h40.23.505,ImageRatingTask_S2,2021.1.4,Win32,61.03143119,,,,,,,,,
,,,,,,,,,,,,0,6,6,6,1,seventh,9,21,male,R,Donders,2021-07-14_08h40.23.505,ImageRatingTask_S2,2021.1.4,Win32,61.03143119,,,,,,,,,
,,,,,,,,,,,,0,7,7,7,1,last,9,21,male,R,Donders,2021-07-14_08h40.23.505,ImageRatingTask_S2,2021.1.4,Win32,61.03143119,,,,,,,,,
,,,,,,,,,,,,,,,,,,9,21,male,R,Donders,2021-07-14_08h40.23.505,ImageRatingTask_S2,2021.1.4,Win32,61.03143119,0,38,38,127,1,DreamStudyImages_rs1000x750g/Houses/Landscapes_073_h.jpg,,,
,,6,13.5108,1,0.8506,3,1.7094,1,1.8299,6,1.4021,0,0,0,0,1,main,9,21,male,R,Donders,2021-07-14_08h40.23.505,ImageRatingTask_S2,2021.1.4,Win32,61.03143119,,,,,,,,,
,,,,,,,,,,,,0,1,1,1,1,second,9,21,male,R,Donders,2021-07-14_08h40.23.505,ImageRatingTask_S2,2021.1.4,Win32,61.03143119,,,,,,,,,
,,,,,,,,,,,,0,2,2,2,1,third,9,21,male,R,Donders,2021-07-14_08h40.23.505,ImageRatingTask_S2,2021.1.4,Win32,61.03143119,,,,,,,,,
,,,,,,,,,,,,0,3,3,3,1,fourth,9,21,male,R,Donders,2021-07-14_08h40.23.505,ImageRatingTask_S2,2021.1.4,Win32,61.03143119,,,,,,,,,
,,,,,,,,,,,,0,4,4,4,1,fifth,9,21,male,R,Donders,2021-07-14_08h40.23.505,ImageRatingTask_S2,2021.1.4,Win32,61.03143119,,,,,,,,,
,,,,,,,,,,,,0,5,5,5,1,sixth,9,21,male,R,Donders,2021-07-14_08h40.23.505,ImageRatingTask_S2,2021.1.4,Win32,61.03143119,,,,,,,,,
,,,,,,,,,,,,0,6,6,6,1,seventh,9,21,male,R,Donders,2021-07-14_08h40.23.505,ImageRatingTask_S2,2021.1.4,Win32,61.03143119,,,,,,,,,
,,,,,,,,,,,,0,7,7,7,1,last,9,21,male,R,Donders,2021-07-14_08h40.23.505,ImageRatingTask_S2,2021.1.4,Win32,61.03143119,,,,,,,,,
,,,,,,,,,,,,,,,,,,9,21,male,R,Donders,2021-07-14_08h40.23.505,ImageRatingTask_S2,2021.1.4,Win32,61.03143119,0,39,39,46,1,DreamStudyImages_rs1000x750g/Houses/IAPS5665_house.jpg,,,
,,3,2.8468,6,1.5076,4,2.2778,1,5.2492,3,0.8987,0,0,0,0,1,main,9,21,male,R,Donders,2021-07-14_08h40.23.505,ImageRatingTask_S2,2021.1.4,Win32,61.03143119,,,,,,,,,
,,,,,,,,,,,,0,1,1,1,1,second,9,21,male,R,Donders,2021-07-14_08h40.23.505,ImageRatingTask_S2,2021.1.4,Win32,61.03143119,,,,,,,,,
,,,,,,,,,,,,0,2,2,2,1,third,9,21,male,R,Donders,2021-07-14_08h40.23.505,ImageRatingTask_S2,2021.1.4,Win32,61.03143119,,,,,,,,,
,,,,,,,,,,,,0,3,3,3,1,fourth,9,21,male,R,Donders,2021-07-14_08h40.23.505,ImageRatingTask_S2,2021.1.4,Win32,61.03143119,,,,,,,,,
,,,,,,,,,,,,0,4,4,4,1,fifth,9,21,male,R,Donders,2021-07-14_08h40.23.505,ImageRatingTask_S2,2021.1.4,Win32,61.03143119,,,,,,,,,
,,,,,,,,,,,,0,5,5,5,1,sixth,9,21,male,R,Donders,2021-07-14_08h40.23.505,ImageRatingTask_S2,2021.1.4,Win32,61.03143119,,,,,,,,,
,,,,,,,,,,,,0,6,6,6,1,seventh,9,21,male,R,Donders,2021-07-14_08h40.23.505,ImageRatingTask_S2,2021.1.4,Win32,61.03143119,,,,,,,,,
,,,,,,,,,,,,0,7,7,7,1,last,9,21,male,R,Donders,2021-07-14_08h40.23.505,ImageRatingTask_S2,2021.1.4,Win32,61.03143119,,,,,,,,,
,,,,,,,,,,,,,,,,,,9,21,male,R,Donders,2021-07-14_08h40.23.505,ImageRatingTask_S2,2021.1.4,Win32,61.03143119,0,40,40,93,1,DreamStudyImages_rs1000x750g/Mammals/Monkey 4.jpg,,,
,,7,4.5594,1,0.933,4,2.4525,1,2.6746,6,0.9177,0,0,0,0,1,main,9,21,male,R,Donders,2021-07-14_08h40.23.505,ImageRatingTask_S2,2021.1.4,Win32,61.03143119,,,,,,,,,
,,,,,,,,,,,,0,1,1,1,1,second,9,21,male,R,Donders,2021-07-14_08h40.23.505,ImageRatingTask_S2,2021.1.4,Win32,61.03143119,,,,,,,,,
,,,,,,,,,,,,0,2,2,2,1,third,9,21,male,R,Donders,2021-07-14_08h40.23.505,ImageRatingTask_S2,2021.1.4,Win32,61.03143119,,,,,,,,,
,,,,,,,,,,,,0,3,3,3,1,fourth,9,21,male,R,Donders,2021-07-14_08h40.23.505,ImageRatingTask_S2,2021.1.4,Win32,61.03143119,,,,,,,,,
,,,,,,,,,,,,0,4,4,4,1,fifth,9,21,male,R,Donders,2021-07-14_08h40.23.505,ImageRatingTask_S2,2021.1.4,Win32,61.03143119,,,,,,,,,
,,,,,,,,,,,,0,5,5,5,1,sixth,9,21,male,R,Donders,2021-07-14_08h40.23.505,ImageRatingTask_S2,2021.1.4,Win32,61.03143119,,,,,,,,,
,,,,,,,,,,,,0,6,6,6,1,seventh,9,21,male,R,Donders,2021-07-14_08h40.23.505,ImageRatingTask_S2,2021.1.4,Win32,61.03143119,,,,,,,,,
,,,,,,,,,,,,0,7,7,7,1,last,9,21,male,R,Donders,2021-07-14_08h40.23.505,ImageRatingTask_S2,2021.1.4,Win32,61.03143119,,,,,,,,,
,,,,,,,,,,,,,,,,,,9,21,male,R,Donders,2021-07-14_08h40.23.505,ImageRatingTask_S2,2021.1.4,Win32,61.03143119,0,41,41,42,1,DreamStudyImages_rs1000x750g/Houses/Landscapes_088_v.jpg,,,
,,7,2.9127,2,1.6286,4,3.1628,1,1.2016,7,0.8023,0,0,0,0,1,main,9,21,male,R,Donders,2021-07-14_08h40.23.505,ImageRatingTask_S2,2021.1.4,Win32,61.03143119,,,,,,,,,
,,,,,,,,,,,,0,1,1,1,1,second,9,21,male,R,Donders,2021-07-14_08h40.23.505,ImageRatingTask_S2,2021.1.4,Win32,61.03143119,,,,,,,,,
,,,,,,,,,,,,0,2,2,2,1,third,9,21,male,R,Donders,2021-07-14_08h40.23.505,ImageRatingTask_S2,2021.1.4,Win32,61.03143119,,,,,,,,,
,,,,,,,,,,,,0,3,3,3,1,fourth,9,21,male,R,Donders,2021-07-14_08h40.23.505,ImageRatingTask_S2,2021.1.4,Win32,61.03143119,,,,,,,,,
,,,,,,,,,,,,0,4,4,4,1,fifth,9,21,male,R,Donders,2021-07-14_08h40.23.505,ImageRatingTask_S2,2021.1.4,Win32,61.03143119,,,,,,,,,
,,,,,,,,,,,,0,5,5,5,1,sixth,9,21,male,R,Donders,2021-07-14_08h40.23.505,ImageRatingTask_S2,2021.1.4,Win32,61.03143119,,,,,,,,,
,,,,,,,,,,,,0,6,6,6,1,seventh,9,21,male,R,Donders,2021-07-14_08h40.23.505,ImageRatingTask_S2,2021.1.4,Win32,61.03143119,,,,,,,,,
,,,,,,,,,,,,0,7,7,7,1,last,9,21,male,R,Donders,2021-07-14_08h40.23.505,ImageRatingTask_S2,2021.1.4,Win32,61.03143119,,,,,,,,,
,,,,,,,,,,,,,,,,,,9,21,male,R,Donders,2021-07-14_08h40.23.505,ImageRatingTask_S2,2021.1.4,Win32,61.03143119,0,42,42,61,1,DreamStudyImages_rs1000x750g/Vehicles/Objects_205_h.jpg,,,
,,5,5.5991,1,0.7669,5,2.5229,1,0.8798,8,0.7963,0,0,0,0,1,main,9,21,male,R,Donders,2021-07-14_08h40.23.505,ImageRatingTask_S2,2021.1.4,Win32,61.03143119,,,,,,,,,
,,,,,,,,,,,,0,1,1,1,1,second,9,21,male,R,Donders,2021-07-14_08h40.23.505,ImageRatingTask_S2,2021.1.4,Win32,61.03143119,,,,,,,,,
,,,,,,,,,,,,0,2,2,2,1,third,9,21,male,R,Donders,2021-07-14_08h40.23.505,ImageRatingTask_S2,2021.1.4,Win32,61.03143119,,,,,,,,,
,,,,,,,,,,,,0,3,3,3,1,fourth,9,21,male,R,Donders,2021-07-14_08h40.23.505,ImageRatingTask_S2,2021.1.4,Win32,61.03143119,,,,,,,,,
,,,,,,,,,,,,0,4,4,4,1,fifth,9,21,male,R,Donders,2021-07-14_08h40.23.505,ImageRatingTask_S2,2021.1.4,Win32,61.03143119,,,,,,,,,
,,,,,,,,,,,,0,5,5,5,1,sixth,9,21,male,R,Donders,2021-07-14_08h40.23.505,ImageRatingTask_S2,2021.1.4,Win32,61.03143119,,,,,,,,,
,,,,,,,,,,,,0,6,6,6,1,seventh,9,21,male,R,Donders,2021-07-14_08h40.23.505,ImageRatingTask_S2,2021.1.4,Win32,61.03143119,,,,,,,,,
,,,,,,,,,,,,0,7,7,7,1,last,9,21,male,R,Donders,2021-07-14_08h40.23.505,ImageRatingTask_S2,2021.1.4,Win32,61.03143119,,,,,,,,,
,,,,,,,,,,,,,,,,,,9,21,male,R,Donders,2021-07-14_08h40.23.505,ImageRatingTask_S2,2021.1.4,Win32,61.03143119,0,43,43,43,1,DreamStudyImages_rs1000x750g/Water/water_neut_5.jpg,,,
,,2,1.8287,6,1.2001,6,1.5435,1,2.7981,2,0.2201,0,0,0,0,1,main,9,21,male,R,Donders,2021-07-14_08h40.23.505,ImageRatingTask_S2,2021.1.4,Win32,61.03143119,,,,,,,,,
,,,,,,,,,,,,0,1,1,1,1,second,9,21,male,R,Donders,2021-07-14_08h40.23.505,ImageRatingTask_S2,2021.1.4,Win32,61.03143119,,,,,,,,,
,,,,,,,,,,,,0,2,2,2,1,third,9,21,male,R,Donders,2021-07-14_08h40.23.505,ImageRatingTask_S2,2021.1.4,Win32,61.03143119,,,,,,,,,
,,,,,,,,,,,,0,3,3,3,1,fourth,9,21,male,R,Donders,2021-07-14_08h40.23.505,ImageRatingTask_S2,2021.1.4,Win32,61.03143119,,,,,,,,,
,,,,,,,,,,,,0,4,4,4,1,fifth,9,21,male,R,Donders,2021-07-14_08h40.23.505,ImageRatingTask_S2,2021.1.4,Win32,61.03143119,,,,,,,,,
,,,,,,,,,,,,0,5,5,5,1,sixth,9,21,male,R,Donders,2021-07-14_08h40.23.505,ImageRatingTask_S2,2021.1.4,Win32,61.03143119,,,,,,,,,
,,,,,,,,,,,,0,6,6,6,1,seventh,9,21,male,R,Donders,2021-07-14_08h40.23.505,ImageRatingTask_S2,2021.1.4,Win32,61.03143119,,,,,,,,,
,,,,,,,,,,,,0,7,7,7,1,last,9,21,male,R,Donders,2021-07-14_08h40.23.505,ImageRatingTask_S2,2021.1.4,Win32,61.03143119,,,,,,,,,
,,,,,,,,,,,,,,,,,,9,21,male,R,Donders,2021-07-14_08h40.23.505,ImageRatingTask_S2,2021.1.4,Win32,61.03143119,0,44,44,143,1,DreamStudyImages_rs1000x750g/Children/Faces_011_h.jpg,,,
,,6,5.4117,1,1.8225,2,1.4977,1,1.1182,7,0.5019,0,0,0,0,1,main,9,21,male,R,Donders,2021-07-14_08h40.23.505,ImageRatingTask_S2,2021.1.4,Win32,61.03143119,,,,,,,,,
,,,,,,,,,,,,0,1,1,1,1,second,9,21,male,R,Donders,2021-07-14_08h40.23.505,ImageRatingTask_S2,2021.1.4,Win32,61.03143119,,,,,,,,,
,,,,,,,,,,,,0,2,2,2,1,third,9,21,male,R,Donders,2021-07-14_08h40.23.505,ImageRatingTask_S2,2021.1.4,Win32,61.03143119,,,,,,,,,
,,,,,,,,,,,,0,3,3,3,1,fourth,9,21,male,R,Donders,2021-07-14_08h40.23.505,ImageRatingTask_S2,2021.1.4,Win32,61.03143119,,,,,,,,,
,,,,,,,,,,,,0,4,4,4,1,fifth,9,21,male,R,Donders,2021-07-14_08h40.23.505,ImageRatingTask_S2,2021.1.4,Win32,61.03143119,,,,,,,,,
,,,,,,,,,,,,0,5,5,5,1,sixth,9,21,male,R,Donders,2021-07-14_08h40.23.505,ImageRatingTask_S2,2021.1.4,Win32,61.03143119,,,,,,,,,
,,,,,,,,,,,,0,6,6,6,1,seventh,9,21,male,R,Donders,2021-07-14_08h40.23.505,ImageRatingTask_S2,2021.1.4,Win32,61.03143119,,,,,,,,,
,,,,,,,,,,,,0,7,7,7,1,last,9,21,male,R,Donders,2021-07-14_08h40.23.505,ImageRatingTask_S2,2021.1.4,Win32,61.03143119,,,,,,,,,
,,,,,,,,,,,,,,,,,,9,21,male,R,Donders,2021-07-14_08h40.23.505,ImageRatingTask_S2,2021.1.4,Win32,61.03143119,0,45,45,157,1,DreamStudyImages_rs1000x750g/Vehicles/IAPS7037_train2.jpg,,,
,,6,1.6758,1,3.6932,7,2.0435,1,1.1326,3,0.6788,0,0,0,0,1,main,9,21,male,R,Donders,2021-07-14_08h40.23.505,ImageRatingTask_S2,2021.1.4,Win32,61.03143119,,,,,,,,,
,,,,,,,,,,,,0,1,1,1,1,second,9,21,male,R,Donders,2021-07-14_08h40.23.505,ImageRatingTask_S2,2021.1.4,Win32,61.03143119,,,,,,,,,
,,,,,,,,,,,,0,2,2,2,1,third,9,21,male,R,Donders,2021-07-14_08h40.23.505,ImageRatingTask_S2,2021.1.4,Win32,61.03143119,,,,,,,,,
,,,,,,,,,,,,0,3,3,3,1,fourth,9,21,male,R,Donders,2021-07-14_08h40.23.505,ImageRatingTask_S2,2021.1.4,Win32,61.03143119,,,,,,,,,
,,,,,,,,,,,,0,4,4,4,1,fifth,9,21,male,R,Donders,2021-07-14_08h40.23.505,ImageRatingTask_S2,2021.1.4,Win32,61.03143119,,,,,,,,,
,,,,,,,,,,,,0,5,5,5,1,sixth,9,21,male,R,Donders,2021-07-14_08h40.23.505,ImageRatingTask_S2,2021.1.4,Win32,61.03143119,,,,,,,,,
,,,,,,,,,,,,0,6,6,6,1,seventh,9,21,male,R,Donders,2021-07-14_08h40.23.505,ImageRatingTask_S2,2021.1.4,Win32,61.03143119,,,,,,,,,
,,,,,,,,,,,,0,7,7,7,1,last,9,21,male,R,Donders,2021-07-14_08h40.23.505,ImageRatingTask_S2,2021.1.4,Win32,61.03143119,,,,,,,,,
,,,,,,,,,,,,,,,,,,9,21,male,R,Donders,2021-07-14_08h40.23.505,ImageRatingTask_S2,2021.1.4,Win32,61.03143119,0,46,46,136,1,DreamStudyImages_rs1000x750g/Mammals/Animals_083_h.jpg,,,
,,1,2.605,7,0.5469,3,6.0682,1,0.5958,3,4.6222,0,0,0,0,1,main,9,21,male,R,Donders,2021-07-14_08h40.23.505,ImageRatingTask_S2,2021.1.4,Win32,61.03143119,,,,,,,,,
,,,,,,,,,,,,0,1,1,1,1,second,9,21,male,R,Donders,2021-07-14_08h40.23.505,ImageRatingTask_S2,2021.1.4,Win32,61.03143119,,,,,,,,,
,,,,,,,,,,,,0,2,2,2,1,third,9,21,male,R,Donders,2021-07-14_08h40.23.505,ImageRatingTask_S2,2021.1.4,Win32,61.03143119,,,,,,,,,
,,,,,,,,,,,,0,3,3,3,1,fourth,9,21,male,R,Donders,2021-07-14_08h40.23.505,ImageRatingTask_S2,2021.1.4,Win32,61.03143119,,,,,,,,,
,,,,,,,,,,,,0,4,4,4,1,fifth,9,21,male,R,Donders,2021-07-14_08h40.23.505,ImageRatingTask_S2,2021.1.4,Win32,61.03143119,,,,,,,,,
,,,,,,,,,,,,0,5,5,5,1,sixth,9,21,male,R,Donders,2021-07-14_08h40.23.505,ImageRatingTask_S2,2021.1.4,Win32,61.03143119,,,,,,,,,
,,,,,,,,,,,,0,6,6,6,1,seventh,9,21,male,R,Donders,2021-07-14_08h40.23.505,ImageRatingTask_S2,2021.1.4,Win32,61.03143119,,,,,,,,,
,,,,,,,,,,,,0,7,7,7,1,last,9,21,male,R,Donders,2021-07-14_08h40.23.505,ImageRatingTask_S2,2021.1.4,Win32,61.03143119,,,,,,,,,
,,,,,,,,,,,,,,,,,,9,21,male,R,Donders,2021-07-14_08h40.23.505,ImageRatingTask_S2,2021.1.4,Win32,61.03143119,0,47,47,27,1,DreamStudyImages_rs1000x750g/Mammals/IAPS9180_deadseals.jpg,,,
,,5,3.386,1,1.1618,8,3.899,1,1.0807,7,0.9473,0,0,0,0,1,main,9,21,male,R,Donders,2021-07-14_08h40.23.505,ImageRatingTask_S2,2021.1.4,Win32,61.03143119,,,,,,,,,
,,,,,,,,,,,,0,1,1,1,1,second,9,21,male,R,Donders,2021-07-14_08h40.23.505,ImageRatingTask_S2,2021.1.4,Win32,61.03143119,,,,,,,,,
,,,,,,,,,,,,0,2,2,2,1,third,9,21,male,R,Donders,2021-07-14_08h40.23.505,ImageRatingTask_S2,2021.1.4,Win32,61.03143119,,,,,,,,,
,,,,,,,,,,,,0,3,3,3,1,fourth,9,21,male,R,Donders,2021-07-14_08h40.23.505,ImageRatingTask_S2,2021.1.4,Win32,61.03143119,,,,,,,,,
,,,,,,,,,,,,0,4,4,4,1,fifth,9,21,male,R,Donders,2021-07-14_08h40.23.505,ImageRatingTask_S2,2021.1.4,Win32,61.03143119,,,,,,,,,
,,,,,,,,,,,,0,5,5,5,1,sixth,9,21,male,R,Donders,2021-07-14_08h40.23.505,ImageRatingTask_S2,2021.1.4,Win32,61.03143119,,,,,,,,,
,,,,,,,,,,,,0,6,6,6,1,seventh,9,21,male,R,Donders,2021-07-14_08h40.23.505,ImageRatingTask_S2,2021.1.4,Win32,61.03143119,,,,,,,,,
,,,,,,,,,,,,0,7,7,7,1,last,9,21,male,R,Donders,2021-07-14_08h40.23.505,ImageRatingTask_S2,2021.1.4,Win32,61.03143119,,,,,,,,,
,,,,,,,,,,,,,,,,,,9,21,male,R,Donders,2021-07-14_08h40.23.505,ImageRatingTask_S2,2021.1.4,Win32,61.03143119,0,48,48,7,1,DreamStudyImages_rs1000x750g/Vehicles/muddyjeep.jpg,,,
,,6,2.0259,1,1.4068,7,2.0421,1,1.6692,5,0.9475,0,0,0,0,1,main,9,21,male,R,Donders,2021-07-14_08h40.23.505,ImageRatingTask_S2,2021.1.4,Win32,61.03143119,,,,,,,,,
,,,,,,,,,,,,0,1,1,1,1,second,9,21,male,R,Donders,2021-07-14_08h40.23.505,ImageRatingTask_S2,2021.1.4,Win32,61.03143119,,,,,,,,,
,,,,,,,,,,,,0,2,2,2,1,third,9,21,male,R,Donders,2021-07-14_08h40.23.505,ImageRatingTask_S2,2021.1.4,Win32,61.03143119,,,,,,,,,
,,,,,,,,,,,,0,3,3,3,1,fourth,9,21,male,R,Donders,2021-07-14_08h40.23.505,ImageRatingTask_S2,2021.1.4,Win32,61.03143119,,,,,,,,,
,,,,,,,,,,,,0,4,4,4,1,fifth,9,21,male,R,Donders,2021-07-14_08h40.23.505,ImageRatingTask_S2,2021.1.4,Win32,61.03143119,,,,,,,,,
,,,,,,,,,,,,0,5,5,5,1,sixth,9,21,male,R,Donders,2021-07-14_08h40.23.505,ImageRatingTask_S2,2021.1.4,Win32,61.03143119,,,,,,,,,
,,,,,,,,,,,,0,6,6,6,1,seventh,9,21,male,R,Donders,2021-07-14_08h40.23.505,ImageRatingTask_S2,2021.1.4,Win32,61.03143119,,,,,,,,,
,,,,,,,,,,,,0,7,7,7,1,last,9,21,male,R,Donders,2021-07-14_08h40.23.505,ImageRatingTask_S2,2021.1.4,Win32,61.03143119,,,,,,,,,
,,,,,,,,,,,,,,,,,,9,21,male,R,Donders,2021-07-14_08h40.23.505,ImageRatingTask_S2,2021.1.4,Win32,61.03143119,0,49,49,88,1,DreamStudyImages_rs1000x750g/Food/Objects_058_h.jpg,,,
,,7,5.959,1,0.7124,2,0.6323,1,0.8803,3,0.764,0,0,0,0,1,main,9,21,male,R,Donders,2021-07-14_08h40.23.505,ImageRatingTask_S2,2021.1.4,Win32,61.03143119,,,,,,,,,
,,,,,,,,,,,,0,1,1,1,1,second,9,21,male,R,Donders,2021-07-14_08h40.23.505,ImageRatingTask_S2,2021.1.4,Win32,61.03143119,,,,,,,,,
,,,,,,,,,,,,0,2,2,2,1,third,9,21,male,R,Donders,2021-07-14_08h40.23.505,ImageRatingTask_S2,2021.1.4,Win32,61.03143119,,,,,,,,,
,,,,,,,,,,,,0,3,3,3,1,fourth,9,21,male,R,Donders,2021-07-14_08h40.23.505,ImageRatingTask_S2,2021.1.4,Win32,61.03143119,,,,,,,,,
,,,,,,,,,,,,0,4,4,4,1,fifth,9,21,male,R,Donders,2021-07-14_08h40.23.505,ImageRatingTask_S2,2021.1.4,Win32,61.03143119,,,,,,,,,
,,,,,,,,,,,,0,5,5,5,1,sixth,9,21,male,R,Donders,2021-07-14_08h40.23.505,ImageRatingTask_S2,2021.1.4,Win32,61.03143119,,,,,,,,,
,,,,,,,,,,,,0,6,6,6,1,seventh,9,21,male,R,Donders,2021-07-14_08h40.23.505,ImageRatingTask_S2,2021.1.4,Win32,61.03143119,,,,,,,,,
,,,,,,,,,,,,0,7,7,7,1,last,9,21,male,R,Donders,2021-07-14_08h40.23.505,ImageRatingTask_S2,2021.1.4,Win32,61.03143119,,,,,,,,,
,,,,,,,,,,,,,,,,,,9,21,male,R,Donders,2021-07-14_08h40.23.505,ImageRatingTask_S2,2021.1.4,Win32,61.03143119,0,50,50,148,1,DreamStudyImages_rs1000x750g/Mammals/Animals_191_h.jpg,,,
,,6,4.112,1,0.5555,2,0.6251,1,0.7924,5,0.698,0,0,0,0,1,main,9,21,male,R,Donders,2021-07-14_08h40.23.505,ImageRatingTask_S2,2021.1.4,Win32,61.03143119,,,,,,,,,
,,,,,,,,,,,,0,1,1,1,1,second,9,21,male,R,Donders,2021-07-14_08h40.23.505,ImageRatingTask_S2,2021.1.4,Win32,61.03143119,,,,,,,,,
,,,,,,,,,,,,0,2,2,2,1,third,9,21,male,R,Donders,2021-07-14_08h40.23.505,ImageRatingTask_S2,2021.1.4,Win32,61.03143119,,,,,,,,,
,,,,,,,,,,,,0,3,3,3,1,fourth,9,21,male,R,Donders,2021-07-14_08h40.23.505,ImageRatingTask_S2,2021.1.4,Win32,61.03143119,,,,,,,,,
,,,,,,,,,,,,0,4,4,4,1,fifth,9,21,male,R,Donders,2021-07-14_08h40.23.505,ImageRatingTask_S2,2021.1.4,Win32,61.03143119,,,,,,,,,
,,,,,,,,,,,,0,5,5,5,1,sixth,9,21,male,R,Donders,2021-07-14_08h40.23.505,ImageRatingTask_S2,2021.1.4,Win32,61.03143119,,,,,,,,,
,,,,,,,,,,,,0,6,6,6,1,seventh,9,21,male,R,Donders,2021-07-14_08h40.23.505,ImageRatingTask_S2,2021.1.4,Win32,61.03143119,,,,,,,,,
,,,,,,,,,,,,0,7,7,7,1,last,9,21,male,R,Donders,2021-07-14_08h40.23.505,ImageRatingTask_S2,2021.1.4,Win32,61.03143119,,,,,,,,,
,,,,,,,,,,,,,,,,,,9,21,male,R,Donders,2021-07-14_08h40.23.505,ImageRatingTask_S2,2021.1.4,Win32,61.03143119,0,51,51,34,1,DreamStudyImages_rs1000x750g/Food/IAPS7482_diner4.jpg,,,
,,6,2.0183,1,0.6077,8,2.8441,1,1.7653,7,1.9721,0,0,0,0,1,main,9,21,male,R,Donders,2021-07-14_08h40.23.505,ImageRatingTask_S2,2021.1.4,Win32,61.03143119,,,,,,,,,
,,,,,,,,,,,,0,1,1,1,1,second,9,21,male,R,Donders,2021-07-14_08h40.23.505,ImageRatingTask_S2,2021.1.4,Win32,61.03143119,,,,,,,,,
,,,,,,,,,,,,0,2,2,2,1,third,9,21,male,R,Donders,2021-07-14_08h40.23.505,ImageRatingTask_S2,2021.1.4,Win32,61.03143119,,,,,,,,,
,,,,,,,,,,,,0,3,3,3,1,fourth,9,21,male,R,Donders,2021-07-14_08h40.23.505,ImageRatingTask_S2,2021.1.4,Win32,61.03143119,,,,,,,,,
,,,,,,,,,,,,0,4,4,4,1,fifth,9,21,male,R,Donders,2021-07-14_08h40.23.505,ImageRatingTask_S2,2021.1.4,Win32,61.03143119,,,,,,,,,
,,,,,,,,,,,,0,5,5,5,1,sixth,9,21,male,R,Donders,2021-07-14_08h40.23.505,ImageRatingTask_S2,2021.1.4,Win32,61.03143119,,,,,,,,,
,,,,,,,,,,,,0,6,6,6,1,seventh,9,21,male,R,Donders,2021-07-14_08h40.23.505,ImageRatingTask_S2,2021.1.4,Win32,61.03143119,,,,,,,,,
,,,,,,,,,,,,0,7,7,7,1,last,9,21,male,R,Donders,2021-07-14_08h40.23.505,ImageRatingTask_S2,2021.1.4,Win32,61.03143119,,,,,,,,,
,,,,,,,,,,,,,,,,,,9,21,male,R,Donders,2021-07-14_08h40.23.505,ImageRatingTask_S2,2021.1.4,Win32,61.03143119,0,52,52,82,1,DreamStudyImages_rs1000x750g/Vehicles/truckfleet.jpg,,,
,,7,3.7574,1,0.8283,6,3.1006,3,1.6955,2,0.9344,0,0,0,0,1,main,9,21,male,R,Donders,2021-07-14_08h40.23.505,ImageRatingTask_S2,2021.1.4,Win32,61.03143119,,,,,,,,,
,,,,,,,,,,1,0.3839,0,1,1,1,1,second,9,21,male,R,Donders,2021-07-14_08h40.23.505,ImageRatingTask_S2,2021.1.4,Win32,61.03143119,,,,,,,,,
,,,,,,,,,,6,0.4339,0,2,2,2,1,third,9,21,male,R,Donders,2021-07-14_08h40.23.505,ImageRatingTask_S2,2021.1.4,Win32,61.03143119,,,,,,,,,
,,,,,,,,,,,,0,3,3,3,1,fourth,9,21,male,R,Donders,2021-07-14_08h40.23.505,ImageRatingTask_S2,2021.1.4,Win32,61.03143119,,,,,,,,,
,,,,,,,,,,,,0,4,4,4,1,fifth,9,21,male,R,Donders,2021-07-14_08h40.23.505,ImageRatingTask_S2,2021.1.4,Win32,61.03143119,,,,,,,,,
,,,,,,,,,,,,0,5,5,5,1,sixth,9,21,male,R,Donders,2021-07-14_08h40.23.505,ImageRatingTask_S2,2021.1.4,Win32,61.03143119,,,,,,,,,
,,,,,,,,,,,,0,6,6,6,1,seventh,9,21,male,R,Donders,2021-07-14_08h40.23.505,ImageRatingTask_S2,2021.1.4,Win32,61.03143119,,,,,,,,,
,,,,,,,,,,,,0,7,7,7,1,last,9,21,male,R,Donders,2021-07-14_08h40.23.505,ImageRatingTask_S2,2021.1.4,Win32,61.03143119,,,,,,,,,
,,,,,,,,,,,,,,,,,,9,21,male,R,Donders,2021-07-14_08h40.23.505,ImageRatingTask_S2,2021.1.4,Win32,61.03143119,0,53,53,101,1,DreamStudyImages_rs1000x750g/Children/People_043_h.jpg,,,
,,4,2.2129,1,0.842,1,1.2007,1,2.8512,6,0.7127,0,0,0,0,1,main,9,21,male,R,Donders,2021-07-14_08h40.23.505,ImageRatingTask_S2,2021.1.4,Win32,61.03143119,,,,,,,,,
,,,,,,,,,,,,0,1,1,1,1,second,9,21,male,R,Donders,2021-07-14_08h40.23.505,ImageRatingTask_S2,2021.1.4,Win32,61.03143119,,,,,,,,,
,,,,,,,,,,,,0,2,2,2,1,third,9,21,male,R,Donders,2021-07-14_08h40.23.505,ImageRatingTask_S2,2021.1.4,Win32,61.03143119,,,,,,,,,
,,,,,,,,,,,,0,3,3,3,1,fourth,9,21,male,R,Donders,2021-07-14_08h40.23.505,ImageRatingTask_S2,2021.1.4,Win32,61.03143119,,,,,,,,,
,,,,,,,,,,,,0,4,4,4,1,fifth,9,21,male,R,Donders,2021-07-14_08h40.23.505,ImageRatingTask_S2,2021.1.4,Win32,61.03143119,,,,,,,,,
,,,,,,,,,,,,0,5,5,5,1,sixth,9,21,male,R,Donders,2021-07-14_08h40.23.505,ImageRatingTask_S2,2021.1.4,Win32,61.03143119,,,,,,,,,
,,,,,,,,,,,,0,6,6,6,1,seventh,9,21,male,R,Donders,2021-07-14_08h40.23.505,ImageRatingTask_S2,2021.1.4,Win32,61.03143119,,,,,,,,,
,,,,,,,,,,,,0,7,7,7,1,last,9,21,male,R,Donders,2021-07-14_08h40.23.505,ImageRatingTask_S2,2021.1.4,Win32,61.03143119,,,,,,,,,
,,,,,,,,,,,,,,,,,,9,21,male,R,Donders,2021-07-14_08h40.23.505,ImageRatingTask_S2,2021.1.4,Win32,61.03143119,0,54,54,67,1,DreamStudyImages_rs1000x750g/Houses/House 1.jpg,,,
,,4,10.3785,1,0.5911,6,3.5886,1,1.0077,8,0.6312,0,0,0,0,1,main,9,21,male,R,Donders,2021-07-14_08h40.23.505,ImageRatingTask_S2,2021.1.4,Win32,61.03143119,,,,,,,,,
,,,,,,,,,,,,0,1,1,1,1,second,9,21,male,R,Donders,2021-07-14_08h40.23.505,ImageRatingTask_S2,2021.1.4,Win32,61.03143119,,,,,,,,,
,,,,,,,,,,,,0,2,2,2,1,third,9,21,male,R,Donders,2021-07-14_08h40.23.505,ImageRatingTask_S2,2021.1.4,Win32,61.03143119,,,,,,,,,
,,,,,,,,,,,,0,3,3,3,1,fourth,9,21,male,R,Donders,2021-07-14_08h40.23.505,ImageRatingTask_S2,2021.1.4,Win32,61.03143119,,,,,,,,,
,,,,,,,,,,,,0,4,4,4,1,fifth,9,21,male,R,Donders,2021-07-14_08h40.23.505,ImageRatingTask_S2,2021.1.4,Win32,61.03143119,,,,,,,,,
,,,,,,,,,,,,0,5,5,5,1,sixth,9,21,male,R,Donders,2021-07-14_08h40.23.505,ImageRatingTask_S2,2021.1.4,Win32,61.03143119,,,,,,,,,
,,,,,,,,,,,,0,6,6,6,1,seventh,9,21,male,R,Donders,2021-07-14_08h40.23.505,ImageRatingTask_S2,2021.1.4,Win32,61.03143119,,,,,,,,,
,,,,,,,,,,,,0,7,7,7,1,last,9,21,male,R,Donders,2021-07-14_08h40.23.505,ImageRatingTask_S2,2021.1.4,Win32,61.03143119,,,,,,,,,
,,,,,,,,,,,,,,,,,,9,21,male,R,Donders,2021-07-14_08h40.23.505,ImageRatingTask_S2,2021.1.4,Win32,61.03143119,0,55,55,122,1,DreamStudyImages_rs1000x750g/Water/46.jpg,,,
,,7,2.748,1,0.888,4,1.9116,2,3.4245,2,0.3115,0,0,0,0,1,main,9,21,male,R,Donders,2021-07-14_08h40.23.505,ImageRatingTask_S2,2021.1.4,Win32,61.03143119,,,,,,,,,
,,,,,,,,,,8,0.5537,0,1,1,1,1,second,9,21,male,R,Donders,2021-07-14_08h40.23.505,ImageRatingTask_S2,2021.1.4,Win32,61.03143119,,,,,,,,,
,,,,,,,,,,,,0,2,2,2,1,third,9,21,male,R,Donders,2021-07-14_08h40.23.505,ImageRatingTask_S2,2021.1.4,Win32,61.03143119,,,,,,,,,
,,,,,,,,,,,,0,3,3,3,1,fourth,9,21,male,R,Donders,2021-07-14_08h40.23.505,ImageRatingTask_S2,2021.1.4,Win32,61.03143119,,,,,,,,,
,,,,,,,,,,,,0,4,4,4,1,fifth,9,21,male,R,Donders,2021-07-14_08h40.23.505,ImageRatingTask_S2,2021.1.4,Win32,61.03143119,,,,,,,,,
,,,,,,,,,,,,0,5,5,5,1,sixth,9,21,male,R,Donders,2021-07-14_08h40.23.505,ImageRatingTask_S2,2021.1.4,Win32,61.03143119,,,,,,,,,
,,,,,,,,,,,,0,6,6,6,1,seventh,9,21,male,R,Donders,2021-07-14_08h40.23.505,ImageRatingTask_S2,2021.1.4,Win32,61.03143119,,,,,,,,,
,,,,,,,,,,,,0,7,7,7,1,last,9,21,male,R,Donders,2021-07-14_08h40.23.505,ImageRatingTask_S2,2021.1.4,Win32,61.03143119,,,,,,,,,
,,,,,,,,,,,,,,,,,,9,21,male,R,Donders,2021-07-14_08h40.23.505,ImageRatingTask_S2,2021.1.4,Win32,61.03143119,0,56,56,105,1,DreamStudyImages_rs1000x750g/Children/Faces_155_h.jpg,,,
,,4,5.2622,1,0.5973,7,2.0501,2,2.918,2,0.4577,0,0,0,0,1,main,9,21,male,R,Donders,2021-07-14_08h40.23.505,ImageRatingTask_S2,2021.1.4,Win32,61.03143119,,,,,,,,,
,,,,,,,,,,1,0.1183,0,1,1,1,1,second,9,21,male,R,Donders,2021-07-14_08h40.23.505,ImageRatingTask_S2,2021.1.4,Win32,61.03143119,,,,,,,,,
,,,,,,,,,,,,0,2,2,2,1,third,9,21,male,R,Donders,2021-07-14_08h40.23.505,ImageRatingTask_S2,2021.1.4,Win32,61.03143119,,,,,,,,,
,,,,,,,,,,,,0,3,3,3,1,fourth,9,21,male,R,Donders,2021-07-14_08h40.23.505,ImageRatingTask_S2,2021.1.4,Win32,61.03143119,,,,,,,,,
,,,,,,,,,,,,0,4,4,4,1,fifth,9,21,male,R,Donders,2021-07-14_08h40.23.505,ImageRatingTask_S2,2021.1.4,Win32,61.03143119,,,,,,,,,
,,,,,,,,,,,,0,5,5,5,1,sixth,9,21,male,R,Donders,2021-07-14_08h40.23.505,ImageRatingTask_S2,2021.1.4,Win32,61.03143119,,,,,,,,,
,,,,,,,,,,,,0,6,6,6,1,seventh,9,21,male,R,Donders,2021-07-14_08h40.23.505,ImageRatingTask_S2,2021.1.4,Win32,61.03143119,,,,,,,,,
,,,,,,,,,,,,0,7,7,7,1,last,9,21,male,R,Donders,2021-07-14_08h40.23.505,ImageRatingTask_S2,2021.1.4,Win32,61.03143119,,,,,,,,,
,,,,,,,,,,,,,,,,,,9,21,male,R,Donders,2021-07-14_08h40.23.505,ImageRatingTask_S2,2021.1.4,Win32,61.03143119,0,57,57,125,1,DreamStudyImages_rs1000x750g/Children/Faces_039_h.jpg,,,
,,7,2.7082,1,1.5938,3,2.9679,1,1.1073,3,0.4218,0,0,0,0,1,main,9,21,male,R,Donders,2021-07-14_08h40.23.505,ImageRatingTask_S2,2021.1.4,Win32,61.03143119,,,,,,,,,
,,,,,,,,,,,,0,1,1,1,1,second,9,21,male,R,Donders,2021-07-14_08h40.23.505,ImageRatingTask_S2,2021.1.4,Win32,61.03143119,,,,,,,,,
,,,,,,,,,,,,0,2,2,2,1,third,9,21,male,R,Donders,2021-07-14_08h40.23.505,ImageRatingTask_S2,2021.1.4,Win32,61.03143119,,,,,,,,,
,,,,,,,,,,,,0,3,3,3,1,fourth,9,21,male,R,Donders,2021-07-14_08h40.23.505,ImageRatingTask_S2,2021.1.4,Win32,61.03143119,,,,,,,,,
,,,,,,,,,,,,0,4,4,4,1,fifth,9,21,male,R,Donders,2021-07-14_08h40.23.505,ImageRatingTask_S2,2021.1.4,Win32,61.03143119,,,,,,,,,
,,,,,,,,,,,,0,5,5,5,1,sixth,9,21,male,R,Donders,2021-07-14_08h40.23.505,ImageRatingTask_S2,2021.1.4,Win32,61.03143119,,,,,,,,,
,,,,,,,,,,,,0,6,6,6,1,seventh,9,21,male,R,Donders,2021-07-14_08h40.23.505,ImageRatingTask_S2,2021.1.4,Win32,61.03143119,,,,,,,,,
,,,,,,,,,,,,0,7,7,7,1,last,9,21,male,R,Donders,2021-07-14_08h40.23.505,ImageRatingTask_S2,2021.1.4,Win32,61.03143119,,,,,,,,,
,,,,,,,,,,,,,,,,,,9,21,male,R,Donders,2021-07-14_08h40.23.505,ImageRatingTask_S2,2021.1.4,Win32,61.03143119,0,58,58,145,1,DreamStudyImages_rs1000x750g/Mammals/Orangutan 1.jpg,,,
,,2,4.6677,5,0.9395,3,1.4784,1,1.1694,8,0.6649,0,0,0,0,1,main,9,21,male,R,Donders,2021-07-14_08h40.23.505,ImageRatingTask_S2,2021.1.4,Win32,61.03143119,,,,,,,,,
,,,,,,,,,,,,0,1,1,1,1,second,9,21,male,R,Donders,2021-07-14_08h40.23.505,ImageRatingTask_S2,2021.1.4,Win32,61.03143119,,,,,,,,,
,,,,,,,,,,,,0,2,2,2,1,third,9,21,male,R,Donders,2021-07-14_08h40.23.505,ImageRatingTask_S2,2021.1.4,Win32,61.03143119,,,,,,,,,
,,,,,,,,,,,,0,3,3,3,1,fourth,9,21,male,R,Donders,2021-07-14_08h40.23.505,ImageRatingTask_S2,2021.1.4,Win32,61.03143119,,,,,,,,,
,,,,,,,,,,,,0,4,4,4,1,fifth,9,21,male,R,Donders,2021-07-14_08h40.23.505,ImageRatingTask_S2,2021.1.4,Win32,61.03143119,,,,,,,,,
,,,,,,,,,,,,0,5,5,5,1,sixth,9,21,male,R,Donders,2021-07-14_08h40.23.505,ImageRatingTask_S2,2021.1.4,Win32,61.03143119,,,,,,,,,
,,,,,,,,,,,,0,6,6,6,1,seventh,9,21,male,R,Donders,2021-07-14_08h40.23.505,ImageRatingTask_S2,2021.1.4,Win32,61.03143119,,,,,,,,,
,,,,,,,,,,,,0,7,7,7,1,last,9,21,male,R,Donders,2021-07-14_08h40.23.505,ImageRatingTask_S2,2021.1.4,Win32,61.03143119,,,,,,,,,
,,,,,,,,,,,,,,,,,,9,21,male,R,Donders,2021-07-14_08h40.23.505,ImageRatingTask_S2,2021.1.4,Win32,61.03143119,0,59,59,108,1,DreamStudyImages_rs1000x750g/Water/Landscapes_108_v.jpg,,,
,,6,11.0918,1,0.6407,6,1.9174,1,0.7525,8,0.6999,0,0,0,0,1,main,9,21,male,R,Donders,2021-07-14_08h40.23.505,ImageRatingTask_S2,2021.1.4,Win32,61.03143119,,,,,,,,,
,,,,,,,,,,,,0,1,1,1,1,second,9,21,male,R,Donders,2021-07-14_08h40.23.505,ImageRatingTask_S2,2021.1.4,Win32,61.03143119,,,,,,,,,
,,,,,,,,,,,,0,2,2,2,1,third,9,21,male,R,Donders,2021-07-14_08h40.23.505,ImageRatingTask_S2,2021.1.4,Win32,61.03143119,,,,,,,,,
,,,,,,,,,,,,0,3,3,3,1,fourth,9,21,male,R,Donders,2021-07-14_08h40.23.505,ImageRatingTask_S2,2021.1.4,Win32,61.03143119,,,,,,,,,
,,,,,,,,,,,,0,4,4,4,1,fifth,9,21,male,R,Donders,2021-07-14_08h40.23.505,ImageRatingTask_S2,2021.1.4,Win32,61.03143119,,,,,,,,,
,,,,,,,,,,,,0,5,5,5,1,sixth,9,21,male,R,Donders,2021-07-14_08h40.23.505,ImageRatingTask_S2,2021.1.4,Win32,61.03143119,,,,,,,,,
,,,,,,,,,,,,0,6,6,6,1,seventh,9,21,male,R,Donders,2021-07-14_08h40.23.505,ImageRatingTask_S2,2021.1.4,Win32,61.03143119,,,,,,,,,
,,,,,,,,,,,,0,7,7,7,1,last,9,21,male,R,Donders,2021-07-14_08h40.23.505,ImageRatingTask_S2,2021.1.4,Win32,61.03143119,,,,,,,,,
,,,,,,,,,,,,,,,,,,9,21,male,R,Donders,2021-07-14_08h40.23.505,ImageRatingTask_S2,2021.1.4,Win32,61.03143119,0,60,60,54,1,DreamStudyImages_rs1000x750g/Water/rockyriver.jpg,,,
,,3,2.3278,1,0.8446,4,4.9761,2,2.2629,8,0.912,0,0,0,0,1,main,9,21,male,R,Donders,2021-07-14_08h40.23.505,ImageRatingTask_S2,2021.1.4,Win32,61.03143119,,,,,,,,,
,,,,,,,,,,6,0.3833,0,1,1,1,1,second,9,21,male,R,Donders,2021-07-14_08h40.23.505,ImageRatingTask_S2,2021.1.4,Win32,61.03143119,,,,,,,,,
,,,,,,,,,,,,0,2,2,2,1,third,9,21,male,R,Donders,2021-07-14_08h40.23.505,ImageRatingTask_S2,2021.1.4,Win32,61.03143119,,,,,,,,,
,,,,,,,,,,,,0,3,3,3,1,fourth,9,21,male,R,Donders,2021-07-14_08h40.23.505,ImageRatingTask_S2,2021.1.4,Win32,61.03143119,,,,,,,,,
,,,,,,,,,,,,0,4,4,4,1,fifth,9,21,male,R,Donders,2021-07-14_08h40.23.505,ImageRatingTask_S2,2021.1.4,Win32,61.03143119,,,,,,,,,
,,,,,,,,,,,,0,5,5,5,1,sixth,9,21,male,R,Donders,2021-07-14_08h40.23.505,ImageRatingTask_S2,2021.1.4,Win32,61.03143119,,,,,,,,,
,,,,,,,,,,,,0,6,6,6,1,seventh,9,21,male,R,Donders,2021-07-14_08h40.23.505,ImageRatingTask_S2,2021.1.4,Win32,61.03143119,,,,,,,,,
,,,,,,,,,,,,0,7,7,7,1,last,9,21,male,R,Donders,2021-07-14_08h40.23.505,ImageRatingTask_S2,2021.1.4,Win32,61.03143119,,,,,,,,,
,,,,,,,,,,,,,,,,,,9,21,male,R,Donders,2021-07-14_08h40.23.505,ImageRatingTask_S2,2021.1.4,Win32,61.03143119,0,61,61,24,1,DreamStudyImages_rs1000x750g/Water/Flood 2.jpg,,,
,,4,2.2657,5,0.8014,2,4.1826,1,0.9284,3,0.5491,0,0,0,0,1,main,9,21,male,R,Donders,2021-07-14_08h40.23.505,ImageRatingTask_S2,2021.1.4,Win32,61.03143119,,,,,,,,,
,,,,,,,,,,,,0,1,1,1,1,second,9,21,male,R,Donders,2021-07-14_08h40.23.505,ImageRatingTask_S2,2021.1.4,Win32,61.03143119,,,,,,,,,
,,,,,,,,,,,,0,2,2,2,1,third,9,21,male,R,Donders,2021-07-14_08h40.23.505,ImageRatingTask_S2,2021.1.4,Win32,61.03143119,,,,,,,,,
,,,,,,,,,,,,0,3,3,3,1,fourth,9,21,male,R,Donders,2021-07-14_08h40.23.505,ImageRatingTask_S2,2021.1.4,Win32,61.03143119,,,,,,,,,
,,,,,,,,,,,,0,4,4,4,1,fifth,9,21,male,R,Donders,2021-07-14_08h40.23.505,ImageRatingTask_S2,2021.1.4,Win32,61.03143119,,,,,,,,,
,,,,,,,,,,,,0,5,5,5,1,sixth,9,21,male,R,Donders,2021-07-14_08h40.23.505,ImageRatingTask_S2,2021.1.4,Win32,61.03143119,,,,,,,,,
,,,,,,,,,,,,0,6,6,6,1,seventh,9,21,male,R,Donders,2021-07-14_08h40.23.505,ImageRatingTask_S2,2021.1.4,Win32,61.03143119,,,,,,,,,
,,,,,,,,,,,,0,7,7,7,1,last,9,21,male,R,Donders,2021-07-14_08h40.23.505,ImageRatingTask_S2,2021.1.4,Win32,61.03143119,,,,,,,,,
,,,,,,,,,,,,,,,,,,9,21,male,R,Donders,2021-07-14_08h40.23.505,ImageRatingTask_S2,2021.1.4,Win32,61.03143119,0,62,62,96,1,DreamStudyImages_rs1000x750g/Mammals/IAPS1301_dog2.jpg,,,
,,6,3.5324,1,1.1626,6,2.3979,1,0.8387,7,0.6569,0,0,0,0,1,main,9,21,male,R,Donders,2021-07-14_08h40.23.505,ImageRatingTask_S2,2021.1.4,Win32,61.03143119,,,,,,,,,
,,,,,,,,,,,,0,1,1,1,1,second,9,21,male,R,Donders,2021-07-14_08h40.23.505,ImageRatingTask_S2,2021.1.4,Win32,61.03143119,,,,,,,,,
,,,,,,,,,,,,0,2,2,2,1,third,9,21,male,R,Donders,2021-07-14_08h40.23.505,ImageRatingTask_S2,2021.1.4,Win32,61.03143119,,,,,,,,,
,,,,,,,,,,,,0,3,3,3,1,fourth,9,21,male,R,Donders,2021-07-14_08h40.23.505,ImageRatingTask_S2,2021.1.4,Win32,61.03143119,,,,,,,,,
,,,,,,,,,,,,0,4,4,4,1,fifth,9,21,male,R,Donders,2021-07-14_08h40.23.505,ImageRatingTask_S2,2021.1.4,Win32,61.03143119,,,,,,,,,
,,,,,,,,,,,,0,5,5,5,1,sixth,9,21,male,R,Donders,2021-07-14_08h40.23.505,ImageRatingTask_S2,2021.1.4,Win32,61.03143119,,,,,,,,,
,,,,,,,,,,,,0,6,6,6,1,seventh,9,21,male,R,Donders,2021-07-14_08h40.23.505,ImageRatingTask_S2,2021.1.4,Win32,61.03143119,,,,,,,,,
,,,,,,,,,,,,0,7,7,7,1,last,9,21,male,R,Donders,2021-07-14_08h40.23.505,ImageRatingTask_S2,2021.1.4,Win32,61.03143119,,,,,,,,,
,,,,,,,,,,,,,,,,,,9,21,male,R,Donders,2021-07-14_08h40.23.505,ImageRatingTask_S2,2021.1.4,Win32,61.03143119,0,63,63,140,1,DreamStudyImages_rs1000x750g/Vehicles/bluevan.jpg,,,
,,7,2.8474,1,0.5595,7,1.613,1,2.8732,5,0.3932,0,0,0,0,1,main,9,21,male,R,Donders,2021-07-14_08h40.23.505,ImageRatingTask_S2,2021.1.4,Win32,61.03143119,,,,,,,,,
,,,,,,,,,,,,0,1,1,1,1,second,9,21,male,R,Donders,2021-07-14_08h40.23.505,ImageRatingTask_S2,2021.1.4,Win32,61.03143119,,,,,,,,,
,,,,,,,,,,,,0,2,2,2,1,third,9,21,male,R,Donders,2021-07-14_08h40.23.505,ImageRatingTask_S2,2021.1.4,Win32,61.03143119,,,,,,,,,
,,,,,,,,,,,,0,3,3,3,1,fourth,9,21,male,R,Donders,2021-07-14_08h40.23.505,ImageRatingTask_S2,2021.1.4,Win32,61.03143119,,,,,,,,,
,,,,,,,,,,,,0,4,4,4,1,fifth,9,21,male,R,Donders,2021-07-14_08h40.23.505,ImageRatingTask_S2,2021.1.4,Win32,61.03143119,,,,,,,,,
,,,,,,,,,,,,0,5,5,5,1,sixth,9,21,male,R,Donders,2021-07-14_08h40.23.505,ImageRatingTask_S2,2021.1.4,Win32,61.03143119,,,,,,,,,
,,,,,,,,,,,,0,6,6,6,1,seventh,9,21,male,R,Donders,2021-07-14_08h40.23.505,ImageRatingTask_S2,2021.1.4,Win32,61.03143119,,,,,,,,,
,,,,,,,,,,,,0,7,7,7,1,last,9,21,male,R,Donders,2021-07-14_08h40.23.505,ImageRatingTask_S2,2021.1.4,Win32,61.03143119,,,,,,,,,
,,,,,,,,,,,,,,,,,,9,21,male,R,Donders,2021-07-14_08h40.23.505,ImageRatingTask_S2,2021.1.4,Win32,61.03143119,0,64,64,51,1,DreamStudyImages_rs1000x750g/Food/Objects_104_v.jpg,,,
,,6,5.3576,1,1.0231,4,6.2545,1,0.8561,6,1.5252,0,0,0,0,1,main,9,21,male,R,Donders,2021-07-14_08h40.23.505,ImageRatingTask_S2,2021.1.4,Win32,61.03143119,,,,,,,,,
,,,,,,,,,,,,0,1,1,1,1,second,9,21,male,R,Donders,2021-07-14_08h40.23.505,ImageRatingTask_S2,2021.1.4,Win32,61.03143119,,,,,,,,,
,,,,,,,,,,,,0,2,2,2,1,third,9,21,male,R,Donders,2021-07-14_08h40.23.505,ImageRatingTask_S2,2021.1.4,Win32,61.03143119,,,,,,,,,
,,,,,,,,,,,,0,3,3,3,1,fourth,9,21,male,R,Donders,2021-07-14_08h40.23.505,ImageRatingTask_S2,2021.1.4,Win32,61.03143119,,,,,,,,,
,,,,,,,,,,,,0,4,4,4,1,fifth,9,21,male,R,Donders,2021-07-14_08h40.23.505,ImageRatingTask_S2,2021.1.4,Win32,61.03143119,,,,,,,,,
,,,,,,,,,,,,0,5,5,5,1,sixth,9,21,male,R,Donders,2021-07-14_08h40.23.505,ImageRatingTask_S2,2021.1.4,Win32,61.03143119,,,,,,,,,
,,,,,,,,,,,,0,6,6,6,1,seventh,9,21,male,R,Donders,2021-07-14_08h40.23.505,ImageRatingTask_S2,2021.1.4,Win32,61.03143119,,,,,,,,,
,,,,,,,,,,,,0,7,7,7,1,last,9,21,male,R,Donders,2021-07-14_08h40.23.505,ImageRatingTask_S2,2021.1.4,Win32,61.03143119,,,,,,,,,
,,,,,,,,,,,,,,,,,,9,21,male,R,Donders,2021-07-14_08h40.23.505,ImageRatingTask_S2,2021.1.4,Win32,61.03143119,0,65,65,126,1,DreamStudyImages_rs1000x750g/Houses/Landscapes_046_h.jpg,,,
,,7,3.4957,1,1.9184,4,3.3679,2,8.127,2,0.5275,0,0,0,0,1,main,9,21,male,R,Donders,2021-07-14_08h40.23.505,ImageRatingTask_S2,2021.1.4,Win32,61.03143119,,,,,,,,,
,,,,,,,,,,1,0.1172,0,1,1,1,1,second,9,21,male,R,Donders,2021-07-14_08h40.23.505,ImageRatingTask_S2,2021.1.4,Win32,61.03143119,,,,,,,,,
,,,,,,,,,,,,0,2,2,2,1,third,9,21,male,R,Donders,2021-07-14_08h40.23.505,ImageRatingTask_S2,2021.1.4,Win32,61.03143119,,,,,,,,,
,,,,,,,,,,,,0,3,3,3,1,fourth,9,21,male,R,Donders,2021-07-14_08h40.23.505,ImageRatingTask_S2,2021.1.4,Win32,61.03143119,,,,,,,,,
,,,,,,,,,,,,0,4,4,4,1,fifth,9,21,male,R,Donders,2021-07-14_08h40.23.505,ImageRatingTask_S2,2021.1.4,Win32,61.03143119,,,,,,,,,
,,,,,,,,,,,,0,5,5,5,1,sixth,9,21,male,R,Donders,2021-07-14_08h40.23.505,ImageRatingTask_S2,2021.1.4,Win32,61.03143119,,,,,,,,,
,,,,,,,,,,,,0,6,6,6,1,seventh,9,21,male,R,Donders,2021-07-14_08h40.23.505,ImageRatingTask_S2,2021.1.4,Win32,61.03143119,,,,,,,,,
,,,,,,,,,,,,0,7,7,7,1,last,9,21,male,R,Donders,2021-07-14_08h40.23.505,ImageRatingTask_S2,2021.1.4,Win32,61.03143119,,,,,,,,,
,,,,,,,,,,,,,,,,,,9,21,male,R,Donders,2021-07-14_08h40.23.505,ImageRatingTask_S2,2021.1.4,Win32,61.03143119,0,66,66,11,1,DreamStudyImages_rs1000x750g/Children/People_046_h.jpg,,,
,,6,2.5986,1,1.2856,6,7.6299,1,1.2636,3,0.8611,0,0,0,0,1,main,9,21,male,R,Donders,2021-07-14_08h40.23.505,ImageRatingTask_S2,2021.1.4,Win32,61.03143119,,,,,,,,,
,,,,,,,,,,,,0,1,1,1,1,second,9,21,male,R,Donders,2021-07-14_08h40.23.505,ImageRatingTask_S2,2021.1.4,Win32,61.03143119,,,,,,,,,
,,,,,,,,,,,,0,2,2,2,1,third,9,21,male,R,Donders,2021-07-14_08h40.23.505,ImageRatingTask_S2,2021.1.4,Win32,61.03143119,,,,,,,,,
,,,,,,,,,,,,0,3,3,3,1,fourth,9,21,male,R,Donders,2021-07-14_08h40.23.505,ImageRatingTask_S2,2021.1.4,Win32,61.03143119,,,,,,,,,
,,,,,,,,,,,,0,4,4,4,1,fifth,9,21,male,R,Donders,2021-07-14_08h40.23.505,ImageRatingTask_S2,2021.1.4,Win32,61.03143119,,,,,,,,,
,,,,,,,,,,,,0,5,5,5,1,sixth,9,21,male,R,Donders,2021-07-14_08h40.23.505,ImageRatingTask_S2,2021.1.4,Win32,61.03143119,,,,,,,,,
,,,,,,,,,,,,0,6,6,6,1,seventh,9,21,male,R,Donders,2021-07-14_08h40.23.505,ImageRatingTask_S2,2021.1.4,Win32,61.03143119,,,,,,,,,
,,,,,,,,,,,,0,7,7,7,1,last,9,21,male,R,Donders,2021-07-14_08h40.23.505,ImageRatingTask_S2,2021.1.4,Win32,61.03143119,,,,,,,,,
,,,,,,,,,,,,,,,,,,9,21,male,R,Donders,2021-07-14_08h40.23.505,ImageRatingTask_S2,2021.1.4,Win32,61.03143119,0,67,67,154,1,DreamStudyImages_rs1000x750g/Mammals/Animals_148_h.jpg,,,
,,3,9.1196,6,1.124,2,1.5952,1,1.47,2,0.2325,0,0,0,0,1,main,9,21,male,R,Donders,2021-07-14_08h40.23.505,ImageRatingTask_S2,2021.1.4,Win32,61.03143119,,,,,,,,,
,,,,,,,,,,,,0,1,1,1,1,second,9,21,male,R,Donders,2021-07-14_08h40.23.505,ImageRatingTask_S2,2021.1.4,Win32,61.03143119,,,,,,,,,
,,,,,,,,,,,,0,2,2,2,1,third,9,21,male,R,Donders,2021-07-14_08h40.23.505,ImageRatingTask_S2,2021.1.4,Win32,61.03143119,,,,,,,,,
,,,,,,,,,,,,0,3,3,3,1,fourth,9,21,male,R,Donders,2021-07-14_08h40.23.505,ImageRatingTask_S2,2021.1.4,Win32,61.03143119,,,,,,,,,
,,,,,,,,,,,,0,4,4,4,1,fifth,9,21,male,R,Donders,2021-07-14_08h40.23.505,ImageRatingTask_S2,2021.1.4,Win32,61.03143119,,,,,,,,,
,,,,,,,,,,,,0,5,5,5,1,sixth,9,21,male,R,Donders,2021-07-14_08h40.23.505,ImageRatingTask_S2,2021.1.4,Win32,61.03143119,,,,,,,,,
,,,,,,,,,,,,0,6,6,6,1,seventh,9,21,male,R,Donders,2021-07-14_08h40.23.505,ImageRatingTask_S2,2021.1.4,Win32,61.03143119,,,,,,,,,
,,,,,,,,,,,,0,7,7,7,1,last,9,21,male,R,Donders,2021-07-14_08h40.23.505,ImageRatingTask_S2,2021.1.4,Win32,61.03143119,,,,,,,,,
,,,,,,,,,,,,,,,,,,9,21,male,R,Donders,2021-07-14_08h40.23.505,ImageRatingTask_S2,2021.1.4,Win32,61.03143119,0,68,68,26,1,DreamStudyImages_rs1000x750g/Children/Sad face 8.jpg,,,
,,2,1.6259,8,2.1833,7,2.0729,1,0.9191,2,0.4306,0,0,0,0,1,main,9,21,male,R,Donders,2021-07-14_08h40.23.505,ImageRatingTask_S2,2021.1.4,Win32,61.03143119,,,,,,,,,
,,,,,,,,,,,,0,1,1,1,1,second,9,21,male,R,Donders,2021-07-14_08h40.23.505,ImageRatingTask_S2,2021.1.4,Win32,61.03143119,,,,,,,,,
,,,,,,,,,,,,0,2,2,2,1,third,9,21,male,R,Donders,2021-07-14_08h40.23.505,ImageRatingTask_S2,2021.1.4,Win32,61.03143119,,,,,,,,,
,,,,,,,,,,,,0,3,3,3,1,fourth,9,21,male,R,Donders,2021-07-14_08h40.23.505,ImageRatingTask_S2,2021.1.4,Win32,61.03143119,,,,,,,,,
,,,,,,,,,,,,0,4,4,4,1,fifth,9,21,male,R,Donders,2021-07-14_08h40.23.505,ImageRatingTask_S2,2021.1.4,Win32,61.03143119,,,,,,,,,
,,,,,,,,,,,,0,5,5,5,1,sixth,9,21,male,R,Donders,2021-07-14_08h40.23.505,ImageRatingTask_S2,2021.1.4,Win32,61.03143119,,,,,,,,,
,,,,,,,,,,,,0,6,6,6,1,seventh,9,21,male,R,Donders,2021-07-14_08h40.23.505,ImageRatingTask_S2,2021.1.4,Win32,61.03143119,,,,,,,,,
,,,,,,,,,,,,0,7,7,7,1,last,9,21,male,R,Donders,2021-07-14_08h40.23.505,ImageRatingTask_S2,2021.1.4,Win32,61.03143119,,,,,,,,,
,,,,,,,,,,,,,,,,,,9,21,male,R,Donders,2021-07-14_08h40.23.505,ImageRatingTask_S2,2021.1.4,Win32,61.03143119,0,69,69,124,1,DreamStudyImages_rs1000x750g/Children/Baby 7.jpg,,,
,,6,4.9392,2,1.4784,4,1.6935,1,0.9972,2,0.4077,0,0,0,0,1,main,9,21,male,R,Donders,2021-07-14_08h40.23.505,ImageRatingTask_S2,2021.1.4,Win32,61.03143119,,,,,,,,,
,,,,,,,,,,,,0,1,1,1,1,second,9,21,male,R,Donders,2021-07-14_08h40.23.505,ImageRatingTask_S2,2021.1.4,Win32,61.03143119,,,,,,,,,
,,,,,,,,,,,,0,2,2,2,1,third,9,21,male,R,Donders,2021-07-14_08h40.23.505,ImageRatingTask_S2,2021.1.4,Win32,61.03143119,,,,,,,,,
,,,,,,,,,,,,0,3,3,3,1,fourth,9,21,male,R,Donders,2021-07-14_08h40.23.505,ImageRatingTask_S2,2021.1.4,Win32,61.03143119,,,,,,,,,
,,,,,,,,,,,,0,4,4,4,1,fifth,9,21,male,R,Donders,2021-07-14_08h40.23.505,ImageRatingTask_S2,2021.1.4,Win32,61.03143119,,,,,,,,,
,,,,,,,,,,,,0,5,5,5,1,sixth,9,21,male,R,Donders,2021-07-14_08h40.23.505,ImageRatingTask_S2,2021.1.4,Win32,61.03143119,,,,,,,,,
,,,,,,,,,,,,0,6,6,6,1,seventh,9,21,male,R,Donders,2021-07-14_08h40.23.505,ImageRatingTask_S2,2021.1.4,Win32,61.03143119,,,,,,,,,
,,,,,,,,,,,,0,7,7,7,1,last,9,21,male,R,Donders,2021-07-14_08h40.23.505,ImageRatingTask_S2,2021.1.4,Win32,61.03143119,,,,,,,,,
,,,,,,,,,,,,,,,,,,9,21,male,R,Donders,2021-07-14_08h40.23.505,ImageRatingTask_S2,2021.1.4,Win32,61.03143119,0,70,70,99,1,DreamStudyImages_rs1000x750g/Children/Excited face 7.jpg,,,
,,7,1.9163,1,0.7484,8,1.8693,1,4.1499,8,0.3513,0,0,0,0,1,main,9,21,male,R,Donders,2021-07-14_08h40.23.505,ImageRatingTask_S2,2021.1.4,Win32,61.03143119,,,,,,,,,
,,,,,,,,,,,,0,1,1,1,1,second,9,21,male,R,Donders,2021-07-14_08h40.23.505,ImageRatingTask_S2,2021.1.4,Win32,61.03143119,,,,,,,,,
,,,,,,,,,,,,0,2,2,2,1,third,9,21,male,R,Donders,2021-07-14_08h40.23.505,ImageRatingTask_S2,2021.1.4,Win32,61.03143119,,,,,,,,,
,,,,,,,,,,,,0,3,3,3,1,fourth,9,21,male,R,Donders,2021-07-14_08h40.23.505,ImageRatingTask_S2,2021.1.4,Win32,61.03143119,,,,,,,,,
,,,,,,,,,,,,0,4,4,4,1,fifth,9,21,male,R,Donders,2021-07-14_08h40.23.505,ImageRatingTask_S2,2021.1.4,Win32,61.03143119,,,,,,,,,
,,,,,,,,,,,,0,5,5,5,1,sixth,9,21,male,R,Donders,2021-07-14_08h40.23.505,ImageRatingTask_S2,2021.1.4,Win32,61.03143119,,,,,,,,,
,,,,,,,,,,,,0,6,6,6,1,seventh,9,21,male,R,Donders,2021-07-14_08h40.23.505,ImageRatingTask_S2,2021.1.4,Win32,61.03143119,,,,,,,,,
,,,,,,,,,,,,0,7,7,7,1,last,9,21,male,R,Donders,2021-07-14_08h40.23.505,ImageRatingTask_S2,2021.1.4,Win32,61.03143119,,,,,,,,,
,,,,,,,,,,,,,,,,,,9,21,male,R,Donders,2021-07-14_08h40.23.505,ImageRatingTask_S2,2021.1.4,Win32,61.03143119,0,71,71,72,1,DreamStudyImages_rs1000x750g/Water/NDPS155_lake2.jpg,,,
,,5,4.8307,1,0.8416,6,2.1277,1,1.3821,7,0.6451,0,0,0,0,1,main,9,21,male,R,Donders,2021-07-14_08h40.23.505,ImageRatingTask_S2,2021.1.4,Win32,61.03143119,,,,,,,,,
,,,,,,,,,,,,0,1,1,1,1,second,9,21,male,R,Donders,2021-07-14_08h40.23.505,ImageRatingTask_S2,2021.1.4,Win32,61.03143119,,,,,,,,,
,,,,,,,,,,,,0,2,2,2,1,third,9,21,male,R,Donders,2021-07-14_08h40.23.505,ImageRatingTask_S2,2021.1.4,Win32,61.03143119,,,,,,,,,
,,,,,,,,,,,,0,3,3,3,1,fourth,9,21,male,R,Donders,2021-07-14_08h40.23.505,ImageRatingTask_S2,2021.1.4,Win32,61.03143119,,,,,,,,,
,,,,,,,,,,,,0,4,4,4,1,fifth,9,21,male,R,Donders,2021-07-14_08h40.23.505,ImageRatingTask_S2,2021.1.4,Win32,61.03143119,,,,,,,,,
,,,,,,,,,,,,0,5,5,5,1,sixth,9,21,male,R,Donders,2021-07-14_08h40.23.505,ImageRatingTask_S2,2021.1.4,Win32,61.03143119,,,,,,,,,
,,,,,,,,,,,,0,6,6,6,1,seventh,9,21,male,R,Donders,2021-07-14_08h40.23.505,ImageRatingTask_S2,2021.1.4,Win32,61.03143119,,,,,,,,,
,,,,,,,,,,,,0,7,7,7,1,last,9,21,male,R,Donders,2021-07-14_08h40.23.505,ImageRatingTask_S2,2021.1.4,Win32,61.03143119,,,,,,,,,
,,,,,,,,,,,,,,,,,,9,21,male,R,Donders,2021-07-14_08h40.23.505,ImageRatingTask_S2,2021.1.4,Win32,61.03143119,0,72,72,87,1,DreamStudyImages_rs1000x750g/Vehicles/Objects_304_h.jpg,,,
,,6,2.1435,1,1.3931,6,1.8992,2,2.0575,2,2.6134,0,0,0,0,1,main,9,21,male,R,Donders,2021-07-14_08h40.23.505,ImageRatingTask_S2,2021.1.4,Win32,61.03143119,,,,,,,,,
,,,,,,,,,,6,0.535,0,1,1,1,1,second,9,21,male,R,Donders,2021-07-14_08h40.23.505,ImageRatingTask_S2,2021.1.4,Win32,61.03143119,,,,,,,,,
,,,,,,,,,,,,0,2,2,2,1,third,9,21,male,R,Donders,2021-07-14_08h40.23.505,ImageRatingTask_S2,2021.1.4,Win32,61.03143119,,,,,,,,,
,,,,,,,,,,,,0,3,3,3,1,fourth,9,21,male,R,Donders,2021-07-14_08h40.23.505,ImageRatingTask_S2,2021.1.4,Win32,61.03143119,,,,,,,,,
,,,,,,,,,,,,0,4,4,4,1,fifth,9,21,male,R,Donders,2021-07-14_08h40.23.505,ImageRatingTask_S2,2021.1.4,Win32,61.03143119,,,,,,,,,
,,,,,,,,,,,,0,5,5,5,1,sixth,9,21,male,R,Donders,2021-07-14_08h40.23.505,ImageRatingTask_S2,2021.1.4,Win32,61.03143119,,,,,,,,,
,,,,,,,,,,,,0,6,6,6,1,seventh,9,21,male,R,Donders,2021-07-14_08h40.23.505,ImageRatingTask_S2,2021.1.4,Win32,61.03143119,,,,,,,,,
,,,,,,,,,,,,0,7,7,7,1,last,9,21,male,R,Donders,2021-07-14_08h40.23.505,ImageRatingTask_S2,2021.1.4,Win32,61.03143119,,,,,,,,,
,,,,,,,,,,,,,,,,,,9,21,male,R,Donders,2021-07-14_08h40.23.505,ImageRatingTask_S2,2021.1.4,Win32,61.03143119,0,73,73,149,1,DreamStudyImages_rs1000x750g/Children/Faces_129_h.jpg,,,
,,6,3.1973,1,0.7563,6,4.0833,1,4.044,8,0.6609,0,0,0,0,1,main,9,21,male,R,Donders,2021-07-14_08h40.23.505,ImageRatingTask_S2,2021.1.4,Win32,61.03143119,,,,,,,,,
,,,,,,,,,,,,0,1,1,1,1,second,9,21,male,R,Donders,2021-07-14_08h40.23.505,ImageRatingTask_S2,2021.1.4,Win32,61.03143119,,,,,,,,,
,,,,,,,,,,,,0,2,2,2,1,third,9,21,male,R,Donders,2021-07-14_08h40.23.505,ImageRatingTask_S2,2021.1.4,Win32,61.03143119,,,,,,,,,
,,,,,,,,,,,,0,3,3,3,1,fourth,9,21,male,R,Donders,2021-07-14_08h40.23.505,ImageRatingTask_S2,2021.1.4,Win32,61.03143119,,,,,,,,,
,,,,,,,,,,,,0,4,4,4,1,fifth,9,21,male,R,Donders,2021-07-14_08h40.23.505,ImageRatingTask_S2,2021.1.4,Win32,61.03143119,,,,,,,,,
,,,,,,,,,,,,0,5,5,5,1,sixth,9,21,male,R,Donders,2021-07-14_08h40.23.505,ImageRatingTask_S2,2021.1.4,Win32,61.03143119,,,,,,,,,
,,,,,,,,,,,,0,6,6,6,1,seventh,9,21,male,R,Donders,2021-07-14_08h40.23.505,ImageRatingTask_S2,2021.1.4,Win32,61.03143119,,,,,,,,,
,,,,,,,,,,,,0,7,7,7,1,last,9,21,male,R,Donders,2021-07-14_08h40.23.505,ImageRatingTask_S2,2021.1.4,Win32,61.03143119,,,,,,,,,
,,,,,,,,,,,,,,,,,,9,21,male,R,Donders,2021-07-14_08h40.23.505,ImageRatingTask_S2,2021.1.4,Win32,61.03143119,0,74,74,25,1,DreamStudyImages_rs1000x750g/Water/Landscapes_114_v.jpg,,,
,,6,2.0035,1,1.3013,4,2.0706,1,1.9464,5,0.2713,0,0,0,0,1,main,9,21,male,R,Donders,2021-07-14_08h40.23.505,ImageRatingTask_S2,2021.1.4,Win32,61.03143119,,,,,,,,,
,,,,,,,,,,,,0,1,1,1,1,second,9,21,male,R,Donders,2021-07-14_08h40.23.505,ImageRatingTask_S2,2021.1.4,Win32,61.03143119,,,,,,,,,
,,,,,,,,,,,,0,2,2,2,1,third,9,21,male,R,Donders,2021-07-14_08h40.23.505,ImageRatingTask_S2,2021.1.4,Win32,61.03143119,,,,,,,,,
,,,,,,,,,,,,0,3,3,3,1,fourth,9,21,male,R,Donders,2021-07-14_08h40.23.505,ImageRatingTask_S2,2021.1.4,Win32,61.03143119,,,,,,,,,
,,,,,,,,,,,,0,4,4,4,1,fifth,9,21,male,R,Donders,2021-07-14_08h40.23.505,ImageRatingTask_S2,2021.1.4,Win32,61.03143119,,,,,,,,,
,,,,,,,,,,,,0,5,5,5,1,sixth,9,21,male,R,Donders,2021-07-14_08h40.23.505,ImageRatingTask_S2,2021.1.4,Win32,61.03143119,,,,,,,,,
,,,,,,,,,,,,0,6,6,6,1,seventh,9,21,male,R,Donders,2021-07-14_08h40.23.505,ImageRatingTask_S2,2021.1.4,Win32,61.03143119,,,,,,,,,
,,,,,,,,,,,,0,7,7,7,1,last,9,21,male,R,Donders,2021-07-14_08h40.23.505,ImageRatingTask_S2,2021.1.4,Win32,61.03143119,,,,,,,,,
,,,,,,,,,,,,,,,,,,9,21,male,R,Donders,2021-07-14_08h40.23.505,ImageRatingTask_S2,2021.1.4,Win32,61.03143119,0,75,75,48,1,DreamStudyImages_rs1000x750g/Food/IAPS7476_soup.jpg,,,
,,7,4.3986,1,0.848,7,2.5146,1,1.2275,5,0.362,0,0,0,0,1,main,9,21,male,R,Donders,2021-07-14_08h40.23.505,ImageRatingTask_S2,2021.1.4,Win32,61.03143119,,,,,,,,,
,,,,,,,,,,,,0,1,1,1,1,second,9,21,male,R,Donders,2021-07-14_08h40.23.505,ImageRatingTask_S2,2021.1.4,Win32,61.03143119,,,,,,,,,
,,,,,,,,,,,,0,2,2,2,1,third,9,21,male,R,Donders,2021-07-14_08h40.23.505,ImageRatingTask_S2,2021.1.4,Win32,61.03143119,,,,,,,,,
,,,,,,,,,,,,0,3,3,3,1,fourth,9,21,male,R,Donders,2021-07-14_08h40.23.505,ImageRatingTask_S2,2021.1.4,Win32,61.03143119,,,,,,,,,
,,,,,,,,,,,,0,4,4,4,1,fifth,9,21,male,R,Donders,2021-07-14_08h40.23.505,ImageRatingTask_S2,2021.1.4,Win32,61.03143119,,,,,,,,,
,,,,,,,,,,,,0,5,5,5,1,sixth,9,21,male,R,Donders,2021-07-14_08h40.23.505,ImageRatingTask_S2,2021.1.4,Win32,61.03143119,,,,,,,,,
,,,,,,,,,,,,0,6,6,6,1,seventh,9,21,male,R,Donders,2021-07-14_08h40.23.505,ImageRatingTask_S2,2021.1.4,Win32,61.03143119,,,,,,,,,
,,,,,,,,,,,,0,7,7,7,1,last,9,21,male,R,Donders,2021-07-14_08h40.23.505,ImageRatingTask_S2,2021.1.4,Win32,61.03143119,,,,,,,,,
,,,,,,,,,,,,,,,,,,9,21,male,R,Donders,2021-07-14_08h40.23.505,ImageRatingTask_S2,2021.1.4,Win32,61.03143119,0,76,76,49,1,DreamStudyImages_rs1000x750g/Food/Objects_081_h.jpg,,,
,,8,2.277,4,1.5139,5,1.4946,4,0.0007,8,6.911,0,0,0,0,1,main,9,21,male,R,Donders,2021-07-14_08h40.23.505,ImageRatingTask_S2,2021.1.4,Win32,61.03143119,,,,,,,,,
,,,,,,,,,,8,0.5016,0,1,1,1,1,second,9,21,male,R,Donders,2021-07-14_08h40.23.505,ImageRatingTask_S2,2021.1.4,Win32,61.03143119,,,,,,,,,
,,,,,,,,,,8,1.1502,0,2,2,2,1,third,9,21,male,R,Donders,2021-07-14_08h40.23.505,ImageRatingTask_S2,2021.1.4,Win32,61.03143119,,,,,,,,,
,,,,,,,,,,8,0.3175,0,3,3,3,1,fourth,9,21,male,R,Donders,2021-07-14_08h40.23.505,ImageRatingTask_S2,2021.1.4,Win32,61.03143119,,,,,,,,,
,,,,,,,,,,,,0,4,4,4,1,fifth,9,21,male,R,Donders,2021-07-14_08h40.23.505,ImageRatingTask_S2,2021.1.4,Win32,61.03143119,,,,,,,,,
,,,,,,,,,,,,0,5,5,5,1,sixth,9,21,male,R,Donders,2021-07-14_08h40.23.505,ImageRatingTask_S2,2021.1.4,Win32,61.03143119,,,,,,,,,
,,,,,,,,,,,,0,6,6,6,1,seventh,9,21,male,R,Donders,2021-07-14_08h40.23.505,ImageRatingTask_S2,2021.1.4,Win32,61.03143119,,,,,,,,,
,,,,,,,,,,,,0,7,7,7,1,last,9,21,male,R,Donders,2021-07-14_08h40.23.505,ImageRatingTask_S2,2021.1.4,Win32,61.03143119,,,,,,,,,
,,,,,,,,,,,,,,,,,,9,21,male,R,Donders,2021-07-14_08h40.23.505,ImageRatingTask_S2,2021.1.4,Win32,61.03143119,0,77,77,95,1,DreamStudyImages_rs1000x750g/Water/Lake 16.jpg,,,
,,7,6.8149,1,0.7787,7,3.0412,1,1.5689,5,0.5685,0,0,0,0,1,main,9,21,male,R,Donders,2021-07-14_08h40.23.505,ImageRatingTask_S2,2021.1.4,Win32,61.03143119,,,,,,,,,
,,,,,,,,,,,,0,1,1,1,1,second,9,21,male,R,Donders,2021-07-14_08h40.23.505,ImageRatingTask_S2,2021.1.4,Win32,61.03143119,,,,,,,,,
,,,,,,,,,,,,0,2,2,2,1,third,9,21,male,R,Donders,2021-07-14_08h40.23.505,ImageRatingTask_S2,2021.1.4,Win32,61.03143119,,,,,,,,,
,,,,,,,,,,,,0,3,3,3,1,fourth,9,21,male,R,Donders,2021-07-14_08h40.23.505,ImageRatingTask_S2,2021.1.4,Win32,61.03143119,,,,,,,,,
,,,,,,,,,,,,0,4,4,4,1,fifth,9,21,male,R,Donders,2021-07-14_08h40.23.505,ImageRatingTask_S2,2021.1.4,Win32,61.03143119,,,,,,,,,
,,,,,,,,,,,,0,5,5,5,1,sixth,9,21,male,R,Donders,2021-07-14_08h40.23.505,ImageRatingTask_S2,2021.1.4,Win32,61.03143119,,,,,,,,,
,,,,,,,,,,,,0,6,6,6,1,seventh,9,21,male,R,Donders,2021-07-14_08h40.23.505,ImageRatingTask_S2,2021.1.4,Win32,61.03143119,,,,,,,,,
,,,,,,,,,,,,0,7,7,7,1,last,9,21,male,R,Donders,2021-07-14_08h40.23.505,ImageRatingTask_S2,2021.1.4,Win32,61.03143119,,,,,,,,,
,,,,,,,,,,,,,,,,,,9,21,male,R,Donders,2021-07-14_08h40.23.505,ImageRatingTask_S2,2021.1.4,Win32,61.03143119,0,78,78,40,1,DreamStudyImages_rs1000x750g/Food/IAPS7405_cupcakes.jpg,,,
,,6,3.8399,2,1.1994,7,2.3523,1,1.0817,2,0.2146,0,0,0,0,1,main,9,21,male,R,Donders,2021-07-14_08h40.23.505,ImageRatingTask_S2,2021.1.4,Win32,61.03143119,,,,,,,,,
,,,,,,,,,,,,0,1,1,1,1,second,9,21,male,R,Donders,2021-07-14_08h40.23.505,ImageRatingTask_S2,2021.1.4,Win32,61.03143119,,,,,,,,,
,,,,,,,,,,,,0,2,2,2,1,third,9,21,male,R,Donders,2021-07-14_08h40.23.505,ImageRatingTask_S2,2021.1.4,Win32,61.03143119,,,,,,,,,
,,,,,,,,,,,,0,3,3,3,1,fourth,9,21,male,R,Donders,2021-07-14_08h40.23.505,ImageRatingTask_S2,2021.1.4,Win32,61.03143119,,,,,,,,,
,,,,,,,,,,,,0,4,4,4,1,fifth,9,21,male,R,Donders,2021-07-14_08h40.23.505,ImageRatingTask_S2,2021.1.4,Win32,61.03143119,,,,,,,,,
,,,,,,,,,,,,0,5,5,5,1,sixth,9,21,male,R,Donders,2021-07-14_08h40.23.505,ImageRatingTask_S2,2021.1.4,Win32,61.03143119,,,,,,,,,
,,,,,,,,,,,,0,6,6,6,1,seventh,9,21,male,R,Donders,2021-07-14_08h40.23.505,ImageRatingTask_S2,2021.1.4,Win32,61.03143119,,,,,,,,,
,,,,,,,,,,,,0,7,7,7,1,last,9,21,male,R,Donders,2021-07-14_08h40.23.505,ImageRatingTask_S2,2021.1.4,Win32,61.03143119,,,,,,,,,
,,,,,,,,,,,,,,,,,,9,21,male,R,Donders,2021-07-14_08h40.23.505,ImageRatingTask_S2,2021.1.4,Win32,61.03143119,0,79,79,153,1,DreamStudyImages_rs1000x750g/Children/Baby 8.jpg,,,
,,4,2.3239,1,0.6548,6,1.6439,1,0.9121,2,0.584,0,0,0,0,1,main,9,21,male,R,Donders,2021-07-14_08h40.23.505,ImageRatingTask_S2,2021.1.4,Win32,61.03143119,,,,,,,,,
,,,,,,,,,,,,0,1,1,1,1,second,9,21,male,R,Donders,2021-07-14_08h40.23.505,ImageRatingTask_S2,2021.1.4,Win32,61.03143119,,,,,,,,,
,,,,,,,,,,,,0,2,2,2,1,third,9,21,male,R,Donders,2021-07-14_08h40.23.505,ImageRatingTask_S2,2021.1.4,Win32,61.03143119,,,,,,,,,
,,,,,,,,,,,,0,3,3,3,1,fourth,9,21,male,R,Donders,2021-07-14_08h40.23.505,ImageRatingTask_S2,2021.1.4,Win32,61.03143119,,,,,,,,,
,,,,,,,,,,,,0,4,4,4,1,fifth,9,21,male,R,Donders,2021-07-14_08h40.23.505,ImageRatingTask_S2,2021.1.4,Win32,61.03143119,,,,,,,,,
,,,,,,,,,,,,0,5,5,5,1,sixth,9,21,male,R,Donders,2021-07-14_08h40.23.505,ImageRatingTask_S2,2021.1.4,Win32,61.03143119,,,,,,,,,
