slider_pre.response,slider_pre.rt,key_val.keys,key_val.rt,key_aro.keys,key_aro.rt,key_qual.keys,key_qual.rt,key_ncat.keys,key_ncat.rt,key_cats.keys,key_cats.rt,ncat_order.thisRepN,ncat_order.thisTrialN,ncat_order.thisN,ncat_order.thisIndex,ncat_order.ran,cond_cat,participant,age,gender,handedness (L/R),site (IMT/Donders),date,expName,psychopyVersion,OS,frameRate,img_trials.thisRepN,img_trials.thisTrialN,img_trials.thisN,img_trials.thisIndex,img_trials.ran,filename,slider_post.response,slider_post.rt,textbox_openfb.text
4,3.2518,2,12.2639,1,2.143,2,1.278,1,1.0073,7,0.7917,0,0,0,0,1,main,9,21,male,R,Donders,2021-07-16_14h18.13.666,ImageRatingTask_S4,2021.1.4,Win32,60.84205403,,,,,,,,,
,,,,,,,,,,,,0,1,1,1,1,second,9,21,male,R,Donders,2021-07-16_14h18.13.666,ImageRatingTask_S4,2021.1.4,Win32,60.84205403,,,,,,,,,
,,,,,,,,,,,,0,2,2,2,1,third,9,21,male,R,Donders,2021-07-16_14h18.13.666,ImageRatingTask_S4,2021.1.4,Win32,60.84205403,,,,,,,,,
,,,,,,,,,,,,0,3,3,3,1,fourth,9,21,male,R,Donders,2021-07-16_14h18.13.666,ImageRatingTask_S4,2021.1.4,Win32,60.84205403,,,,,,,,,
,,,,,,,,,,,,0,4,4,4,1,fifth,9,21,male,R,Donders,2021-07-16_14h18.13.666,ImageRatingTask_S4,2021.1.4,Win32,60.84205403,,,,,,,,,
,,,,,,,,,,,,0,5,5,5,1,sixth,9,21,male,R,Donders,2021-07-16_14h18.13.666,ImageRatingTask_S4,2021.1.4,Win32,60.84205403,,,,,,,,,
,,,,,,,,,,,,0,6,6,6,1,seventh,9,21,male,R,Donders,2021-07-16_14h18.13.666,ImageRatingTask_S4,2021.1.4,Win32,60.84205403,,,,,,,,,
,,,,,,,,,,,,0,7,7,7,1,last,9,21,male,R,Donders,2021-07-16_14h18.13.666,ImageRatingTask_S4,2021.1.4,Win32,60.84205403,,,,,,,,,
,,,,,,,,,,,,,,,,,,9,21,male,R,Donders,2021-07-16_14h18.13.666,ImageRatingTask_S4,2021.1.4,Win32,60.84205403,0,0,0,121,1,DreamStudyImages_rs1000x750g/Water/IAPS7036_harbour_CROPPED.jpg,,,
,,1,2.1139,6,2.3602,7,1.4923,1,2.0255,2,0.3912,0,0,0,0,1,main,9,21,male,R,Donders,2021-07-16_14h18.13.666,ImageRatingTask_S4,2021.1.4,Win32,60.84205403,,,,,,,,,
,,,,,,,,,,,,0,1,1,1,1,second,9,21,male,R,Donders,2021-07-16_14h18.13.666,ImageRatingTask_S4,2021.1.4,Win32,60.84205403,,,,,,,,,
,,,,,,,,,,,,0,2,2,2,1,third,9,21,male,R,Donders,2021-07-16_14h18.13.666,ImageRatingTask_S4,2021.1.4,Win32,60.84205403,,,,,,,,,
,,,,,,,,,,,,0,3,3,3,1,fourth,9,21,male,R,Donders,2021-07-16_14h18.13.666,ImageRatingTask_S4,2021.1.4,Win32,60.84205403,,,,,,,,,
,,,,,,,,,,,,0,4,4,4,1,fifth,9,21,male,R,Donders,2021-07-16_14h18.13.666,ImageRatingTask_S4,2021.1.4,Win32,60.84205403,,,,,,,,,
,,,,,,,,,,,,0,5,5,5,1,sixth,9,21,male,R,Donders,2021-07-16_14h18.13.666,ImageRatingTask_S4,2021.1.4,Win32,60.84205403,,,,,,,,,
,,,,,,,,,,,,0,6,6,6,1,seventh,9,21,male,R,Donders,2021-07-16_14h18.13.666,ImageRatingTask_S4,2021.1.4,Win32,60.84205403,,,,,,,,,
,,,,,,,,,,,,0,7,7,7,1,last,9,21,male,R,Donders,2021-07-16_14h18.13.666,ImageRatingTask_S4,2021.1.4,Win32,60.84205403,,,,,,,,,
,,,,,,,,,,,,,,,,,,9,21,male,R,Donders,2021-07-16_14h18.13.666,ImageRatingTask_S4,2021.1.4,Win32,60.84205403,0,1,1,8,1,DreamStudyImages_rs1000x750g/Children/Faces_038_h.jpg,,,
,,4,4.8758,2,1.0523,6,2.0659,2,2.7669,3,0.8089,0,0,0,0,1,main,9,21,male,R,Donders,2021-07-16_14h18.13.666,ImageRatingTask_S4,2021.1.4,Win32,60.84205403,,,,,,,,,
,,,,,,,,,,4,0.1678,0,1,1,1,1,second,9,21,male,R,Donders,2021-07-16_14h18.13.666,ImageRatingTask_S4,2021.1.4,Win32,60.84205403,,,,,,,,,
,,,,,,,,,,,,0,2,2,2,1,third,9,21,male,R,Donders,2021-07-16_14h18.13.666,ImageRatingTask_S4,2021.1.4,Win32,60.84205403,,,,,,,,,
,,,,,,,,,,,,0,3,3,3,1,fourth,9,21,male,R,Donders,2021-07-16_14h18.13.666,ImageRatingTask_S4,2021.1.4,Win32,60.84205403,,,,,,,,,
,,,,,,,,,,,,0,4,4,4,1,fifth,9,21,male,R,Donders,2021-07-16_14h18.13.666,ImageRatingTask_S4,2021.1.4,Win32,60.84205403,,,,,,,,,
,,,,,,,,,,,,0,5,5,5,1,sixth,9,21,male,R,Donders,2021-07-16_14h18.13.666,ImageRatingTask_S4,2021.1.4,Win32,60.84205403,,,,,,,,,
,,,,,,,,,,,,0,6,6,6,1,seventh,9,21,male,R,Donders,2021-07-16_14h18.13.666,ImageRatingTask_S4,2021.1.4,Win32,60.84205403,,,,,,,,,
,,,,,,,,,,,,0,7,7,7,1,last,9,21,male,R,Donders,2021-07-16_14h18.13.666,ImageRatingTask_S4,2021.1.4,Win32,60.84205403,,,,,,,,,
,,,,,,,,,,,,,,,,,,9,21,male,R,Donders,2021-07-16_14h18.13.666,ImageRatingTask_S4,2021.1.4,Win32,60.84205403,0,2,2,132,1,DreamStudyImages_rs1000x750g/Mammals/Animal carcass 4.jpg,,,
,,6,2.7074,1,1.374,4,1.1756,1,0.8443,7,0.9347,0,0,0,0,1,main,9,21,male,R,Donders,2021-07-16_14h18.13.666,ImageRatingTask_S4,2021.1.4,Win32,60.84205403,,,,,,,,,
,,,,,,,,,,,,0,1,1,1,1,second,9,21,male,R,Donders,2021-07-16_14h18.13.666,ImageRatingTask_S4,2021.1.4,Win32,60.84205403,,,,,,,,,
,,,,,,,,,,,,0,2,2,2,1,third,9,21,male,R,Donders,2021-07-16_14h18.13.666,ImageRatingTask_S4,2021.1.4,Win32,60.84205403,,,,,,,,,
,,,,,,,,,,,,0,3,3,3,1,fourth,9,21,male,R,Donders,2021-07-16_14h18.13.666,ImageRatingTask_S4,2021.1.4,Win32,60.84205403,,,,,,,,,
,,,,,,,,,,,,0,4,4,4,1,fifth,9,21,male,R,Donders,2021-07-16_14h18.13.666,ImageRatingTask_S4,2021.1.4,Win32,60.84205403,,,,,,,,,
,,,,,,,,,,,,0,5,5,5,1,sixth,9,21,male,R,Donders,2021-07-16_14h18.13.666,ImageRatingTask_S4,2021.1.4,Win32,60.84205403,,,,,,,,,
,,,,,,,,,,,,0,6,6,6,1,seventh,9,21,male,R,Donders,2021-07-16_14h18.13.666,ImageRatingTask_S4,2021.1.4,Win32,60.84205403,,,,,,,,,
,,,,,,,,,,,,0,7,7,7,1,last,9,21,male,R,Donders,2021-07-16_14h18.13.666,ImageRatingTask_S4,2021.1.4,Win32,60.84205403,,,,,,,,,
,,,,,,,,,,,,,,,,,,9,21,male,R,Donders,2021-07-16_14h18.13.666,ImageRatingTask_S4,2021.1.4,Win32,60.84205403,0,3,3,88,1,DreamStudyImages_rs1000x750g/Vehicles/IAPS7140_bus.jpg,,,
,,7,2.2981,1,0.8638,2,1.9865,1,1.1779,5,0.3475,0,0,0,0,1,main,9,21,male,R,Donders,2021-07-16_14h18.13.666,ImageRatingTask_S4,2021.1.4,Win32,60.84205403,,,,,,,,,
,,,,,,,,,,,,0,1,1,1,1,second,9,21,male,R,Donders,2021-07-16_14h18.13.666,ImageRatingTask_S4,2021.1.4,Win32,60.84205403,,,,,,,,,
,,,,,,,,,,,,0,2,2,2,1,third,9,21,male,R,Donders,2021-07-16_14h18.13.666,ImageRatingTask_S4,2021.1.4,Win32,60.84205403,,,,,,,,,
,,,,,,,,,,,,0,3,3,3,1,fourth,9,21,male,R,Donders,2021-07-16_14h18.13.666,ImageRatingTask_S4,2021.1.4,Win32,60.84205403,,,,,,,,,
,,,,,,,,,,,,0,4,4,4,1,fifth,9,21,male,R,Donders,2021-07-16_14h18.13.666,ImageRatingTask_S4,2021.1.4,Win32,60.84205403,,,,,,,,,
,,,,,,,,,,,,0,5,5,5,1,sixth,9,21,male,R,Donders,2021-07-16_14h18.13.666,ImageRatingTask_S4,2021.1.4,Win32,60.84205403,,,,,,,,,
,,,,,,,,,,,,0,6,6,6,1,seventh,9,21,male,R,Donders,2021-07-16_14h18.13.666,ImageRatingTask_S4,2021.1.4,Win32,60.84205403,,,,,,,,,
,,,,,,,,,,,,0,7,7,7,1,last,9,21,male,R,Donders,2021-07-16_14h18.13.666,ImageRatingTask_S4,2021.1.4,Win32,60.84205403,,,,,,,,,
,,,,,,,,,,,,,,,,,,9,21,male,R,Donders,2021-07-16_14h18.13.666,ImageRatingTask_S4,2021.1.4,Win32,60.84205403,0,4,4,86,1,DreamStudyImages_rs1000x750g/Food/IAPS7390_popsicles.jpg,,,
,,7,19.2576,1,1.1539,3,1.9432,1,1.0381,5,0.3103,0,0,0,0,1,main,9,21,male,R,Donders,2021-07-16_14h18.13.666,ImageRatingTask_S4,2021.1.4,Win32,60.84205403,,,,,,,,,
,,,,,,,,,,,,0,1,1,1,1,second,9,21,male,R,Donders,2021-07-16_14h18.13.666,ImageRatingTask_S4,2021.1.4,Win32,60.84205403,,,,,,,,,
,,,,,,,,,,,,0,2,2,2,1,third,9,21,male,R,Donders,2021-07-16_14h18.13.666,ImageRatingTask_S4,2021.1.4,Win32,60.84205403,,,,,,,,,
,,,,,,,,,,,,0,3,3,3,1,fourth,9,21,male,R,Donders,2021-07-16_14h18.13.666,ImageRatingTask_S4,2021.1.4,Win32,60.84205403,,,,,,,,,
,,,,,,,,,,,,0,4,4,4,1,fifth,9,21,male,R,Donders,2021-07-16_14h18.13.666,ImageRatingTask_S4,2021.1.4,Win32,60.84205403,,,,,,,,,
,,,,,,,,,,,,0,5,5,5,1,sixth,9,21,male,R,Donders,2021-07-16_14h18.13.666,ImageRatingTask_S4,2021.1.4,Win32,60.84205403,,,,,,,,,
,,,,,,,,,,,,0,6,6,6,1,seventh,9,21,male,R,Donders,2021-07-16_14h18.13.666,ImageRatingTask_S4,2021.1.4,Win32,60.84205403,,,,,,,,,
,,,,,,,,,,,,0,7,7,7,1,last,9,21,male,R,Donders,2021-07-16_14h18.13.666,ImageRatingTask_S4,2021.1.4,Win32,60.84205403,,,,,,,,,
,,,,,,,,,,,,,,,,,,9,21,male,R,Donders,2021-07-16_14h18.13.666,ImageRatingTask_S4,2021.1.4,Win32,60.84205403,0,5,5,2,1,DreamStudyImages_rs1000x750g/Food/IAPS7475_curry.jpg,,,
,,8,7.473,1,1.4162,2,1.637,1,1.1077,3,0.3392,0,0,0,0,1,main,9,21,male,R,Donders,2021-07-16_14h18.13.666,ImageRatingTask_S4,2021.1.4,Win32,60.84205403,,,,,,,,,
,,,,,,,,,,,,0,1,1,1,1,second,9,21,male,R,Donders,2021-07-16_14h18.13.666,ImageRatingTask_S4,2021.1.4,Win32,60.84205403,,,,,,,,,
,,,,,,,,,,,,0,2,2,2,1,third,9,21,male,R,Donders,2021-07-16_14h18.13.666,ImageRatingTask_S4,2021.1.4,Win32,60.84205403,,,,,,,,,
,,,,,,,,,,,,0,3,3,3,1,fourth,9,21,male,R,Donders,2021-07-16_14h18.13.666,ImageRatingTask_S4,2021.1.4,Win32,60.84205403,,,,,,,,,
,,,,,,,,,,,,0,4,4,4,1,fifth,9,21,male,R,Donders,2021-07-16_14h18.13.666,ImageRatingTask_S4,2021.1.4,Win32,60.84205403,,,,,,,,,
,,,,,,,,,,,,0,5,5,5,1,sixth,9,21,male,R,Donders,2021-07-16_14h18.13.666,ImageRatingTask_S4,2021.1.4,Win32,60.84205403,,,,,,,,,
,,,,,,,,,,,,0,6,6,6,1,seventh,9,21,male,R,Donders,2021-07-16_14h18.13.666,ImageRatingTask_S4,2021.1.4,Win32,60.84205403,,,,,,,,,
,,,,,,,,,,,,0,7,7,7,1,last,9,21,male,R,Donders,2021-07-16_14h18.13.666,ImageRatingTask_S4,2021.1.4,Win32,60.84205403,,,,,,,,,
,,,,,,,,,,,,,,,,,,9,21,male,R,Donders,2021-07-16_14h18.13.666,ImageRatingTask_S4,2021.1.4,Win32,60.84205403,0,6,6,60,1,DreamStudyImages_rs1000x750g/Mammals/IAPS1595_horse2.jpg,,,
,,3,2.8828,1,0.854,2,0.8023,1,1.027,6,0.8679,0,0,0,0,1,main,9,21,male,R,Donders,2021-07-16_14h18.13.666,ImageRatingTask_S4,2021.1.4,Win32,60.84205403,,,,,,,,,
,,,,,,,,,,,,0,1,1,1,1,second,9,21,male,R,Donders,2021-07-16_14h18.13.666,ImageRatingTask_S4,2021.1.4,Win32,60.84205403,,,,,,,,,
,,,,,,,,,,,,0,2,2,2,1,third,9,21,male,R,Donders,2021-07-16_14h18.13.666,ImageRatingTask_S4,2021.1.4,Win32,60.84205403,,,,,,,,,
,,,,,,,,,,,,0,3,3,3,1,fourth,9,21,male,R,Donders,2021-07-16_14h18.13.666,ImageRatingTask_S4,2021.1.4,Win32,60.84205403,,,,,,,,,
,,,,,,,,,,,,0,4,4,4,1,fifth,9,21,male,R,Donders,2021-07-16_14h18.13.666,ImageRatingTask_S4,2021.1.4,Win32,60.84205403,,,,,,,,,
,,,,,,,,,,,,0,5,5,5,1,sixth,9,21,male,R,Donders,2021-07-16_14h18.13.666,ImageRatingTask_S4,2021.1.4,Win32,60.84205403,,,,,,,,,
,,,,,,,,,,,,0,6,6,6,1,seventh,9,21,male,R,Donders,2021-07-16_14h18.13.666,ImageRatingTask_S4,2021.1.4,Win32,60.84205403,,,,,,,,,
,,,,,,,,,,,,0,7,7,7,1,last,9,21,male,R,Donders,2021-07-16_14h18.13.666,ImageRatingTask_S4,2021.1.4,Win32,60.84205403,,,,,,,,,
,,,,,,,,,,,,,,,,,,9,21,male,R,Donders,2021-07-16_14h18.13.666,ImageRatingTask_S4,2021.1.4,Win32,60.84205403,0,7,7,143,1,DreamStudyImages_rs1000x750g/Houses/NDPS113_houseonfire2.jpg,,,
,,9,2.9421,1,1.1979,8,4.3915,1,1.2133,6,1.6334,0,0,0,0,1,main,9,21,male,R,Donders,2021-07-16_14h18.13.666,ImageRatingTask_S4,2021.1.4,Win32,60.84205403,,,,,,,,,
,,,,,,,,,,,,0,1,1,1,1,second,9,21,male,R,Donders,2021-07-16_14h18.13.666,ImageRatingTask_S4,2021.1.4,Win32,60.84205403,,,,,,,,,
,,,,,,,,,,,,0,2,2,2,1,third,9,21,male,R,Donders,2021-07-16_14h18.13.666,ImageRatingTask_S4,2021.1.4,Win32,60.84205403,,,,,,,,,
,,,,,,,,,,,,0,3,3,3,1,fourth,9,21,male,R,Donders,2021-07-16_14h18.13.666,ImageRatingTask_S4,2021.1.4,Win32,60.84205403,,,,,,,,,
,,,,,,,,,,,,0,4,4,4,1,fifth,9,21,male,R,Donders,2021-07-16_14h18.13.666,ImageRatingTask_S4,2021.1.4,Win32,60.84205403,,,,,,,,,
,,,,,,,,,,,,0,5,5,5,1,sixth,9,21,male,R,Donders,2021-07-16_14h18.13.666,ImageRatingTask_S4,2021.1.4,Win32,60.84205403,,,,,,,,,
,,,,,,,,,,,,0,6,6,6,1,seventh,9,21,male,R,Donders,2021-07-16_14h18.13.666,ImageRatingTask_S4,2021.1.4,Win32,60.84205403,,,,,,,,,
,,,,,,,,,,,,0,7,7,7,1,last,9,21,male,R,Donders,2021-07-16_14h18.13.666,ImageRatingTask_S4,2021.1.4,Win32,60.84205403,,,,,,,,,
,,,,,,,,,,,,,,,,,,9,21,male,R,Donders,2021-07-16_14h18.13.666,ImageRatingTask_S4,2021.1.4,Win32,60.84205403,0,8,8,3,1,DreamStudyImages_rs1000x750g/Houses/nicehouse.jpg,,,
,,6,6.0349,1,1.1706,7,1.4728,1,1.8278,7,0.6422,0,0,0,0,1,main,9,21,male,R,Donders,2021-07-16_14h18.13.666,ImageRatingTask_S4,2021.1.4,Win32,60.84205403,,,,,,,,,
,,,,,,,,,,,,0,1,1,1,1,second,9,21,male,R,Donders,2021-07-16_14h18.13.666,ImageRatingTask_S4,2021.1.4,Win32,60.84205403,,,,,,,,,
,,,,,,,,,,,,0,2,2,2,1,third,9,21,male,R,Donders,2021-07-16_14h18.13.666,ImageRatingTask_S4,2021.1.4,Win32,60.84205403,,,,,,,,,
,,,,,,,,,,,,0,3,3,3,1,fourth,9,21,male,R,Donders,2021-07-16_14h18.13.666,ImageRatingTask_S4,2021.1.4,Win32,60.84205403,,,,,,,,,
,,,,,,,,,,,,0,4,4,4,1,fifth,9,21,male,R,Donders,2021-07-16_14h18.13.666,ImageRatingTask_S4,2021.1.4,Win32,60.84205403,,,,,,,,,
,,,,,,,,,,,,0,5,5,5,1,sixth,9,21,male,R,Donders,2021-07-16_14h18.13.666,ImageRatingTask_S4,2021.1.4,Win32,60.84205403,,,,,,,,,
,,,,,,,,,,,,0,6,6,6,1,seventh,9,21,male,R,Donders,2021-07-16_14h18.13.666,ImageRatingTask_S4,2021.1.4,Win32,60.84205403,,,,,,,,,
,,,,,,,,,,,,0,7,7,7,1,last,9,21,male,R,Donders,2021-07-16_14h18.13.666,ImageRatingTask_S4,2021.1.4,Win32,60.84205403,,,,,,,,,
,,,,,,,,,,,,,,,,,,9,21,male,R,Donders,2021-07-16_14h18.13.666,ImageRatingTask_S4,2021.1.4,Win32,60.84205403,0,9,9,75,1,DreamStudyImages_rs1000x750g/Vehicles/Objects_325_h.jpg,,,
,,4,1.9126,1,1.3644,6,2.2572,1,1.0087,2,0.3174,0,0,0,0,1,main,9,21,male,R,Donders,2021-07-16_14h18.13.666,ImageRatingTask_S4,2021.1.4,Win32,60.84205403,,,,,,,,,
,,,,,,,,,,,,0,1,1,1,1,second,9,21,male,R,Donders,2021-07-16_14h18.13.666,ImageRatingTask_S4,2021.1.4,Win32,60.84205403,,,,,,,,,
,,,,,,,,,,,,0,2,2,2,1,third,9,21,male,R,Donders,2021-07-16_14h18.13.666,ImageRatingTask_S4,2021.1.4,Win32,60.84205403,,,,,,,,,
,,,,,,,,,,,,0,3,3,3,1,fourth,9,21,male,R,Donders,2021-07-16_14h18.13.666,ImageRatingTask_S4,2021.1.4,Win32,60.84205403,,,,,,,,,
,,,,,,,,,,,,0,4,4,4,1,fifth,9,21,male,R,Donders,2021-07-16_14h18.13.666,ImageRatingTask_S4,2021.1.4,Win32,60.84205403,,,,,,,,,
,,,,,,,,,,,,0,5,5,5,1,sixth,9,21,male,R,Donders,2021-07-16_14h18.13.666,ImageRatingTask_S4,2021.1.4,Win32,60.84205403,,,,,,,,,
,,,,,,,,,,,,0,6,6,6,1,seventh,9,21,male,R,Donders,2021-07-16_14h18.13.666,ImageRatingTask_S4,2021.1.4,Win32,60.84205403,,,,,,,,,
,,,,,,,,,,,,0,7,7,7,1,last,9,21,male,R,Donders,2021-07-16_14h18.13.666,ImageRatingTask_S4,2021.1.4,Win32,60.84205403,,,,,,,,,
,,,,,,,,,,,,,,,,,,9,21,male,R,Donders,2021-07-16_14h18.13.666,ImageRatingTask_S4,2021.1.4,Win32,60.84205403,0,10,10,141,1,DreamStudyImages_rs1000x750g/Children/People_042_h.jpg,,,
,,3,4.0901,1,0.6615,6,2.2017,1,1.1477,7,1.0508,0,0,0,0,1,main,9,21,male,R,Donders,2021-07-16_14h18.13.666,ImageRatingTask_S4,2021.1.4,Win32,60.84205403,,,,,,,,,
,,,,,,,,,,,,0,1,1,1,1,second,9,21,male,R,Donders,2021-07-16_14h18.13.666,ImageRatingTask_S4,2021.1.4,Win32,60.84205403,,,,,,,,,
,,,,,,,,,,,,0,2,2,2,1,third,9,21,male,R,Donders,2021-07-16_14h18.13.666,ImageRatingTask_S4,2021.1.4,Win32,60.84205403,,,,,,,,,
,,,,,,,,,,,,0,3,3,3,1,fourth,9,21,male,R,Donders,2021-07-16_14h18.13.666,ImageRatingTask_S4,2021.1.4,Win32,60.84205403,,,,,,,,,
,,,,,,,,,,,,0,4,4,4,1,fifth,9,21,male,R,Donders,2021-07-16_14h18.13.666,ImageRatingTask_S4,2021.1.4,Win32,60.84205403,,,,,,,,,
,,,,,,,,,,,,0,5,5,5,1,sixth,9,21,male,R,Donders,2021-07-16_14h18.13.666,ImageRatingTask_S4,2021.1.4,Win32,60.84205403,,,,,,,,,
,,,,,,,,,,,,0,6,6,6,1,seventh,9,21,male,R,Donders,2021-07-16_14h18.13.666,ImageRatingTask_S4,2021.1.4,Win32,60.84205403,,,,,,,,,
,,,,,,,,,,,,0,7,7,7,1,last,9,21,male,R,Donders,2021-07-16_14h18.13.666,ImageRatingTask_S4,2021.1.4,Win32,60.84205403,,,,,,,,,
,,,,,,,,,,,,,,,,,,9,21,male,R,Donders,2021-07-16_14h18.13.666,ImageRatingTask_S4,2021.1.4,Win32,60.84205403,0,11,11,28,1,DreamStudyImages_rs1000x750g/Vehicles/Objects_311_h.jpg,,,
,,2,1.9763,8,2.0099,4,1.9343,2,4.3906,6,1.9584,0,0,0,0,1,main,9,21,male,R,Donders,2021-07-16_14h18.13.666,ImageRatingTask_S4,2021.1.4,Win32,60.84205403,,,,,,,,,
,,,,,,,,,,8,0.1737,0,1,1,1,1,second,9,21,male,R,Donders,2021-07-16_14h18.13.666,ImageRatingTask_S4,2021.1.4,Win32,60.84205403,,,,,,,,,
,,,,,,,,,,,,0,2,2,2,1,third,9,21,male,R,Donders,2021-07-16_14h18.13.666,ImageRatingTask_S4,2021.1.4,Win32,60.84205403,,,,,,,,,
,,,,,,,,,,,,0,3,3,3,1,fourth,9,21,male,R,Donders,2021-07-16_14h18.13.666,ImageRatingTask_S4,2021.1.4,Win32,60.84205403,,,,,,,,,
,,,,,,,,,,,,0,4,4,4,1,fifth,9,21,male,R,Donders,2021-07-16_14h18.13.666,ImageRatingTask_S4,2021.1.4,Win32,60.84205403,,,,,,,,,
,,,,,,,,,,,,0,5,5,5,1,sixth,9,21,male,R,Donders,2021-07-16_14h18.13.666,ImageRatingTask_S4,2021.1.4,Win32,60.84205403,,,,,,,,,
,,,,,,,,,,,,0,6,6,6,1,seventh,9,21,male,R,Donders,2021-07-16_14h18.13.666,ImageRatingTask_S4,2021.1.4,Win32,60.84205403,,,,,,,,,
,,,,,,,,,,,,0,7,7,7,1,last,9,21,male,R,Donders,2021-07-16_14h18.13.666,ImageRatingTask_S4,2021.1.4,Win32,60.84205403,,,,,,,,,
,,,,,,,,,,,,,,,,,,9,21,male,R,Donders,2021-07-16_14h18.13.666,ImageRatingTask_S4,2021.1.4,Win32,60.84205403,0,12,12,99,1,DreamStudyImages_rs1000x750g/Houses/NDPS95_cityskyline.jpg,,,
,,3,2.5941,1,0.7369,5,2.4918,1,1.0693,2,0.1707,0,0,0,0,1,main,9,21,male,R,Donders,2021-07-16_14h18.13.666,ImageRatingTask_S4,2021.1.4,Win32,60.84205403,,,,,,,,,
,,,,,,,,,,,,0,1,1,1,1,second,9,21,male,R,Donders,2021-07-16_14h18.13.666,ImageRatingTask_S4,2021.1.4,Win32,60.84205403,,,,,,,,,
,,,,,,,,,,,,0,2,2,2,1,third,9,21,male,R,Donders,2021-07-16_14h18.13.666,ImageRatingTask_S4,2021.1.4,Win32,60.84205403,,,,,,,,,
,,,,,,,,,,,,0,3,3,3,1,fourth,9,21,male,R,Donders,2021-07-16_14h18.13.666,ImageRatingTask_S4,2021.1.4,Win32,60.84205403,,,,,,,,,
,,,,,,,,,,,,0,4,4,4,1,fifth,9,21,male,R,Donders,2021-07-16_14h18.13.666,ImageRatingTask_S4,2021.1.4,Win32,60.84205403,,,,,,,,,
,,,,,,,,,,,,0,5,5,5,1,sixth,9,21,male,R,Donders,2021-07-16_14h18.13.666,ImageRatingTask_S4,2021.1.4,Win32,60.84205403,,,,,,,,,
,,,,,,,,,,,,0,6,6,6,1,seventh,9,21,male,R,Donders,2021-07-16_14h18.13.666,ImageRatingTask_S4,2021.1.4,Win32,60.84205403,,,,,,,,,
,,,,,,,,,,,,0,7,7,7,1,last,9,21,male,R,Donders,2021-07-16_14h18.13.666,ImageRatingTask_S4,2021.1.4,Win32,60.84205403,,,,,,,,,
,,,,,,,,,,,,,,,,,,9,21,male,R,Donders,2021-07-16_14h18.13.666,ImageRatingTask_S4,2021.1.4,Win32,60.84205403,0,13,13,130,1,DreamStudyImages_rs1000x750g/Children/IAPS2250_baby19.jpg,,,
,,7,1.9816,1,0.7063,8,2.351,1,2.2048,3,0.1482,0,0,0,0,1,main,9,21,male,R,Donders,2021-07-16_14h18.13.666,ImageRatingTask_S4,2021.1.4,Win32,60.84205403,,,,,,,,,
,,,,,,,,,,,,0,1,1,1,1,second,9,21,male,R,Donders,2021-07-16_14h18.13.666,ImageRatingTask_S4,2021.1.4,Win32,60.84205403,,,,,,,,,
,,,,,,,,,,,,0,2,2,2,1,third,9,21,male,R,Donders,2021-07-16_14h18.13.666,ImageRatingTask_S4,2021.1.4,Win32,60.84205403,,,,,,,,,
,,,,,,,,,,,,0,3,3,3,1,fourth,9,21,male,R,Donders,2021-07-16_14h18.13.666,ImageRatingTask_S4,2021.1.4,Win32,60.84205403,,,,,,,,,
,,,,,,,,,,,,0,4,4,4,1,fifth,9,21,male,R,Donders,2021-07-16_14h18.13.666,ImageRatingTask_S4,2021.1.4,Win32,60.84205403,,,,,,,,,
,,,,,,,,,,,,0,5,5,5,1,sixth,9,21,male,R,Donders,2021-07-16_14h18.13.666,ImageRatingTask_S4,2021.1.4,Win32,60.84205403,,,,,,,,,
,,,,,,,,,,,,0,6,6,6,1,seventh,9,21,male,R,Donders,2021-07-16_14h18.13.666,ImageRatingTask_S4,2021.1.4,Win32,60.84205403,,,,,,,,,
,,,,,,,,,,,,0,7,7,7,1,last,9,21,male,R,Donders,2021-07-16_14h18.13.666,ImageRatingTask_S4,2021.1.4,Win32,60.84205403,,,,,,,,,
,,,,,,,,,,,,,,,,,,9,21,male,R,Donders,2021-07-16_14h18.13.666,ImageRatingTask_S4,2021.1.4,Win32,60.84205403,0,14,14,104,1,DreamStudyImages_rs1000x750g/Mammals/Chipmunk 2.jpg,,,
,,4,2.2595,1,0.6231,8,1.524,1,2.3063,3,0.3197,0,0,0,0,1,main,9,21,male,R,Donders,2021-07-16_14h18.13.666,ImageRatingTask_S4,2021.1.4,Win32,60.84205403,,,,,,,,,
,,,,,,,,,,,,0,1,1,1,1,second,9,21,male,R,Donders,2021-07-16_14h18.13.666,ImageRatingTask_S4,2021.1.4,Win32,60.84205403,,,,,,,,,
,,,,,,,,,,,,0,2,2,2,1,third,9,21,male,R,Donders,2021-07-16_14h18.13.666,ImageRatingTask_S4,2021.1.4,Win32,60.84205403,,,,,,,,,
,,,,,,,,,,,,0,3,3,3,1,fourth,9,21,male,R,Donders,2021-07-16_14h18.13.666,ImageRatingTask_S4,2021.1.4,Win32,60.84205403,,,,,,,,,
,,,,,,,,,,,,0,4,4,4,1,fifth,9,21,male,R,Donders,2021-07-16_14h18.13.666,ImageRatingTask_S4,2021.1.4,Win32,60.84205403,,,,,,,,,
,,,,,,,,,,,,0,5,5,5,1,sixth,9,21,male,R,Donders,2021-07-16_14h18.13.666,ImageRatingTask_S4,2021.1.4,Win32,60.84205403,,,,,,,,,
,,,,,,,,,,,,0,6,6,6,1,seventh,9,21,male,R,Donders,2021-07-16_14h18.13.666,ImageRatingTask_S4,2021.1.4,Win32,60.84205403,,,,,,,,,
,,,,,,,,,,,,0,7,7,7,1,last,9,21,male,R,Donders,2021-07-16_14h18.13.666,ImageRatingTask_S4,2021.1.4,Win32,60.84205403,,,,,,,,,
,,,,,,,,,,,,,,,,,,9,21,male,R,Donders,2021-07-16_14h18.13.666,ImageRatingTask_S4,2021.1.4,Win32,60.84205403,0,15,15,64,1,DreamStudyImages_rs1000x750g/Mammals/Raccoon 1.jpg,,,
,,4,7.3144,2,0.9648,5,2.018,1,1.2225,6,0.5937,0,0,0,0,1,main,9,21,male,R,Donders,2021-07-16_14h18.13.666,ImageRatingTask_S4,2021.1.4,Win32,60.84205403,,,,,,,,,
,,,,,,,,,,,,0,1,1,1,1,second,9,21,male,R,Donders,2021-07-16_14h18.13.666,ImageRatingTask_S4,2021.1.4,Win32,60.84205403,,,,,,,,,
,,,,,,,,,,,,0,2,2,2,1,third,9,21,male,R,Donders,2021-07-16_14h18.13.666,ImageRatingTask_S4,2021.1.4,Win32,60.84205403,,,,,,,,,
,,,,,,,,,,,,0,3,3,3,1,fourth,9,21,male,R,Donders,2021-07-16_14h18.13.666,ImageRatingTask_S4,2021.1.4,Win32,60.84205403,,,,,,,,,
,,,,,,,,,,,,0,4,4,4,1,fifth,9,21,male,R,Donders,2021-07-16_14h18.13.666,ImageRatingTask_S4,2021.1.4,Win32,60.84205403,,,,,,,,,
,,,,,,,,,,,,0,5,5,5,1,sixth,9,21,male,R,Donders,2021-07-16_14h18.13.666,ImageRatingTask_S4,2021.1.4,Win32,60.84205403,,,,,,,,,
,,,,,,,,,,,,0,6,6,6,1,seventh,9,21,male,R,Donders,2021-07-16_14h18.13.666,ImageRatingTask_S4,2021.1.4,Win32,60.84205403,,,,,,,,,
,,,,,,,,,,,,0,7,7,7,1,last,9,21,male,R,Donders,2021-07-16_14h18.13.666,ImageRatingTask_S4,2021.1.4,Win32,60.84205403,,,,,,,,,
,,,,,,,,,,,,,,,,,,9,21,male,R,Donders,2021-07-16_14h18.13.666,ImageRatingTask_S4,2021.1.4,Win32,60.84205403,0,16,16,48,1,DreamStudyImages_rs1000x750g/Houses/Objects_116_v.jpg,,,
,,6,7.4316,1,1.1014,4,1.7477,1,0.6907,2,0.3385,0,0,0,0,1,main,9,21,male,R,Donders,2021-07-16_14h18.13.666,ImageRatingTask_S4,2021.1.4,Win32,60.84205403,,,,,,,,,
,,,,,,,,,,,,0,1,1,1,1,second,9,21,male,R,Donders,2021-07-16_14h18.13.666,ImageRatingTask_S4,2021.1.4,Win32,60.84205403,,,,,,,,,
,,,,,,,,,,,,0,2,2,2,1,third,9,21,male,R,Donders,2021-07-16_14h18.13.666,ImageRatingTask_S4,2021.1.4,Win32,60.84205403,,,,,,,,,
,,,,,,,,,,,,0,3,3,3,1,fourth,9,21,male,R,Donders,2021-07-16_14h18.13.666,ImageRatingTask_S4,2021.1.4,Win32,60.84205403,,,,,,,,,
,,,,,,,,,,,,0,4,4,4,1,fifth,9,21,male,R,Donders,2021-07-16_14h18.13.666,ImageRatingTask_S4,2021.1.4,Win32,60.84205403,,,,,,,,,
,,,,,,,,,,,,0,5,5,5,1,sixth,9,21,male,R,Donders,2021-07-16_14h18.13.666,ImageRatingTask_S4,2021.1.4,Win32,60.84205403,,,,,,,,,
,,,,,,,,,,,,0,6,6,6,1,seventh,9,21,male,R,Donders,2021-07-16_14h18.13.666,ImageRatingTask_S4,2021.1.4,Win32,60.84205403,,,,,,,,,
,,,,,,,,,,,,0,7,7,7,1,last,9,21,male,R,Donders,2021-07-16_14h18.13.666,ImageRatingTask_S4,2021.1.4,Win32,60.84205403,,,,,,,,,
,,,,,,,,,,,,,,,,,,9,21,male,R,Donders,2021-07-16_14h18.13.666,ImageRatingTask_S4,2021.1.4,Win32,60.84205403,0,17,17,100,1,DreamStudyImages_rs1000x750g/Children/Faces_045_h.jpg,,,
,,8,1.5438,4,2.6285,5,4.2306,1,2.8889,6,0.2936,0,0,0,0,1,main,9,21,male,R,Donders,2021-07-16_14h18.13.666,ImageRatingTask_S4,2021.1.4,Win32,60.84205403,,,,,,,,,
,,,,,,,,,,,,0,1,1,1,1,second,9,21,male,R,Donders,2021-07-16_14h18.13.666,ImageRatingTask_S4,2021.1.4,Win32,60.84205403,,,,,,,,,
,,,,,,,,,,,,0,2,2,2,1,third,9,21,male,R,Donders,2021-07-16_14h18.13.666,ImageRatingTask_S4,2021.1.4,Win32,60.84205403,,,,,,,,,
,,,,,,,,,,,,0,3,3,3,1,fourth,9,21,male,R,Donders,2021-07-16_14h18.13.666,ImageRatingTask_S4,2021.1.4,Win32,60.84205403,,,,,,,,,
,,,,,,,,,,,,0,4,4,4,1,fifth,9,21,male,R,Donders,2021-07-16_14h18.13.666,ImageRatingTask_S4,2021.1.4,Win32,60.84205403,,,,,,,,,
,,,,,,,,,,,,0,5,5,5,1,sixth,9,21,male,R,Donders,2021-07-16_14h18.13.666,ImageRatingTask_S4,2021.1.4,Win32,60.84205403,,,,,,,,,
,,,,,,,,,,,,0,6,6,6,1,seventh,9,21,male,R,Donders,2021-07-16_14h18.13.666,ImageRatingTask_S4,2021.1.4,Win32,60.84205403,,,,,,,,,
,,,,,,,,,,,,0,7,7,7,1,last,9,21,male,R,Donders,2021-07-16_14h18.13.666,ImageRatingTask_S4,2021.1.4,Win32,60.84205403,,,,,,,,,
,,,,,,,,,,,,,,,,,,9,21,male,R,Donders,2021-07-16_14h18.13.666,ImageRatingTask_S4,2021.1.4,Win32,60.84205403,0,18,18,116,1,DreamStudyImages_rs1000x750g/Houses/IAPS9623_housefire.jpg,,,
,,7,2.8945,1,0.9297,4,6.4952,1,2.0771,8,0.207,0,0,0,0,1,main,9,21,male,R,Donders,2021-07-16_14h18.13.666,ImageRatingTask_S4,2021.1.4,Win32,60.84205403,,,,,,,,,
,,,,,,,,,,,,0,1,1,1,1,second,9,21,male,R,Donders,2021-07-16_14h18.13.666,ImageRatingTask_S4,2021.1.4,Win32,60.84205403,,,,,,,,,
,,,,,,,,,,,,0,2,2,2,1,third,9,21,male,R,Donders,2021-07-16_14h18.13.666,ImageRatingTask_S4,2021.1.4,Win32,60.84205403,,,,,,,,,
,,,,,,,,,,,,0,3,3,3,1,fourth,9,21,male,R,Donders,2021-07-16_14h18.13.666,ImageRatingTask_S4,2021.1.4,Win32,60.84205403,,,,,,,,,
,,,,,,,,,,,,0,4,4,4,1,fifth,9,21,male,R,Donders,2021-07-16_14h18.13.666,ImageRatingTask_S4,2021.1.4,Win32,60.84205403,,,,,,,,,
,,,,,,,,,,,,0,5,5,5,1,sixth,9,21,male,R,Donders,2021-07-16_14h18.13.666,ImageRatingTask_S4,2021.1.4,Win32,60.84205403,,,,,,,,,
,,,,,,,,,,,,0,6,6,6,1,seventh,9,21,male,R,Donders,2021-07-16_14h18.13.666,ImageRatingTask_S4,2021.1.4,Win32,60.84205403,,,,,,,,,
,,,,,,,,,,,,0,7,7,7,1,last,9,21,male,R,Donders,2021-07-16_14h18.13.666,ImageRatingTask_S4,2021.1.4,Win32,60.84205403,,,,,,,,,
,,,,,,,,,,,,,,,,,,9,21,male,R,Donders,2021-07-16_14h18.13.666,ImageRatingTask_S4,2021.1.4,Win32,60.84205403,0,19,19,133,1,DreamStudyImages_rs1000x750g/Water/IAPS5780_lake2.jpg,,,
,,5,6.8723,1,0.5585,6,1.5993,1,0.8518,6,1.0457,0,0,0,0,1,main,9,21,male,R,Donders,2021-07-16_14h18.13.666,ImageRatingTask_S4,2021.1.4,Win32,60.84205403,,,,,,,,,
,,,,,,,,,,,,0,1,1,1,1,second,9,21,male,R,Donders,2021-07-16_14h18.13.666,ImageRatingTask_S4,2021.1.4,Win32,60.84205403,,,,,,,,,
,,,,,,,,,,,,0,2,2,2,1,third,9,21,male,R,Donders,2021-07-16_14h18.13.666,ImageRatingTask_S4,2021.1.4,Win32,60.84205403,,,,,,,,,
,,,,,,,,,,,,0,3,3,3,1,fourth,9,21,male,R,Donders,2021-07-16_14h18.13.666,ImageRatingTask_S4,2021.1.4,Win32,60.84205403,,,,,,,,,
,,,,,,,,,,,,0,4,4,4,1,fifth,9,21,male,R,Donders,2021-07-16_14h18.13.666,ImageRatingTask_S4,2021.1.4,Win32,60.84205403,,,,,,,,,
,,,,,,,,,,,,0,5,5,5,1,sixth,9,21,male,R,Donders,2021-07-16_14h18.13.666,ImageRatingTask_S4,2021.1.4,Win32,60.84205403,,,,,,,,,
,,,,,,,,,,,,0,6,6,6,1,seventh,9,21,male,R,Donders,2021-07-16_14h18.13.666,ImageRatingTask_S4,2021.1.4,Win32,60.84205403,,,,,,,,,
,,,,,,,,,,,,0,7,7,7,1,last,9,21,male,R,Donders,2021-07-16_14h18.13.666,ImageRatingTask_S4,2021.1.4,Win32,60.84205403,,,,,,,,,
,,,,,,,,,,,,,,,,,,9,21,male,R,Donders,2021-07-16_14h18.13.666,ImageRatingTask_S4,2021.1.4,Win32,60.84205403,0,20,20,110,1,DreamStudyImages_rs1000x750g/Houses/Landscapes_082_v_CROPPED.jpg,,,
,,1,2.9035,8,1.1173,6,2.584,1,2.5001,3,0.0234,0,0,0,0,1,main,9,21,male,R,Donders,2021-07-16_14h18.13.666,ImageRatingTask_S4,2021.1.4,Win32,60.84205403,,,,,,,,,
,,,,,,,,,,,,0,1,1,1,1,second,9,21,male,R,Donders,2021-07-16_14h18.13.666,ImageRatingTask_S4,2021.1.4,Win32,60.84205403,,,,,,,,,
,,,,,,,,,,,,0,2,2,2,1,third,9,21,male,R,Donders,2021-07-16_14h18.13.666,ImageRatingTask_S4,2021.1.4,Win32,60.84205403,,,,,,,,,
,,,,,,,,,,,,0,3,3,3,1,fourth,9,21,male,R,Donders,2021-07-16_14h18.13.666,ImageRatingTask_S4,2021.1.4,Win32,60.84205403,,,,,,,,,
,,,,,,,,,,,,0,4,4,4,1,fifth,9,21,male,R,Donders,2021-07-16_14h18.13.666,ImageRatingTask_S4,2021.1.4,Win32,60.84205403,,,,,,,,,
,,,,,,,,,,,,0,5,5,5,1,sixth,9,21,male,R,Donders,2021-07-16_14h18.13.666,ImageRatingTask_S4,2021.1.4,Win32,60.84205403,,,,,,,,,
,,,,,,,,,,,,0,6,6,6,1,seventh,9,21,male,R,Donders,2021-07-16_14h18.13.666,ImageRatingTask_S4,2021.1.4,Win32,60.84205403,,,,,,,,,
,,,,,,,,,,,,0,7,7,7,1,last,9,21,male,R,Donders,2021-07-16_14h18.13.666,ImageRatingTask_S4,2021.1.4,Win32,60.84205403,,,,,,,,,
,,,,,,,,,,,,,,,,,,9,21,male,R,Donders,2021-07-16_14h18.13.666,ImageRatingTask_S4,2021.1.4,Win32,60.84205403,0,21,21,98,1,DreamStudyImages_rs1000x750g/Mammals/Animals_025_h.jpg,,,
,,7,2.3152,1,0.4926,3,3.3511,1,1.7334,5,0.2643,0,0,0,0,1,main,9,21,male,R,Donders,2021-07-16_14h18.13.666,ImageRatingTask_S4,2021.1.4,Win32,60.84205403,,,,,,,,,
,,,,,,,,,,,,0,1,1,1,1,second,9,21,male,R,Donders,2021-07-16_14h18.13.666,ImageRatingTask_S4,2021.1.4,Win32,60.84205403,,,,,,,,,
,,,,,,,,,,,,0,2,2,2,1,third,9,21,male,R,Donders,2021-07-16_14h18.13.666,ImageRatingTask_S4,2021.1.4,Win32,60.84205403,,,,,,,,,
,,,,,,,,,,,,0,3,3,3,1,fourth,9,21,male,R,Donders,2021-07-16_14h18.13.666,ImageRatingTask_S4,2021.1.4,Win32,60.84205403,,,,,,,,,
,,,,,,,,,,,,0,4,4,4,1,fifth,9,21,male,R,Donders,2021-07-16_14h18.13.666,ImageRatingTask_S4,2021.1.4,Win32,60.84205403,,,,,,,,,
,,,,,,,,,,,,0,5,5,5,1,sixth,9,21,male,R,Donders,2021-07-16_14h18.13.666,ImageRatingTask_S4,2021.1.4,Win32,60.84205403,,,,,,,,,
,,,,,,,,,,,,0,6,6,6,1,seventh,9,21,male,R,Donders,2021-07-16_14h18.13.666,ImageRatingTask_S4,2021.1.4,Win32,60.84205403,,,,,,,,,
,,,,,,,,,,,,0,7,7,7,1,last,9,21,male,R,Donders,2021-07-16_14h18.13.666,ImageRatingTask_S4,2021.1.4,Win32,60.84205403,,,,,,,,,
,,,,,,,,,,,,,,,,,,9,21,male,R,Donders,2021-07-16_14h18.13.666,ImageRatingTask_S4,2021.1.4,Win32,60.84205403,0,22,22,157,1,DreamStudyImages_rs1000x750g/Food/IAPS7285_tomatoes.jpg,,,
,,6,2.7269,1,1.3857,7,1.7883,1,1.2723,5,0.6436,0,0,0,0,1,main,9,21,male,R,Donders,2021-07-16_14h18.13.666,ImageRatingTask_S4,2021.1.4,Win32,60.84205403,,,,,,,,,
,,,,,,,,,,,,0,1,1,1,1,second,9,21,male,R,Donders,2021-07-16_14h18.13.666,ImageRatingTask_S4,2021.1.4,Win32,60.84205403,,,,,,,,,
,,,,,,,,,,,,0,2,2,2,1,third,9,21,male,R,Donders,2021-07-16_14h18.13.666,ImageRatingTask_S4,2021.1.4,Win32,60.84205403,,,,,,,,,
,,,,,,,,,,,,0,3,3,3,1,fourth,9,21,male,R,Donders,2021-07-16_14h18.13.666,ImageRatingTask_S4,2021.1.4,Win32,60.84205403,,,,,,,,,
,,,,,,,,,,,,0,4,4,4,1,fifth,9,21,male,R,Donders,2021-07-16_14h18.13.666,ImageRatingTask_S4,2021.1.4,Win32,60.84205403,,,,,,,,,
,,,,,,,,,,,,0,5,5,5,1,sixth,9,21,male,R,Donders,2021-07-16_14h18.13.666,ImageRatingTask_S4,2021.1.4,Win32,60.84205403,,,,,,,,,
,,,,,,,,,,,,0,6,6,6,1,seventh,9,21,male,R,Donders,2021-07-16_14h18.13.666,ImageRatingTask_S4,2021.1.4,Win32,60.84205403,,,,,,,,,
,,,,,,,,,,,,0,7,7,7,1,last,9,21,male,R,Donders,2021-07-16_14h18.13.666,ImageRatingTask_S4,2021.1.4,Win32,60.84205403,,,,,,,,,
,,,,,,,,,,,,,,,,,,9,21,male,R,Donders,2021-07-16_14h18.13.666,ImageRatingTask_S4,2021.1.4,Win32,60.84205403,0,23,23,91,1,DreamStudyImages_rs1000x750g/Food/Objects_016_h.jpg,,,
,,6,4.0187,1,0.5525,6,2.2538,1,1.1349,5,0.6108,0,0,0,0,1,main,9,21,male,R,Donders,2021-07-16_14h18.13.666,ImageRatingTask_S4,2021.1.4,Win32,60.84205403,,,,,,,,,
,,,,,,,,,,,,0,1,1,1,1,second,9,21,male,R,Donders,2021-07-16_14h18.13.666,ImageRatingTask_S4,2021.1.4,Win32,60.84205403,,,,,,,,,
,,,,,,,,,,,,0,2,2,2,1,third,9,21,male,R,Donders,2021-07-16_14h18.13.666,ImageRatingTask_S4,2021.1.4,Win32,60.84205403,,,,,,,,,
,,,,,,,,,,,,0,3,3,3,1,fourth,9,21,male,R,Donders,2021-07-16_14h18.13.666,ImageRatingTask_S4,2021.1.4,Win32,60.84205403,,,,,,,,,
,,,,,,,,,,,,0,4,4,4,1,fifth,9,21,male,R,Donders,2021-07-16_14h18.13.666,ImageRatingTask_S4,2021.1.4,Win32,60.84205403,,,,,,,,,
,,,,,,,,,,,,0,5,5,5,1,sixth,9,21,male,R,Donders,2021-07-16_14h18.13.666,ImageRatingTask_S4,2021.1.4,Win32,60.84205403,,,,,,,,,
,,,,,,,,,,,,0,6,6,6,1,seventh,9,21,male,R,Donders,2021-07-16_14h18.13.666,ImageRatingTask_S4,2021.1.4,Win32,60.84205403,,,,,,,,,
,,,,,,,,,,,,0,7,7,7,1,last,9,21,male,R,Donders,2021-07-16_14h18.13.666,ImageRatingTask_S4,2021.1.4,Win32,60.84205403,,,,,,,,,
,,,,,,,,,,,,,,,,,,9,21,male,R,Donders,2021-07-16_14h18.13.666,ImageRatingTask_S4,2021.1.4,Win32,60.84205403,0,24,24,18,1,DreamStudyImages_rs1000x750g/Food/IAPS7481_diner3.jpg,,,
,,6,2.3328,1,0.6481,4,10.0719,2,2.6115,2,0.5551,0,0,0,0,1,main,9,21,male,R,Donders,2021-07-16_14h18.13.666,ImageRatingTask_S4,2021.1.4,Win32,60.84205403,,,,,,,,,
,,,,,,,,,,1,0.1005,0,1,1,1,1,second,9,21,male,R,Donders,2021-07-16_14h18.13.666,ImageRatingTask_S4,2021.1.4,Win32,60.84205403,,,,,,,,,
,,,,,,,,,,,,0,2,2,2,1,third,9,21,male,R,Donders,2021-07-16_14h18.13.666,ImageRatingTask_S4,2021.1.4,Win32,60.84205403,,,,,,,,,
,,,,,,,,,,,,0,3,3,3,1,fourth,9,21,male,R,Donders,2021-07-16_14h18.13.666,ImageRatingTask_S4,2021.1.4,Win32,60.84205403,,,,,,,,,
,,,,,,,,,,,,0,4,4,4,1,fifth,9,21,male,R,Donders,2021-07-16_14h18.13.666,ImageRatingTask_S4,2021.1.4,Win32,60.84205403,,,,,,,,,
,,,,,,,,,,,,0,5,5,5,1,sixth,9,21,male,R,Donders,2021-07-16_14h18.13.666,ImageRatingTask_S4,2021.1.4,Win32,60.84205403,,,,,,,,,
,,,,,,,,,,,,0,6,6,6,1,seventh,9,21,male,R,Donders,2021-07-16_14h18.13.666,ImageRatingTask_S4,2021.1.4,Win32,60.84205403,,,,,,,,,
,,,,,,,,,,,,0,7,7,7,1,last,9,21,male,R,Donders,2021-07-16_14h18.13.666,ImageRatingTask_S4,2021.1.4,Win32,60.84205403,,,,,,,,,
,,,,,,,,,,,,,,,,,,9,21,male,R,Donders,2021-07-16_14h18.13.666,ImageRatingTask_S4,2021.1.4,Win32,60.84205403,0,25,25,69,1,DreamStudyImages_rs1000x750g/Children/Faces_102_h.jpg,,,
,,6,2.9778,1,2.0615,4,1.9467,1,2.5704,5,0.221,0,0,0,0,1,main,9,21,male,R,Donders,2021-07-16_14h18.13.666,ImageRatingTask_S4,2021.1.4,Win32,60.84205403,,,,,,,,,
,,,,,,,,,,,,0,1,1,1,1,second,9,21,male,R,Donders,2021-07-16_14h18.13.666,ImageRatingTask_S4,2021.1.4,Win32,60.84205403,,,,,,,,,
,,,,,,,,,,,,0,2,2,2,1,third,9,21,male,R,Donders,2021-07-16_14h18.13.666,ImageRatingTask_S4,2021.1.4,Win32,60.84205403,,,,,,,,,
,,,,,,,,,,,,0,3,3,3,1,fourth,9,21,male,R,Donders,2021-07-16_14h18.13.666,ImageRatingTask_S4,2021.1.4,Win32,60.84205403,,,,,,,,,
,,,,,,,,,,,,0,4,4,4,1,fifth,9,21,male,R,Donders,2021-07-16_14h18.13.666,ImageRatingTask_S4,2021.1.4,Win32,60.84205403,,,,,,,,,
,,,,,,,,,,,,0,5,5,5,1,sixth,9,21,male,R,Donders,2021-07-16_14h18.13.666,ImageRatingTask_S4,2021.1.4,Win32,60.84205403,,,,,,,,,
,,,,,,,,,,,,0,6,6,6,1,seventh,9,21,male,R,Donders,2021-07-16_14h18.13.666,ImageRatingTask_S4,2021.1.4,Win32,60.84205403,,,,,,,,,
,,,,,,,,,,,,0,7,7,7,1,last,9,21,male,R,Donders,2021-07-16_14h18.13.666,ImageRatingTask_S4,2021.1.4,Win32,60.84205403,,,,,,,,,
,,,,,,,,,,,,,,,,,,9,21,male,R,Donders,2021-07-16_14h18.13.666,ImageRatingTask_S4,2021.1.4,Win32,60.84205403,0,26,26,93,1,DreamStudyImages_rs1000x750g/Food/Objects_050_h.jpg,,,
,,9,2.4651,5,0.664,4,13.0997,1,0.9149,7,0.8773,0,0,0,0,1,main,9,21,male,R,Donders,2021-07-16_14h18.13.666,ImageRatingTask_S4,2021.1.4,Win32,60.84205403,,,,,,,,,
,,,,,,,,,,,,0,1,1,1,1,second,9,21,male,R,Donders,2021-07-16_14h18.13.666,ImageRatingTask_S4,2021.1.4,Win32,60.84205403,,,,,,,,,
,,,,,,,,,,,,0,2,2,2,1,third,9,21,male,R,Donders,2021-07-16_14h18.13.666,ImageRatingTask_S4,2021.1.4,Win32,60.84205403,,,,,,,,,
,,,,,,,,,,,,0,3,3,3,1,fourth,9,21,male,R,Donders,2021-07-16_14h18.13.666,ImageRatingTask_S4,2021.1.4,Win32,60.84205403,,,,,,,,,
,,,,,,,,,,,,0,4,4,4,1,fifth,9,21,male,R,Donders,2021-07-16_14h18.13.666,ImageRatingTask_S4,2021.1.4,Win32,60.84205403,,,,,,,,,
,,,,,,,,,,,,0,5,5,5,1,sixth,9,21,male,R,Donders,2021-07-16_14h18.13.666,ImageRatingTask_S4,2021.1.4,Win32,60.84205403,,,,,,,,,
,,,,,,,,,,,,0,6,6,6,1,seventh,9,21,male,R,Donders,2021-07-16_14h18.13.666,ImageRatingTask_S4,2021.1.4,Win32,60.84205403,,,,,,,,,
,,,,,,,,,,,,0,7,7,7,1,last,9,21,male,R,Donders,2021-07-16_14h18.13.666,ImageRatingTask_S4,2021.1.4,Win32,60.84205403,,,,,,,,,
,,,,,,,,,,,,,,,,,,9,21,male,R,Donders,2021-07-16_14h18.13.666,ImageRatingTask_S4,2021.1.4,Win32,60.84205403,0,27,27,142,1,DreamStudyImages_rs1000x750g/Vehicles/Car race 1.jpg,,,
,,6,8.1834,1,0.8612,7,0.5348,1,0.8068,6,0.7741,0,0,0,0,1,main,9,21,male,R,Donders,2021-07-16_14h18.13.666,ImageRatingTask_S4,2021.1.4,Win32,60.84205403,,,,,,,,,
,,,,,,,,,,,,0,1,1,1,1,second,9,21,male,R,Donders,2021-07-16_14h18.13.666,ImageRatingTask_S4,2021.1.4,Win32,60.84205403,,,,,,,,,
,,,,,,,,,,,,0,2,2,2,1,third,9,21,male,R,Donders,2021-07-16_14h18.13.666,ImageRatingTask_S4,2021.1.4,Win32,60.84205403,,,,,,,,,
,,,,,,,,,,,,0,3,3,3,1,fourth,9,21,male,R,Donders,2021-07-16_14h18.13.666,ImageRatingTask_S4,2021.1.4,Win32,60.84205403,,,,,,,,,
,,,,,,,,,,,,0,4,4,4,1,fifth,9,21,male,R,Donders,2021-07-16_14h18.13.666,ImageRatingTask_S4,2021.1.4,Win32,60.84205403,,,,,,,,,
,,,,,,,,,,,,0,5,5,5,1,sixth,9,21,male,R,Donders,2021-07-16_14h18.13.666,ImageRatingTask_S4,2021.1.4,Win32,60.84205403,,,,,,,,,
,,,,,,,,,,,,0,6,6,6,1,seventh,9,21,male,R,Donders,2021-07-16_14h18.13.666,ImageRatingTask_S4,2021.1.4,Win32,60.84205403,,,,,,,,,
,,,,,,,,,,,,0,7,7,7,1,last,9,21,male,R,Donders,2021-07-16_14h18.13.666,ImageRatingTask_S4,2021.1.4,Win32,60.84205403,,,,,,,,,
,,,,,,,,,,,,,,,,,,9,21,male,R,Donders,2021-07-16_14h18.13.666,ImageRatingTask_S4,2021.1.4,Win32,60.84205403,0,28,28,107,1,DreamStudyImages_rs1000x750g/Houses/Landscapes_072_h.jpg,,,
,,8,1.7104,2,1.2357,6,1.2678,1,1.3384,8,0.6848,0,0,0,0,1,main,9,21,male,R,Donders,2021-07-16_14h18.13.666,ImageRatingTask_S4,2021.1.4,Win32,60.84205403,,,,,,,,,
,,,,,,,,,,,,0,1,1,1,1,second,9,21,male,R,Donders,2021-07-16_14h18.13.666,ImageRatingTask_S4,2021.1.4,Win32,60.84205403,,,,,,,,,
,,,,,,,,,,,,0,2,2,2,1,third,9,21,male,R,Donders,2021-07-16_14h18.13.666,ImageRatingTask_S4,2021.1.4,Win32,60.84205403,,,,,,,,,
,,,,,,,,,,,,0,3,3,3,1,fourth,9,21,male,R,Donders,2021-07-16_14h18.13.666,ImageRatingTask_S4,2021.1.4,Win32,60.84205403,,,,,,,,,
,,,,,,,,,,,,0,4,4,4,1,fifth,9,21,male,R,Donders,2021-07-16_14h18.13.666,ImageRatingTask_S4,2021.1.4,Win32,60.84205403,,,,,,,,,
,,,,,,,,,,,,0,5,5,5,1,sixth,9,21,male,R,Donders,2021-07-16_14h18.13.666,ImageRatingTask_S4,2021.1.4,Win32,60.84205403,,,,,,,,,
,,,,,,,,,,,,0,6,6,6,1,seventh,9,21,male,R,Donders,2021-07-16_14h18.13.666,ImageRatingTask_S4,2021.1.4,Win32,60.84205403,,,,,,,,,
,,,,,,,,,,,,0,7,7,7,1,last,9,21,male,R,Donders,2021-07-16_14h18.13.666,ImageRatingTask_S4,2021.1.4,Win32,60.84205403,,,,,,,,,
,,,,,,,,,,,,,,,,,,9,21,male,R,Donders,2021-07-16_14h18.13.666,ImageRatingTask_S4,2021.1.4,Win32,60.84205403,0,29,29,54,1,DreamStudyImages_rs1000x750g/Water/Lake 14.jpg,,,
,,7,12.5603,1,0.7973,4,1.3247,1,2.8182,3,0.7078,0,0,0,0,1,main,9,21,male,R,Donders,2021-07-16_14h18.13.666,ImageRatingTask_S4,2021.1.4,Win32,60.84205403,,,,,,,,,
,,,,,,,,,,,,0,1,1,1,1,second,9,21,male,R,Donders,2021-07-16_14h18.13.666,ImageRatingTask_S4,2021.1.4,Win32,60.84205403,,,,,,,,,
,,,,,,,,,,,,0,2,2,2,1,third,9,21,male,R,Donders,2021-07-16_14h18.13.666,ImageRatingTask_S4,2021.1.4,Win32,60.84205403,,,,,,,,,
,,,,,,,,,,,,0,3,3,3,1,fourth,9,21,male,R,Donders,2021-07-16_14h18.13.666,ImageRatingTask_S4,2021.1.4,Win32,60.84205403,,,,,,,,,
,,,,,,,,,,,,0,4,4,4,1,fifth,9,21,male,R,Donders,2021-07-16_14h18.13.666,ImageRatingTask_S4,2021.1.4,Win32,60.84205403,,,,,,,,,
,,,,,,,,,,,,0,5,5,5,1,sixth,9,21,male,R,Donders,2021-07-16_14h18.13.666,ImageRatingTask_S4,2021.1.4,Win32,60.84205403,,,,,,,,,
,,,,,,,,,,,,0,6,6,6,1,seventh,9,21,male,R,Donders,2021-07-16_14h18.13.666,ImageRatingTask_S4,2021.1.4,Win32,60.84205403,,,,,,,,,
,,,,,,,,,,,,0,7,7,7,1,last,9,21,male,R,Donders,2021-07-16_14h18.13.666,ImageRatingTask_S4,2021.1.4,Win32,60.84205403,,,,,,,,,
,,,,,,,,,,,,,,,,,,9,21,male,R,Donders,2021-07-16_14h18.13.666,ImageRatingTask_S4,2021.1.4,Win32,60.84205403,0,30,30,66,1,DreamStudyImages_rs1000x750g/Mammals/IAPS1661_orangutan.jpg,,,
,,5,17.0708,1,1.2524,8,1.4261,1,0.9715,5,0.31,0,0,0,0,1,main,9,21,male,R,Donders,2021-07-16_14h18.13.666,ImageRatingTask_S4,2021.1.4,Win32,60.84205403,,,,,,,,,
,,,,,,,,,,,,0,1,1,1,1,second,9,21,male,R,Donders,2021-07-16_14h18.13.666,ImageRatingTask_S4,2021.1.4,Win32,60.84205403,,,,,,,,,
,,,,,,,,,,,,0,2,2,2,1,third,9,21,male,R,Donders,2021-07-16_14h18.13.666,ImageRatingTask_S4,2021.1.4,Win32,60.84205403,,,,,,,,,
,,,,,,,,,,,,0,3,3,3,1,fourth,9,21,male,R,Donders,2021-07-16_14h18.13.666,ImageRatingTask_S4,2021.1.4,Win32,60.84205403,,,,,,,,,
,,,,,,,,,,,,0,4,4,4,1,fifth,9,21,male,R,Donders,2021-07-16_14h18.13.666,ImageRatingTask_S4,2021.1.4,Win32,60.84205403,,,,,,,,,
,,,,,,,,,,,,0,5,5,5,1,sixth,9,21,male,R,Donders,2021-07-16_14h18.13.666,ImageRatingTask_S4,2021.1.4,Win32,60.84205403,,,,,,,,,
,,,,,,,,,,,,0,6,6,6,1,seventh,9,21,male,R,Donders,2021-07-16_14h18.13.666,ImageRatingTask_S4,2021.1.4,Win32,60.84205403,,,,,,,,,
,,,,,,,,,,,,0,7,7,7,1,last,9,21,male,R,Donders,2021-07-16_14h18.13.666,ImageRatingTask_S4,2021.1.4,Win32,60.84205403,,,,,,,,,
,,,,,,,,,,,,,,,,,,9,21,male,R,Donders,2021-07-16_14h18.13.666,ImageRatingTask_S4,2021.1.4,Win32,60.84205403,0,31,31,37,1,DreamStudyImages_rs1000x750g/Food/Objects_024_v.jpg,,,
,,7,1.4899,1,0.6406,6,2.2214,1,1.3266,8,0.2834,0,0,0,0,1,main,9,21,male,R,Donders,2021-07-16_14h18.13.666,ImageRatingTask_S4,2021.1.4,Win32,60.84205403,,,,,,,,,
,,,,,,,,,,,,0,1,1,1,1,second,9,21,male,R,Donders,2021-07-16_14h18.13.666,ImageRatingTask_S4,2021.1.4,Win32,60.84205403,,,,,,,,,
,,,,,,,,,,,,0,2,2,2,1,third,9,21,male,R,Donders,2021-07-16_14h18.13.666,ImageRatingTask_S4,2021.1.4,Win32,60.84205403,,,,,,,,,
,,,,,,,,,,,,0,3,3,3,1,fourth,9,21,male,R,Donders,2021-07-16_14h18.13.666,ImageRatingTask_S4,2021.1.4,Win32,60.84205403,,,,,,,,,
,,,,,,,,,,,,0,4,4,4,1,fifth,9,21,male,R,Donders,2021-07-16_14h18.13.666,ImageRatingTask_S4,2021.1.4,Win32,60.84205403,,,,,,,,,
,,,,,,,,,,,,0,5,5,5,1,sixth,9,21,male,R,Donders,2021-07-16_14h18.13.666,ImageRatingTask_S4,2021.1.4,Win32,60.84205403,,,,,,,,,
,,,,,,,,,,,,0,6,6,6,1,seventh,9,21,male,R,Donders,2021-07-16_14h18.13.666,ImageRatingTask_S4,2021.1.4,Win32,60.84205403,,,,,,,,,
,,,,,,,,,,,,0,7,7,7,1,last,9,21,male,R,Donders,2021-07-16_14h18.13.666,ImageRatingTask_S4,2021.1.4,Win32,60.84205403,,,,,,,,,
,,,,,,,,,,,,,,,,,,9,21,male,R,Donders,2021-07-16_14h18.13.666,ImageRatingTask_S4,2021.1.4,Win32,60.84205403,0,32,32,44,1,DreamStudyImages_rs1000x750g/Water/sunsetsea.jpg,,,
,,7,1.712,1,1.116,5,1.6328,1,1.0242,8,0.3377,0,0,0,0,1,main,9,21,male,R,Donders,2021-07-16_14h18.13.666,ImageRatingTask_S4,2021.1.4,Win32,60.84205403,,,,,,,,,
,,,,,,,,,,,,0,1,1,1,1,second,9,21,male,R,Donders,2021-07-16_14h18.13.666,ImageRatingTask_S4,2021.1.4,Win32,60.84205403,,,,,,,,,
,,,,,,,,,,,,0,2,2,2,1,third,9,21,male,R,Donders,2021-07-16_14h18.13.666,ImageRatingTask_S4,2021.1.4,Win32,60.84205403,,,,,,,,,
,,,,,,,,,,,,0,3,3,3,1,fourth,9,21,male,R,Donders,2021-07-16_14h18.13.666,ImageRatingTask_S4,2021.1.4,Win32,60.84205403,,,,,,,,,
,,,,,,,,,,,,0,4,4,4,1,fifth,9,21,male,R,Donders,2021-07-16_14h18.13.666,ImageRatingTask_S4,2021.1.4,Win32,60.84205403,,,,,,,,,
,,,,,,,,,,,,0,5,5,5,1,sixth,9,21,male,R,Donders,2021-07-16_14h18.13.666,ImageRatingTask_S4,2021.1.4,Win32,60.84205403,,,,,,,,,
,,,,,,,,,,,,0,6,6,6,1,seventh,9,21,male,R,Donders,2021-07-16_14h18.13.666,ImageRatingTask_S4,2021.1.4,Win32,60.84205403,,,,,,,,,
,,,,,,,,,,,,0,7,7,7,1,last,9,21,male,R,Donders,2021-07-16_14h18.13.666,ImageRatingTask_S4,2021.1.4,Win32,60.84205403,,,,,,,,,
,,,,,,,,,,,,,,,,,,9,21,male,R,Donders,2021-07-16_14h18.13.666,ImageRatingTask_S4,2021.1.4,Win32,60.84205403,0,33,33,103,1,DreamStudyImages_rs1000x750g/Water/sunsetbeach.jpg,,,
,,6,1.961,1,1.0667,6,2.9301,1,0.8616,5,0.3255,0,0,0,0,1,main,9,21,male,R,Donders,2021-07-16_14h18.13.666,ImageRatingTask_S4,2021.1.4,Win32,60.84205403,,,,,,,,,
,,,,,,,,,,,,0,1,1,1,1,second,9,21,male,R,Donders,2021-07-16_14h18.13.666,ImageRatingTask_S4,2021.1.4,Win32,60.84205403,,,,,,,,,
,,,,,,,,,,,,0,2,2,2,1,third,9,21,male,R,Donders,2021-07-16_14h18.13.666,ImageRatingTask_S4,2021.1.4,Win32,60.84205403,,,,,,,,,
,,,,,,,,,,,,0,3,3,3,1,fourth,9,21,male,R,Donders,2021-07-16_14h18.13.666,ImageRatingTask_S4,2021.1.4,Win32,60.84205403,,,,,,,,,
,,,,,,,,,,,,0,4,4,4,1,fifth,9,21,male,R,Donders,2021-07-16_14h18.13.666,ImageRatingTask_S4,2021.1.4,Win32,60.84205403,,,,,,,,,
,,,,,,,,,,,,0,5,5,5,1,sixth,9,21,male,R,Donders,2021-07-16_14h18.13.666,ImageRatingTask_S4,2021.1.4,Win32,60.84205403,,,,,,,,,
,,,,,,,,,,,,0,6,6,6,1,seventh,9,21,male,R,Donders,2021-07-16_14h18.13.666,ImageRatingTask_S4,2021.1.4,Win32,60.84205403,,,,,,,,,
,,,,,,,,,,,,0,7,7,7,1,last,9,21,male,R,Donders,2021-07-16_14h18.13.666,ImageRatingTask_S4,2021.1.4,Win32,60.84205403,,,,,,,,,
,,,,,,,,,,,,,,,,,,9,21,male,R,Donders,2021-07-16_14h18.13.666,ImageRatingTask_S4,2021.1.4,Win32,60.84205403,0,34,34,156,1,DreamStudyImages_rs1000x750g/Food/Objects_094_v.jpg,,,
,,8,3.3318,1,0.8883,7,1.7565,1,1.2484,3,2.5269,0,0,0,0,1,main,9,21,male,R,Donders,2021-07-16_14h18.13.666,ImageRatingTask_S4,2021.1.4,Win32,60.84205403,,,,,,,,,
,,,,,,,,,,,,0,1,1,1,1,second,9,21,male,R,Donders,2021-07-16_14h18.13.666,ImageRatingTask_S4,2021.1.4,Win32,60.84205403,,,,,,,,,
,,,,,,,,,,,,0,2,2,2,1,third,9,21,male,R,Donders,2021-07-16_14h18.13.666,ImageRatingTask_S4,2021.1.4,Win32,60.84205403,,,,,,,,,
,,,,,,,,,,,,0,3,3,3,1,fourth,9,21,male,R,Donders,2021-07-16_14h18.13.666,ImageRatingTask_S4,2021.1.4,Win32,60.84205403,,,,,,,,,
,,,,,,,,,,,,0,4,4,4,1,fifth,9,21,male,R,Donders,2021-07-16_14h18.13.666,ImageRatingTask_S4,2021.1.4,Win32,60.84205403,,,,,,,,,
,,,,,,,,,,,,0,5,5,5,1,sixth,9,21,male,R,Donders,2021-07-16_14h18.13.666,ImageRatingTask_S4,2021.1.4,Win32,60.84205403,,,,,,,,,
,,,,,,,,,,,,0,6,6,6,1,seventh,9,21,male,R,Donders,2021-07-16_14h18.13.666,ImageRatingTask_S4,2021.1.4,Win32,60.84205403,,,,,,,,,
,,,,,,,,,,,,0,7,7,7,1,last,9,21,male,R,Donders,2021-07-16_14h18.13.666,ImageRatingTask_S4,2021.1.4,Win32,60.84205403,,,,,,,,,
,,,,,,,,,,,,,,,,,,9,21,male,R,Donders,2021-07-16_14h18.13.666,ImageRatingTask_S4,2021.1.4,Win32,60.84205403,0,35,35,101,1,DreamStudyImages_rs1000x750g/Mammals/Animals_205_h.jpg,,,
,,7,3.3919,1,0.6775,8,1.8923,1,2.0484,8,0.3558,0,0,0,0,1,main,9,21,male,R,Donders,2021-07-16_14h18.13.666,ImageRatingTask_S4,2021.1.4,Win32,60.84205403,,,,,,,,,
,,,,,,,,,,,,0,1,1,1,1,second,9,21,male,R,Donders,2021-07-16_14h18.13.666,ImageRatingTask_S4,2021.1.4,Win32,60.84205403,,,,,,,,,
,,,,,,,,,,,,0,2,2,2,1,third,9,21,male,R,Donders,2021-07-16_14h18.13.666,ImageRatingTask_S4,2021.1.4,Win32,60.84205403,,,,,,,,,
,,,,,,,,,,,,0,3,3,3,1,fourth,9,21,male,R,Donders,2021-07-16_14h18.13.666,ImageRatingTask_S4,2021.1.4,Win32,60.84205403,,,,,,,,,
,,,,,,,,,,,,0,4,4,4,1,fifth,9,21,male,R,Donders,2021-07-16_14h18.13.666,ImageRatingTask_S4,2021.1.4,Win32,60.84205403,,,,,,,,,
,,,,,,,,,,,,0,5,5,5,1,sixth,9,21,male,R,Donders,2021-07-16_14h18.13.666,ImageRatingTask_S4,2021.1.4,Win32,60.84205403,,,,,,,,,
,,,,,,,,,,,,0,6,6,6,1,seventh,9,21,male,R,Donders,2021-07-16_14h18.13.666,ImageRatingTask_S4,2021.1.4,Win32,60.84205403,,,,,,,,,
,,,,,,,,,,,,0,7,7,7,1,last,9,21,male,R,Donders,2021-07-16_14h18.13.666,ImageRatingTask_S4,2021.1.4,Win32,60.84205403,,,,,,,,,
,,,,,,,,,,,,,,,,,,9,21,male,R,Donders,2021-07-16_14h18.13.666,ImageRatingTask_S4,2021.1.4,Win32,60.84205403,0,36,36,70,1,DreamStudyImages_rs1000x750g/Water/Landscapes_123_h.jpg,,,
,,6,2.1123,1,0.6023,5,2.599,0,6.7152,,,0,0,0,0,1,main,9,21,male,R,Donders,2021-07-16_14h18.13.666,ImageRatingTask_S4,2021.1.4,Win32,60.84205403,,,,,,,,,
,,,,,,,,,,,,0,1,1,1,1,second,9,21,male,R,Donders,2021-07-16_14h18.13.666,ImageRatingTask_S4,2021.1.4,Win32,60.84205403,,,,,,,,,
,,,,,,,,,,,,0,2,2,2,1,third,9,21,male,R,Donders,2021-07-16_14h18.13.666,ImageRatingTask_S4,2021.1.4,Win32,60.84205403,,,,,,,,,
,,,,,,,,,,,,0,3,3,3,1,fourth,9,21,male,R,Donders,2021-07-16_14h18.13.666,ImageRatingTask_S4,2021.1.4,Win32,60.84205403,,,,,,,,,
,,,,,,,,,,,,0,4,4,4,1,fifth,9,21,male,R,Donders,2021-07-16_14h18.13.666,ImageRatingTask_S4,2021.1.4,Win32,60.84205403,,,,,,,,,
,,,,,,,,,,,,0,5,5,5,1,sixth,9,21,male,R,Donders,2021-07-16_14h18.13.666,ImageRatingTask_S4,2021.1.4,Win32,60.84205403,,,,,,,,,
,,,,,,,,,,,,0,6,6,6,1,seventh,9,21,male,R,Donders,2021-07-16_14h18.13.666,ImageRatingTask_S4,2021.1.4,Win32,60.84205403,,,,,,,,,
,,,,,,,,,,,,0,7,7,7,1,last,9,21,male,R,Donders,2021-07-16_14h18.13.666,ImageRatingTask_S4,2021.1.4,Win32,60.84205403,,,,,,,,,
,,,,,,,,,,,,,,,,,,9,21,male,R,Donders,2021-07-16_14h18.13.666,ImageRatingTask_S4,2021.1.4,Win32,60.84205403,0,37,37,115,1,DreamStudyImages_rs1000x750g/Food/Objects_026_v.jpg,,,
,,3,2.7231,1,0.6951,4,1.9016,1,3.4233,8,0.1268,0,0,0,0,1,main,9,21,male,R,Donders,2021-07-16_14h18.13.666,ImageRatingTask_S4,2021.1.4,Win32,60.84205403,,,,,,,,,
,,,,,,,,,,,,0,1,1,1,1,second,9,21,male,R,Donders,2021-07-16_14h18.13.666,ImageRatingTask_S4,2021.1.4,Win32,60.84205403,,,,,,,,,
,,,,,,,,,,,,0,2,2,2,1,third,9,21,male,R,Donders,2021-07-16_14h18.13.666,ImageRatingTask_S4,2021.1.4,Win32,60.84205403,,,,,,,,,
,,,,,,,,,,,,0,3,3,3,1,fourth,9,21,male,R,Donders,2021-07-16_14h18.13.666,ImageRatingTask_S4,2021.1.4,Win32,60.84205403,,,,,,,,,
,,,,,,,,,,,,0,4,4,4,1,fifth,9,21,male,R,Donders,2021-07-16_14h18.13.666,ImageRatingTask_S4,2021.1.4,Win32,60.84205403,,,,,,,,,
,,,,,,,,,,,,0,5,5,5,1,sixth,9,21,male,R,Donders,2021-07-16_14h18.13.666,ImageRatingTask_S4,2021.1.4,Win32,60.84205403,,,,,,,,,
,,,,,,,,,,,,0,6,6,6,1,seventh,9,21,male,R,Donders,2021-07-16_14h18.13.666,ImageRatingTask_S4,2021.1.4,Win32,60.84205403,,,,,,,,,
,,,,,,,,,,,,0,7,7,7,1,last,9,21,male,R,Donders,2021-07-16_14h18.13.666,ImageRatingTask_S4,2021.1.4,Win32,60.84205403,,,,,,,,,
,,,,,,,,,,,,,,,,,,9,21,male,R,Donders,2021-07-16_14h18.13.666,ImageRatingTask_S4,2021.1.4,Win32,60.84205403,0,38,38,43,1,DreamStudyImages_rs1000x750g/Water/NDPS32_seafromabove.jpg,,,
,,5,3.2434,1,0.7217,5,1.4097,1,1.8163,6,0.315,0,0,0,0,1,main,9,21,male,R,Donders,2021-07-16_14h18.13.666,ImageRatingTask_S4,2021.1.4,Win32,60.84205403,,,,,,,,,
,,,,,,,,,,,,0,1,1,1,1,second,9,21,male,R,Donders,2021-07-16_14h18.13.666,ImageRatingTask_S4,2021.1.4,Win32,60.84205403,,,,,,,,,
,,,,,,,,,,,,0,2,2,2,1,third,9,21,male,R,Donders,2021-07-16_14h18.13.666,ImageRatingTask_S4,2021.1.4,Win32,60.84205403,,,,,,,,,
,,,,,,,,,,,,0,3,3,3,1,fourth,9,21,male,R,Donders,2021-07-16_14h18.13.666,ImageRatingTask_S4,2021.1.4,Win32,60.84205403,,,,,,,,,
,,,,,,,,,,,,0,4,4,4,1,fifth,9,21,male,R,Donders,2021-07-16_14h18.13.666,ImageRatingTask_S4,2021.1.4,Win32,60.84205403,,,,,,,,,
,,,,,,,,,,,,0,5,5,5,1,sixth,9,21,male,R,Donders,2021-07-16_14h18.13.666,ImageRatingTask_S4,2021.1.4,Win32,60.84205403,,,,,,,,,
,,,,,,,,,,,,0,6,6,6,1,seventh,9,21,male,R,Donders,2021-07-16_14h18.13.666,ImageRatingTask_S4,2021.1.4,Win32,60.84205403,,,,,,,,,
,,,,,,,,,,,,0,7,7,7,1,last,9,21,male,R,Donders,2021-07-16_14h18.13.666,ImageRatingTask_S4,2021.1.4,Win32,60.84205403,,,,,,,,,
,,,,,,,,,,,,,,,,,,9,21,male,R,Donders,2021-07-16_14h18.13.666,ImageRatingTask_S4,2021.1.4,Win32,60.84205403,0,39,39,20,1,DreamStudyImages_rs1000x750g/Houses/Bricks 1.jpg,,,
,,7,4.8775,1,0.7115,2,0.6457,1,0.8638,5,0.6573,0,0,0,0,1,main,9,21,male,R,Donders,2021-07-16_14h18.13.666,ImageRatingTask_S4,2021.1.4,Win32,60.84205403,,,,,,,,,
,,,,,,,,,,,,0,1,1,1,1,second,9,21,male,R,Donders,2021-07-16_14h18.13.666,ImageRatingTask_S4,2021.1.4,Win32,60.84205403,,,,,,,,,
,,,,,,,,,,,,0,2,2,2,1,third,9,21,male,R,Donders,2021-07-16_14h18.13.666,ImageRatingTask_S4,2021.1.4,Win32,60.84205403,,,,,,,,,
,,,,,,,,,,,,0,3,3,3,1,fourth,9,21,male,R,Donders,2021-07-16_14h18.13.666,ImageRatingTask_S4,2021.1.4,Win32,60.84205403,,,,,,,,,
,,,,,,,,,,,,0,4,4,4,1,fifth,9,21,male,R,Donders,2021-07-16_14h18.13.666,ImageRatingTask_S4,2021.1.4,Win32,60.84205403,,,,,,,,,
,,,,,,,,,,,,0,5,5,5,1,sixth,9,21,male,R,Donders,2021-07-16_14h18.13.666,ImageRatingTask_S4,2021.1.4,Win32,60.84205403,,,,,,,,,
,,,,,,,,,,,,0,6,6,6,1,seventh,9,21,male,R,Donders,2021-07-16_14h18.13.666,ImageRatingTask_S4,2021.1.4,Win32,60.84205403,,,,,,,,,
,,,,,,,,,,,,0,7,7,7,1,last,9,21,male,R,Donders,2021-07-16_14h18.13.666,ImageRatingTask_S4,2021.1.4,Win32,60.84205403,,,,,,,,,
,,,,,,,,,,,,,,,,,,9,21,male,R,Donders,2021-07-16_14h18.13.666,ImageRatingTask_S4,2021.1.4,Win32,60.84205403,0,40,40,96,1,DreamStudyImages_rs1000x750g/Food/7260.jpg,,,
,,4,3.8102,2,1.3405,3,1.5532,1,0.9744,6,0.4055,0,0,0,0,1,main,9,21,male,R,Donders,2021-07-16_14h18.13.666,ImageRatingTask_S4,2021.1.4,Win32,60.84205403,,,,,,,,,
,,,,,,,,,,,,0,1,1,1,1,second,9,21,male,R,Donders,2021-07-16_14h18.13.666,ImageRatingTask_S4,2021.1.4,Win32,60.84205403,,,,,,,,,
,,,,,,,,,,,,0,2,2,2,1,third,9,21,male,R,Donders,2021-07-16_14h18.13.666,ImageRatingTask_S4,2021.1.4,Win32,60.84205403,,,,,,,,,
,,,,,,,,,,,,0,3,3,3,1,fourth,9,21,male,R,Donders,2021-07-16_14h18.13.666,ImageRatingTask_S4,2021.1.4,Win32,60.84205403,,,,,,,,,
,,,,,,,,,,,,0,4,4,4,1,fifth,9,21,male,R,Donders,2021-07-16_14h18.13.666,ImageRatingTask_S4,2021.1.4,Win32,60.84205403,,,,,,,,,
,,,,,,,,,,,,0,5,5,5,1,sixth,9,21,male,R,Donders,2021-07-16_14h18.13.666,ImageRatingTask_S4,2021.1.4,Win32,60.84205403,,,,,,,,,
,,,,,,,,,,,,0,6,6,6,1,seventh,9,21,male,R,Donders,2021-07-16_14h18.13.666,ImageRatingTask_S4,2021.1.4,Win32,60.84205403,,,,,,,,,
,,,,,,,,,,,,0,7,7,7,1,last,9,21,male,R,Donders,2021-07-16_14h18.13.666,ImageRatingTask_S4,2021.1.4,Win32,60.84205403,,,,,,,,,
,,,,,,,,,,,,,,,,,,9,21,male,R,Donders,2021-07-16_14h18.13.666,ImageRatingTask_S4,2021.1.4,Win32,60.84205403,0,41,41,58,1,DreamStudyImages_rs1000x750g/Houses/Landscapes_013_v.jpg,,,
,,7,2.6447,1,0.4805,4,2.0712,1,1.2041,2,0.4878,0,0,0,0,1,main,9,21,male,R,Donders,2021-07-16_14h18.13.666,ImageRatingTask_S4,2021.1.4,Win32,60.84205403,,,,,,,,,
,,,,,,,,,,,,0,1,1,1,1,second,9,21,male,R,Donders,2021-07-16_14h18.13.666,ImageRatingTask_S4,2021.1.4,Win32,60.84205403,,,,,,,,,
,,,,,,,,,,,,0,2,2,2,1,third,9,21,male,R,Donders,2021-07-16_14h18.13.666,ImageRatingTask_S4,2021.1.4,Win32,60.84205403,,,,,,,,,
,,,,,,,,,,,,0,3,3,3,1,fourth,9,21,male,R,Donders,2021-07-16_14h18.13.666,ImageRatingTask_S4,2021.1.4,Win32,60.84205403,,,,,,,,,
,,,,,,,,,,,,0,4,4,4,1,fifth,9,21,male,R,Donders,2021-07-16_14h18.13.666,ImageRatingTask_S4,2021.1.4,Win32,60.84205403,,,,,,,,,
,,,,,,,,,,,,0,5,5,5,1,sixth,9,21,male,R,Donders,2021-07-16_14h18.13.666,ImageRatingTask_S4,2021.1.4,Win32,60.84205403,,,,,,,,,
,,,,,,,,,,,,0,6,6,6,1,seventh,9,21,male,R,Donders,2021-07-16_14h18.13.666,ImageRatingTask_S4,2021.1.4,Win32,60.84205403,,,,,,,,,
,,,,,,,,,,,,0,7,7,7,1,last,9,21,male,R,Donders,2021-07-16_14h18.13.666,ImageRatingTask_S4,2021.1.4,Win32,60.84205403,,,,,,,,,
,,,,,,,,,,,,,,,,,,9,21,male,R,Donders,2021-07-16_14h18.13.666,ImageRatingTask_S4,2021.1.4,Win32,60.84205403,0,42,42,150,1,DreamStudyImages_rs1000x750g/Children/IAPS2058_baby6.jpg,,,
,,8,19.7471,1,0.5659,4,1.6192,1,0.9533,3,0.2161,0,0,0,0,1,main,9,21,male,R,Donders,2021-07-16_14h18.13.666,ImageRatingTask_S4,2021.1.4,Win32,60.84205403,,,,,,,,,
,,,,,,,,,,,,0,1,1,1,1,second,9,21,male,R,Donders,2021-07-16_14h18.13.666,ImageRatingTask_S4,2021.1.4,Win32,60.84205403,,,,,,,,,
,,,,,,,,,,,,0,2,2,2,1,third,9,21,male,R,Donders,2021-07-16_14h18.13.666,ImageRatingTask_S4,2021.1.4,Win32,60.84205403,,,,,,,,,
,,,,,,,,,,,,0,3,3,3,1,fourth,9,21,male,R,Donders,2021-07-16_14h18.13.666,ImageRatingTask_S4,2021.1.4,Win32,60.84205403,,,,,,,,,
,,,,,,,,,,,,0,4,4,4,1,fifth,9,21,male,R,Donders,2021-07-16_14h18.13.666,ImageRatingTask_S4,2021.1.4,Win32,60.84205403,,,,,,,,,
,,,,,,,,,,,,0,5,5,5,1,sixth,9,21,male,R,Donders,2021-07-16_14h18.13.666,ImageRatingTask_S4,2021.1.4,Win32,60.84205403,,,,,,,,,
,,,,,,,,,,,,0,6,6,6,1,seventh,9,21,male,R,Donders,2021-07-16_14h18.13.666,ImageRatingTask_S4,2021.1.4,Win32,60.84205403,,,,,,,,,
,,,,,,,,,,,,0,7,7,7,1,last,9,21,male,R,Donders,2021-07-16_14h18.13.666,ImageRatingTask_S4,2021.1.4,Win32,60.84205403,,,,,,,,,
,,,,,,,,,,,,,,,,,,9,21,male,R,Donders,2021-07-16_14h18.13.666,ImageRatingTask_S4,2021.1.4,Win32,60.84205403,0,43,43,138,1,DreamStudyImages_rs1000x750g/Mammals/IAPS1811_apes.jpg,,,
,,6,39.2057,1,0.5365,8,1.5876,1,1.0187,8,0.0418,0,0,0,0,1,main,9,21,male,R,Donders,2021-07-16_14h18.13.666,ImageRatingTask_S4,2021.1.4,Win32,60.84205403,,,,,,,,,
,,,,,,,,,,,,0,1,1,1,1,second,9,21,male,R,Donders,2021-07-16_14h18.13.666,ImageRatingTask_S4,2021.1.4,Win32,60.84205403,,,,,,,,,
,,,,,,,,,,,,0,2,2,2,1,third,9,21,male,R,Donders,2021-07-16_14h18.13.666,ImageRatingTask_S4,2021.1.4,Win32,60.84205403,,,,,,,,,
,,,,,,,,,,,,0,3,3,3,1,fourth,9,21,male,R,Donders,2021-07-16_14h18.13.666,ImageRatingTask_S4,2021.1.4,Win32,60.84205403,,,,,,,,,
,,,,,,,,,,,,0,4,4,4,1,fifth,9,21,male,R,Donders,2021-07-16_14h18.13.666,ImageRatingTask_S4,2021.1.4,Win32,60.84205403,,,,,,,,,
,,,,,,,,,,,,0,5,5,5,1,sixth,9,21,male,R,Donders,2021-07-16_14h18.13.666,ImageRatingTask_S4,2021.1.4,Win32,60.84205403,,,,,,,,,
,,,,,,,,,,,,0,6,6,6,1,seventh,9,21,male,R,Donders,2021-07-16_14h18.13.666,ImageRatingTask_S4,2021.1.4,Win32,60.84205403,,,,,,,,,
,,,,,,,,,,,,0,7,7,7,1,last,9,21,male,R,Donders,2021-07-16_14h18.13.666,ImageRatingTask_S4,2021.1.4,Win32,60.84205403,,,,,,,,,
,,,,,,,,,,,,,,,,,,9,21,male,R,Donders,2021-07-16_14h18.13.666,ImageRatingTask_S4,2021.1.4,Win32,60.84205403,0,44,44,92,1,DreamStudyImages_rs1000x750g/Water/ocean.jpg,,,
,,2,12.2621,4,9.5818,2,1.8907,1,1.9163,6,0.6735,0,0,0,0,1,main,9,21,male,R,Donders,2021-07-16_14h18.13.666,ImageRatingTask_S4,2021.1.4,Win32,60.84205403,,,,,,,,,
,,,,,,,,,,,,0,1,1,1,1,second,9,21,male,R,Donders,2021-07-16_14h18.13.666,ImageRatingTask_S4,2021.1.4,Win32,60.84205403,,,,,,,,,
,,,,,,,,,,,,0,2,2,2,1,third,9,21,male,R,Donders,2021-07-16_14h18.13.666,ImageRatingTask_S4,2021.1.4,Win32,60.84205403,,,,,,,,,
,,,,,,,,,,,,0,3,3,3,1,fourth,9,21,male,R,Donders,2021-07-16_14h18.13.666,ImageRatingTask_S4,2021.1.4,Win32,60.84205403,,,,,,,,,
,,,,,,,,,,,,0,4,4,4,1,fifth,9,21,male,R,Donders,2021-07-16_14h18.13.666,ImageRatingTask_S4,2021.1.4,Win32,60.84205403,,,,,,,,,
,,,,,,,,,,,,0,5,5,5,1,sixth,9,21,male,R,Donders,2021-07-16_14h18.13.666,ImageRatingTask_S4,2021.1.4,Win32,60.84205403,,,,,,,,,
,,,,,,,,,,,,0,6,6,6,1,seventh,9,21,male,R,Donders,2021-07-16_14h18.13.666,ImageRatingTask_S4,2021.1.4,Win32,60.84205403,,,,,,,,,
,,,,,,,,,,,,0,7,7,7,1,last,9,21,male,R,Donders,2021-07-16_14h18.13.666,ImageRatingTask_S4,2021.1.4,Win32,60.84205403,,,,,,,,,
,,,,,,,,,,,,,,,,,,9,21,male,R,Donders,2021-07-16_14h18.13.666,ImageRatingTask_S4,2021.1.4,Win32,60.84205403,0,45,45,68,1,DreamStudyImages_rs1000x750g/Houses/Jail 3.jpg,,,
,,2,3.2494,4,1.0469,4,1.3023,1,1.6112,7,0.6679,0,0,0,0,1,main,9,21,male,R,Donders,2021-07-16_14h18.13.666,ImageRatingTask_S4,2021.1.4,Win32,60.84205403,,,,,,,,,
,,,,,,,,,,,,0,1,1,1,1,second,9,21,male,R,Donders,2021-07-16_14h18.13.666,ImageRatingTask_S4,2021.1.4,Win32,60.84205403,,,,,,,,,
,,,,,,,,,,,,0,2,2,2,1,third,9,21,male,R,Donders,2021-07-16_14h18.13.666,ImageRatingTask_S4,2021.1.4,Win32,60.84205403,,,,,,,,,
,,,,,,,,,,,,0,3,3,3,1,fourth,9,21,male,R,Donders,2021-07-16_14h18.13.666,ImageRatingTask_S4,2021.1.4,Win32,60.84205403,,,,,,,,,
,,,,,,,,,,,,0,4,4,4,1,fifth,9,21,male,R,Donders,2021-07-16_14h18.13.666,ImageRatingTask_S4,2021.1.4,Win32,60.84205403,,,,,,,,,
,,,,,,,,,,,,0,5,5,5,1,sixth,9,21,male,R,Donders,2021-07-16_14h18.13.666,ImageRatingTask_S4,2021.1.4,Win32,60.84205403,,,,,,,,,
,,,,,,,,,,,,0,6,6,6,1,seventh,9,21,male,R,Donders,2021-07-16_14h18.13.666,ImageRatingTask_S4,2021.1.4,Win32,60.84205403,,,,,,,,,
,,,,,,,,,,,,0,7,7,7,1,last,9,21,male,R,Donders,2021-07-16_14h18.13.666,ImageRatingTask_S4,2021.1.4,Win32,60.84205403,,,,,,,,,
,,,,,,,,,,,,,,,,,,9,21,male,R,Donders,2021-07-16_14h18.13.666,ImageRatingTask_S4,2021.1.4,Win32,60.84205403,0,46,46,83,1,DreamStudyImages_rs1000x750g/Vehicles/Fire 7.jpg,,,
,,1,1.9069,6,1.1599,2,2.5593,1,2.9312,2,0.035,0,0,0,0,1,main,9,21,male,R,Donders,2021-07-16_14h18.13.666,ImageRatingTask_S4,2021.1.4,Win32,60.84205403,,,,,,,,,
,,,,,,,,,,,,0,1,1,1,1,second,9,21,male,R,Donders,2021-07-16_14h18.13.666,ImageRatingTask_S4,2021.1.4,Win32,60.84205403,,,,,,,,,
,,,,,,,,,,,,0,2,2,2,1,third,9,21,male,R,Donders,2021-07-16_14h18.13.666,ImageRatingTask_S4,2021.1.4,Win32,60.84205403,,,,,,,,,
,,,,,,,,,,,,0,3,3,3,1,fourth,9,21,male,R,Donders,2021-07-16_14h18.13.666,ImageRatingTask_S4,2021.1.4,Win32,60.84205403,,,,,,,,,
,,,,,,,,,,,,0,4,4,4,1,fifth,9,21,male,R,Donders,2021-07-16_14h18.13.666,ImageRatingTask_S4,2021.1.4,Win32,60.84205403,,,,,,,,,
,,,,,,,,,,,,0,5,5,5,1,sixth,9,21,male,R,Donders,2021-07-16_14h18.13.666,ImageRatingTask_S4,2021.1.4,Win32,60.84205403,,,,,,,,,
,,,,,,,,,,,,0,6,6,6,1,seventh,9,21,male,R,Donders,2021-07-16_14h18.13.666,ImageRatingTask_S4,2021.1.4,Win32,60.84205403,,,,,,,,,
,,,,,,,,,,,,0,7,7,7,1,last,9,21,male,R,Donders,2021-07-16_14h18.13.666,ImageRatingTask_S4,2021.1.4,Win32,60.84205403,,,,,,,,,
,,,,,,,,,,,,,,,,,,9,21,male,R,Donders,2021-07-16_14h18.13.666,ImageRatingTask_S4,2021.1.4,Win32,60.84205403,0,47,47,120,1,DreamStudyImages_rs1000x750g/Houses/NDPS4_buildings2_water_CROPPED.jpg,,,
,,7,1.665,1,0.5328,8,1.6757,1,0.6878,5,0.2352,0,0,0,0,1,main,9,21,male,R,Donders,2021-07-16_14h18.13.666,ImageRatingTask_S4,2021.1.4,Win32,60.84205403,,,,,,,,,
,,,,,,,,,,,,0,1,1,1,1,second,9,21,male,R,Donders,2021-07-16_14h18.13.666,ImageRatingTask_S4,2021.1.4,Win32,60.84205403,,,,,,,,,
,,,,,,,,,,,,0,2,2,2,1,third,9,21,male,R,Donders,2021-07-16_14h18.13.666,ImageRatingTask_S4,2021.1.4,Win32,60.84205403,,,,,,,,,
,,,,,,,,,,,,0,3,3,3,1,fourth,9,21,male,R,Donders,2021-07-16_14h18.13.666,ImageRatingTask_S4,2021.1.4,Win32,60.84205403,,,,,,,,,
,,,,,,,,,,,,0,4,4,4,1,fifth,9,21,male,R,Donders,2021-07-16_14h18.13.666,ImageRatingTask_S4,2021.1.4,Win32,60.84205403,,,,,,,,,
,,,,,,,,,,,,0,5,5,5,1,sixth,9,21,male,R,Donders,2021-07-16_14h18.13.666,ImageRatingTask_S4,2021.1.4,Win32,60.84205403,,,,,,,,,
,,,,,,,,,,,,0,6,6,6,1,seventh,9,21,male,R,Donders,2021-07-16_14h18.13.666,ImageRatingTask_S4,2021.1.4,Win32,60.84205403,,,,,,,,,
,,,,,,,,,,,,0,7,7,7,1,last,9,21,male,R,Donders,2021-07-16_14h18.13.666,ImageRatingTask_S4,2021.1.4,Win32,60.84205403,,,,,,,,,
,,,,,,,,,,,,,,,,,,9,21,male,R,Donders,2021-07-16_14h18.13.666,ImageRatingTask_S4,2021.1.4,Win32,60.84205403,0,48,48,79,1,DreamStudyImages_rs1000x750g/Food/Objects_085_h.jpg,,,
,,7,3.1744,1,0.4722,2,1.8167,1,0.9302,2,0.6073,0,0,0,0,1,main,9,21,male,R,Donders,2021-07-16_14h18.13.666,ImageRatingTask_S4,2021.1.4,Win32,60.84205403,,,,,,,,,
,,,,,,,,,,,,0,1,1,1,1,second,9,21,male,R,Donders,2021-07-16_14h18.13.666,ImageRatingTask_S4,2021.1.4,Win32,60.84205403,,,,,,,,,
,,,,,,,,,,,,0,2,2,2,1,third,9,21,male,R,Donders,2021-07-16_14h18.13.666,ImageRatingTask_S4,2021.1.4,Win32,60.84205403,,,,,,,,,
,,,,,,,,,,,,0,3,3,3,1,fourth,9,21,male,R,Donders,2021-07-16_14h18.13.666,ImageRatingTask_S4,2021.1.4,Win32,60.84205403,,,,,,,,,
,,,,,,,,,,,,0,4,4,4,1,fifth,9,21,male,R,Donders,2021-07-16_14h18.13.666,ImageRatingTask_S4,2021.1.4,Win32,60.84205403,,,,,,,,,
,,,,,,,,,,,,0,5,5,5,1,sixth,9,21,male,R,Donders,2021-07-16_14h18.13.666,ImageRatingTask_S4,2021.1.4,Win32,60.84205403,,,,,,,,,
,,,,,,,,,,,,0,6,6,6,1,seventh,9,21,male,R,Donders,2021-07-16_14h18.13.666,ImageRatingTask_S4,2021.1.4,Win32,60.84205403,,,,,,,,,
,,,,,,,,,,,,0,7,7,7,1,last,9,21,male,R,Donders,2021-07-16_14h18.13.666,ImageRatingTask_S4,2021.1.4,Win32,60.84205403,,,,,,,,,
,,,,,,,,,,,,,,,,,,9,21,male,R,Donders,2021-07-16_14h18.13.666,ImageRatingTask_S4,2021.1.4,Win32,60.84205403,0,49,49,7,1,DreamStudyImages_rs1000x750g/Children/2071.jpg,,,
,,3,2.7066,1,0.6076,6,2.4484,1,8.0646,3,0.0818,0,0,0,0,1,main,9,21,male,R,Donders,2021-07-16_14h18.13.666,ImageRatingTask_S4,2021.1.4,Win32,60.84205403,,,,,,,,,
,,,,,,,,,,,,0,1,1,1,1,second,9,21,male,R,Donders,2021-07-16_14h18.13.666,ImageRatingTask_S4,2021.1.4,Win32,60.84205403,,,,,,,,,
,,,,,,,,,,,,0,2,2,2,1,third,9,21,male,R,Donders,2021-07-16_14h18.13.666,ImageRatingTask_S4,2021.1.4,Win32,60.84205403,,,,,,,,,
,,,,,,,,,,,,0,3,3,3,1,fourth,9,21,male,R,Donders,2021-07-16_14h18.13.666,ImageRatingTask_S4,2021.1.4,Win32,60.84205403,,,,,,,,,
,,,,,,,,,,,,0,4,4,4,1,fifth,9,21,male,R,Donders,2021-07-16_14h18.13.666,ImageRatingTask_S4,2021.1.4,Win32,60.84205403,,,,,,,,,
,,,,,,,,,,,,0,5,5,5,1,sixth,9,21,male,R,Donders,2021-07-16_14h18.13.666,ImageRatingTask_S4,2021.1.4,Win32,60.84205403,,,,,,,,,
,,,,,,,,,,,,0,6,6,6,1,seventh,9,21,male,R,Donders,2021-07-16_14h18.13.666,ImageRatingTask_S4,2021.1.4,Win32,60.84205403,,,,,,,,,
,,,,,,,,,,,,0,7,7,7,1,last,9,21,male,R,Donders,2021-07-16_14h18.13.666,ImageRatingTask_S4,2021.1.4,Win32,60.84205403,,,,,,,,,
,,,,,,,,,,,,,,,,,,9,21,male,R,Donders,2021-07-16_14h18.13.666,ImageRatingTask_S4,2021.1.4,Win32,60.84205403,0,50,50,38,1,DreamStudyImages_rs1000x750g/Mammals/IAPS1505_dog7.jpg,,,
,,6,2.8221,1,1.1326,3,1.3423,1,0.7255,7,0.661,0,0,0,0,1,main,9,21,male,R,Donders,2021-07-16_14h18.13.666,ImageRatingTask_S4,2021.1.4,Win32,60.84205403,,,,,,,,,
,,,,,,,,,,,,0,1,1,1,1,second,9,21,male,R,Donders,2021-07-16_14h18.13.666,ImageRatingTask_S4,2021.1.4,Win32,60.84205403,,,,,,,,,
,,,,,,,,,,,,0,2,2,2,1,third,9,21,male,R,Donders,2021-07-16_14h18.13.666,ImageRatingTask_S4,2021.1.4,Win32,60.84205403,,,,,,,,,
,,,,,,,,,,,,0,3,3,3,1,fourth,9,21,male,R,Donders,2021-07-16_14h18.13.666,ImageRatingTask_S4,2021.1.4,Win32,60.84205403,,,,,,,,,
,,,,,,,,,,,,0,4,4,4,1,fifth,9,21,male,R,Donders,2021-07-16_14h18.13.666,ImageRatingTask_S4,2021.1.4,Win32,60.84205403,,,,,,,,,
,,,,,,,,,,,,0,5,5,5,1,sixth,9,21,male,R,Donders,2021-07-16_14h18.13.666,ImageRatingTask_S4,2021.1.4,Win32,60.84205403,,,,,,,,,
,,,,,,,,,,,,0,6,6,6,1,seventh,9,21,male,R,Donders,2021-07-16_14h18.13.666,ImageRatingTask_S4,2021.1.4,Win32,60.84205403,,,,,,,,,
,,,,,,,,,,,,0,7,7,7,1,last,9,21,male,R,Donders,2021-07-16_14h18.13.666,ImageRatingTask_S4,2021.1.4,Win32,60.84205403,,,,,,,,,
,,,,,,,,,,,,,,,,,,9,21,male,R,Donders,2021-07-16_14h18.13.666,ImageRatingTask_S4,2021.1.4,Win32,60.84205403,0,51,51,21,1,DreamStudyImages_rs1000x750g/Vehicles/vehicles_pos.jpg,,,
,,6,5.661,1,0.5567,6,2.6513,1,0.8388,2,0.4113,0,0,0,0,1,main,9,21,male,R,Donders,2021-07-16_14h18.13.666,ImageRatingTask_S4,2021.1.4,Win32,60.84205403,,,,,,,,,
,,,,,,,,,,,,0,1,1,1,1,second,9,21,male,R,Donders,2021-07-16_14h18.13.666,ImageRatingTask_S4,2021.1.4,Win32,60.84205403,,,,,,,,,
,,,,,,,,,,,,0,2,2,2,1,third,9,21,male,R,Donders,2021-07-16_14h18.13.666,ImageRatingTask_S4,2021.1.4,Win32,60.84205403,,,,,,,,,
,,,,,,,,,,,,0,3,3,3,1,fourth,9,21,male,R,Donders,2021-07-16_14h18.13.666,ImageRatingTask_S4,2021.1.4,Win32,60.84205403,,,,,,,,,
,,,,,,,,,,,,0,4,4,4,1,fifth,9,21,male,R,Donders,2021-07-16_14h18.13.666,ImageRatingTask_S4,2021.1.4,Win32,60.84205403,,,,,,,,,
,,,,,,,,,,,,0,5,5,5,1,sixth,9,21,male,R,Donders,2021-07-16_14h18.13.666,ImageRatingTask_S4,2021.1.4,Win32,60.84205403,,,,,,,,,
,,,,,,,,,,,,0,6,6,6,1,seventh,9,21,male,R,Donders,2021-07-16_14h18.13.666,ImageRatingTask_S4,2021.1.4,Win32,60.84205403,,,,,,,,,
,,,,,,,,,,,,0,7,7,7,1,last,9,21,male,R,Donders,2021-07-16_14h18.13.666,ImageRatingTask_S4,2021.1.4,Win32,60.84205403,,,,,,,,,
,,,,,,,,,,,,,,,,,,9,21,male,R,Donders,2021-07-16_14h18.13.666,ImageRatingTask_S4,2021.1.4,Win32,60.84205403,0,52,52,78,1,DreamStudyImages_rs1000x750g/Children/IAPS2060_baby7.jpg,,,
,,6,3.3862,1,0.2594,8,1.5602,1,0.7508,6,1.1032,0,0,0,0,1,main,9,21,male,R,Donders,2021-07-16_14h18.13.666,ImageRatingTask_S4,2021.1.4,Win32,60.84205403,,,,,,,,,
,,,,,,,,,,,,0,1,1,1,1,second,9,21,male,R,Donders,2021-07-16_14h18.13.666,ImageRatingTask_S4,2021.1.4,Win32,60.84205403,,,,,,,,,
,,,,,,,,,,,,0,2,2,2,1,third,9,21,male,R,Donders,2021-07-16_14h18.13.666,ImageRatingTask_S4,2021.1.4,Win32,60.84205403,,,,,,,,,
,,,,,,,,,,,,0,3,3,3,1,fourth,9,21,male,R,Donders,2021-07-16_14h18.13.666,ImageRatingTask_S4,2021.1.4,Win32,60.84205403,,,,,,,,,
,,,,,,,,,,,,0,4,4,4,1,fifth,9,21,male,R,Donders,2021-07-16_14h18.13.666,ImageRatingTask_S4,2021.1.4,Win32,60.84205403,,,,,,,,,
,,,,,,,,,,,,0,5,5,5,1,sixth,9,21,male,R,Donders,2021-07-16_14h18.13.666,ImageRatingTask_S4,2021.1.4,Win32,60.84205403,,,,,,,,,
,,,,,,,,,,,,0,6,6,6,1,seventh,9,21,male,R,Donders,2021-07-16_14h18.13.666,ImageRatingTask_S4,2021.1.4,Win32,60.84205403,,,,,,,,,
,,,,,,,,,,,,0,7,7,7,1,last,9,21,male,R,Donders,2021-07-16_14h18.13.666,ImageRatingTask_S4,2021.1.4,Win32,60.84205403,,,,,,,,,
,,,,,,,,,,,,,,,,,,9,21,male,R,Donders,2021-07-16_14h18.13.666,ImageRatingTask_S4,2021.1.4,Win32,60.84205403,0,53,53,117,1,DreamStudyImages_rs1000x750g/Houses/Landscapes_087_h.jpg,,,
,,6,3.6975,1,0.92,4,1.6675,1,1.507,3,0.4425,0,0,0,0,1,main,9,21,male,R,Donders,2021-07-16_14h18.13.666,ImageRatingTask_S4,2021.1.4,Win32,60.84205403,,,,,,,,,
,,,,,,,,,,,,0,1,1,1,1,second,9,21,male,R,Donders,2021-07-16_14h18.13.666,ImageRatingTask_S4,2021.1.4,Win32,60.84205403,,,,,,,,,
,,,,,,,,,,,,0,2,2,2,1,third,9,21,male,R,Donders,2021-07-16_14h18.13.666,ImageRatingTask_S4,2021.1.4,Win32,60.84205403,,,,,,,,,
,,,,,,,,,,,,0,3,3,3,1,fourth,9,21,male,R,Donders,2021-07-16_14h18.13.666,ImageRatingTask_S4,2021.1.4,Win32,60.84205403,,,,,,,,,
,,,,,,,,,,,,0,4,4,4,1,fifth,9,21,male,R,Donders,2021-07-16_14h18.13.666,ImageRatingTask_S4,2021.1.4,Win32,60.84205403,,,,,,,,,
,,,,,,,,,,,,0,5,5,5,1,sixth,9,21,male,R,Donders,2021-07-16_14h18.13.666,ImageRatingTask_S4,2021.1.4,Win32,60.84205403,,,,,,,,,
,,,,,,,,,,,,0,6,6,6,1,seventh,9,21,male,R,Donders,2021-07-16_14h18.13.666,ImageRatingTask_S4,2021.1.4,Win32,60.84205403,,,,,,,,,
,,,,,,,,,,,,0,7,7,7,1,last,9,21,male,R,Donders,2021-07-16_14h18.13.666,ImageRatingTask_S4,2021.1.4,Win32,60.84205403,,,,,,,,,
,,,,,,,,,,,,,,,,,,9,21,male,R,Donders,2021-07-16_14h18.13.666,ImageRatingTask_S4,2021.1.4,Win32,60.84205403,0,54,54,128,1,DreamStudyImages_rs1000x750g/Mammals/Animals_197_h.jpg,,,
,,1,2.1717,7,0.4588,3,1.5177,1,0.7215,7,0.678,0,0,0,0,1,main,9,21,male,R,Donders,2021-07-16_14h18.13.666,ImageRatingTask_S4,2021.1.4,Win32,60.84205403,,,,,,,,,
,,,,,,,,,,,,0,1,1,1,1,second,9,21,male,R,Donders,2021-07-16_14h18.13.666,ImageRatingTask_S4,2021.1.4,Win32,60.84205403,,,,,,,,,
,,,,,,,,,,,,0,2,2,2,1,third,9,21,male,R,Donders,2021-07-16_14h18.13.666,ImageRatingTask_S4,2021.1.4,Win32,60.84205403,,,,,,,,,
,,,,,,,,,,,,0,3,3,3,1,fourth,9,21,male,R,Donders,2021-07-16_14h18.13.666,ImageRatingTask_S4,2021.1.4,Win32,60.84205403,,,,,,,,,
,,,,,,,,,,,,0,4,4,4,1,fifth,9,21,male,R,Donders,2021-07-16_14h18.13.666,ImageRatingTask_S4,2021.1.4,Win32,60.84205403,,,,,,,,,
,,,,,,,,,,,,0,5,5,5,1,sixth,9,21,male,R,Donders,2021-07-16_14h18.13.666,ImageRatingTask_S4,2021.1.4,Win32,60.84205403,,,,,,,,,
,,,,,,,,,,,,0,6,6,6,1,seventh,9,21,male,R,Donders,2021-07-16_14h18.13.666,ImageRatingTask_S4,2021.1.4,Win32,60.84205403,,,,,,,,,
,,,,,,,,,,,,0,7,7,7,1,last,9,21,male,R,Donders,2021-07-16_14h18.13.666,ImageRatingTask_S4,2021.1.4,Win32,60.84205403,,,,,,,,,
,,,,,,,,,,,,,,,,,,9,21,male,R,Donders,2021-07-16_14h18.13.666,ImageRatingTask_S4,2021.1.4,Win32,60.84205403,0,55,55,31,1,DreamStudyImages_rs1000x750g/Vehicles/Destruction 10.jpg,,,
,,3,4.1842,1,1.42,4,2.3003,1,1.026,7,0.5436,0,0,0,0,1,main,9,21,male,R,Donders,2021-07-16_14h18.13.666,ImageRatingTask_S4,2021.1.4,Win32,60.84205403,,,,,,,,,
,,,,,,,,,,,,0,1,1,1,1,second,9,21,male,R,Donders,2021-07-16_14h18.13.666,ImageRatingTask_S4,2021.1.4,Win32,60.84205403,,,,,,,,,
,,,,,,,,,,,,0,2,2,2,1,third,9,21,male,R,Donders,2021-07-16_14h18.13.666,ImageRatingTask_S4,2021.1.4,Win32,60.84205403,,,,,,,,,
,,,,,,,,,,,,0,3,3,3,1,fourth,9,21,male,R,Donders,2021-07-16_14h18.13.666,ImageRatingTask_S4,2021.1.4,Win32,60.84205403,,,,,,,,,
,,,,,,,,,,,,0,4,4,4,1,fifth,9,21,male,R,Donders,2021-07-16_14h18.13.666,ImageRatingTask_S4,2021.1.4,Win32,60.84205403,,,,,,,,,
,,,,,,,,,,,,0,5,5,5,1,sixth,9,21,male,R,Donders,2021-07-16_14h18.13.666,ImageRatingTask_S4,2021.1.4,Win32,60.84205403,,,,,,,,,
,,,,,,,,,,,,0,6,6,6,1,seventh,9,21,male,R,Donders,2021-07-16_14h18.13.666,ImageRatingTask_S4,2021.1.4,Win32,60.84205403,,,,,,,,,
,,,,,,,,,,,,0,7,7,7,1,last,9,21,male,R,Donders,2021-07-16_14h18.13.666,ImageRatingTask_S4,2021.1.4,Win32,60.84205403,,,,,,,,,
,,,,,,,,,,,,,,,,,,9,21,male,R,Donders,2021-07-16_14h18.13.666,ImageRatingTask_S4,2021.1.4,Win32,60.84205403,0,56,56,55,1,DreamStudyImages_rs1000x750g/Vehicles/IAPS7130_truck.jpg,,,
,,6,9.707,2,3.0883,7,2.0909,1,2.2893,3,0.4063,0,0,0,0,1,main,9,21,male,R,Donders,2021-07-16_14h18.13.666,ImageRatingTask_S4,2021.1.4,Win32,60.84205403,,,,,,,,,
,,,,,,,,,,,,0,1,1,1,1,second,9,21,male,R,Donders,2021-07-16_14h18.13.666,ImageRatingTask_S4,2021.1.4,Win32,60.84205403,,,,,,,,,
,,,,,,,,,,,,0,2,2,2,1,third,9,21,male,R,Donders,2021-07-16_14h18.13.666,ImageRatingTask_S4,2021.1.4,Win32,60.84205403,,,,,,,,,
,,,,,,,,,,,,0,3,3,3,1,fourth,9,21,male,R,Donders,2021-07-16_14h18.13.666,ImageRatingTask_S4,2021.1.4,Win32,60.84205403,,,,,,,,,
,,,,,,,,,,,,0,4,4,4,1,fifth,9,21,male,R,Donders,2021-07-16_14h18.13.666,ImageRatingTask_S4,2021.1.4,Win32,60.84205403,,,,,,,,,
,,,,,,,,,,,,0,5,5,5,1,sixth,9,21,male,R,Donders,2021-07-16_14h18.13.666,ImageRatingTask_S4,2021.1.4,Win32,60.84205403,,,,,,,,,
,,,,,,,,,,,,0,6,6,6,1,seventh,9,21,male,R,Donders,2021-07-16_14h18.13.666,ImageRatingTask_S4,2021.1.4,Win32,60.84205403,,,,,,,,,
,,,,,,,,,,,,0,7,7,7,1,last,9,21,male,R,Donders,2021-07-16_14h18.13.666,ImageRatingTask_S4,2021.1.4,Win32,60.84205403,,,,,,,,,
,,,,,,,,,,,,,,,,,,9,21,male,R,Donders,2021-07-16_14h18.13.666,ImageRatingTask_S4,2021.1.4,Win32,60.84205403,0,57,57,53,1,DreamStudyImages_rs1000x750g/Mammals/Animals_085_h.jpg,,,
,,8,3.8432,2,1.1913,6,1.8256,1,1.269,5,0.1941,0,0,0,0,1,main,9,21,male,R,Donders,2021-07-16_14h18.13.666,ImageRatingTask_S4,2021.1.4,Win32,60.84205403,,,,,,,,,
,,,,,,,,,,,,0,1,1,1,1,second,9,21,male,R,Donders,2021-07-16_14h18.13.666,ImageRatingTask_S4,2021.1.4,Win32,60.84205403,,,,,,,,,
,,,,,,,,,,,,0,2,2,2,1,third,9,21,male,R,Donders,2021-07-16_14h18.13.666,ImageRatingTask_S4,2021.1.4,Win32,60.84205403,,,,,,,,,
,,,,,,,,,,,,0,3,3,3,1,fourth,9,21,male,R,Donders,2021-07-16_14h18.13.666,ImageRatingTask_S4,2021.1.4,Win32,60.84205403,,,,,,,,,
,,,,,,,,,,,,0,4,4,4,1,fifth,9,21,male,R,Donders,2021-07-16_14h18.13.666,ImageRatingTask_S4,2021.1.4,Win32,60.84205403,,,,,,,,,
,,,,,,,,,,,,0,5,5,5,1,sixth,9,21,male,R,Donders,2021-07-16_14h18.13.666,ImageRatingTask_S4,2021.1.4,Win32,60.84205403,,,,,,,,,
,,,,,,,,,,,,0,6,6,6,1,seventh,9,21,male,R,Donders,2021-07-16_14h18.13.666,ImageRatingTask_S4,2021.1.4,Win32,60.84205403,,,,,,,,,
,,,,,,,,,,,,0,7,7,7,1,last,9,21,male,R,Donders,2021-07-16_14h18.13.666,ImageRatingTask_S4,2021.1.4,Win32,60.84205403,,,,,,,,,
,,,,,,,,,,,,,,,,,,9,21,male,R,Donders,2021-07-16_14h18.13.666,ImageRatingTask_S4,2021.1.4,Win32,60.84205403,0,58,58,59,1,DreamStudyImages_rs1000x750g/Food/Dessert 3.jpg,,,
,,1,4.2436,8,1.4067,4,1.5753,1,5.6433,7,1.2613,0,0,0,0,1,main,9,21,male,R,Donders,2021-07-16_14h18.13.666,ImageRatingTask_S4,2021.1.4,Win32,60.84205403,,,,,,,,,
,,,,,,,,,,,,0,1,1,1,1,second,9,21,male,R,Donders,2021-07-16_14h18.13.666,ImageRatingTask_S4,2021.1.4,Win32,60.84205403,,,,,,,,,
,,,,,,,,,,,,0,2,2,2,1,third,9,21,male,R,Donders,2021-07-16_14h18.13.666,ImageRatingTask_S4,2021.1.4,Win32,60.84205403,,,,,,,,,
,,,,,,,,,,,,0,3,3,3,1,fourth,9,21,male,R,Donders,2021-07-16_14h18.13.666,ImageRatingTask_S4,2021.1.4,Win32,60.84205403,,,,,,,,,
,,,,,,,,,,,,0,4,4,4,1,fifth,9,21,male,R,Donders,2021-07-16_14h18.13.666,ImageRatingTask_S4,2021.1.4,Win32,60.84205403,,,,,,,,,
,,,,,,,,,,,,0,5,5,5,1,sixth,9,21,male,R,Donders,2021-07-16_14h18.13.666,ImageRatingTask_S4,2021.1.4,Win32,60.84205403,,,,,,,,,
,,,,,,,,,,,,0,6,6,6,1,seventh,9,21,male,R,Donders,2021-07-16_14h18.13.666,ImageRatingTask_S4,2021.1.4,Win32,60.84205403,,,,,,,,,
,,,,,,,,,,,,0,7,7,7,1,last,9,21,male,R,Donders,2021-07-16_14h18.13.666,ImageRatingTask_S4,2021.1.4,Win32,60.84205403,,,,,,,,,
,,,,,,,,,,,,,,,,,,9,21,male,R,Donders,2021-07-16_14h18.13.666,ImageRatingTask_S4,2021.1.4,Win32,60.84205403,0,59,59,153,1,DreamStudyImages_rs1000x750g/Vehicles/IAPS9622_planecrash2.jpg,,,
,,6,3.6639,1,0.9513,7,6.5069,1,4.1755,3,0.0336,0,0,0,0,1,main,9,21,male,R,Donders,2021-07-16_14h18.13.666,ImageRatingTask_S4,2021.1.4,Win32,60.84205403,,,,,,,,,
,,,,,,,,,,,,0,1,1,1,1,second,9,21,male,R,Donders,2021-07-16_14h18.13.666,ImageRatingTask_S4,2021.1.4,Win32,60.84205403,,,,,,,,,
,,,,,,,,,,,,0,2,2,2,1,third,9,21,male,R,Donders,2021-07-16_14h18.13.666,ImageRatingTask_S4,2021.1.4,Win32,60.84205403,,,,,,,,,
,,,,,,,,,,,,0,3,3,3,1,fourth,9,21,male,R,Donders,2021-07-16_14h18.13.666,ImageRatingTask_S4,2021.1.4,Win32,60.84205403,,,,,,,,,
,,,,,,,,,,,,0,4,4,4,1,fifth,9,21,male,R,Donders,2021-07-16_14h18.13.666,ImageRatingTask_S4,2021.1.4,Win32,60.84205403,,,,,,,,,
,,,,,,,,,,,,0,5,5,5,1,sixth,9,21,male,R,Donders,2021-07-16_14h18.13.666,ImageRatingTask_S4,2021.1.4,Win32,60.84205403,,,,,,,,,
,,,,,,,,,,,,0,6,6,6,1,seventh,9,21,male,R,Donders,2021-07-16_14h18.13.666,ImageRatingTask_S4,2021.1.4,Win32,60.84205403,,,,,,,,,
,,,,,,,,,,,,0,7,7,7,1,last,9,21,male,R,Donders,2021-07-16_14h18.13.666,ImageRatingTask_S4,2021.1.4,Win32,60.84205403,,,,,,,,,
,,,,,,,,,,,,,,,,,,9,21,male,R,Donders,2021-07-16_14h18.13.666,ImageRatingTask_S4,2021.1.4,Win32,60.84205403,0,60,60,61,1,DreamStudyImages_rs1000x750g/Mammals/Cat 10.jpg,,,
,,6,3.7475,1,0.6731,4,2.3675,1,0.7839,5,0.3674,0,0,0,0,1,main,9,21,male,R,Donders,2021-07-16_14h18.13.666,ImageRatingTask_S4,2021.1.4,Win32,60.84205403,,,,,,,,,
,,,,,,,,,,,,0,1,1,1,1,second,9,21,male,R,Donders,2021-07-16_14h18.13.666,ImageRatingTask_S4,2021.1.4,Win32,60.84205403,,,,,,,,,
,,,,,,,,,,,,0,2,2,2,1,third,9,21,male,R,Donders,2021-07-16_14h18.13.666,ImageRatingTask_S4,2021.1.4,Win32,60.84205403,,,,,,,,,
,,,,,,,,,,,,0,3,3,3,1,fourth,9,21,male,R,Donders,2021-07-16_14h18.13.666,ImageRatingTask_S4,2021.1.4,Win32,60.84205403,,,,,,,,,
,,,,,,,,,,,,0,4,4,4,1,fifth,9,21,male,R,Donders,2021-07-16_14h18.13.666,ImageRatingTask_S4,2021.1.4,Win32,60.84205403,,,,,,,,,
,,,,,,,,,,,,0,5,5,5,1,sixth,9,21,male,R,Donders,2021-07-16_14h18.13.666,ImageRatingTask_S4,2021.1.4,Win32,60.84205403,,,,,,,,,
,,,,,,,,,,,,0,6,6,6,1,seventh,9,21,male,R,Donders,2021-07-16_14h18.13.666,ImageRatingTask_S4,2021.1.4,Win32,60.84205403,,,,,,,,,
,,,,,,,,,,,,0,7,7,7,1,last,9,21,male,R,Donders,2021-07-16_14h18.13.666,ImageRatingTask_S4,2021.1.4,Win32,60.84205403,,,,,,,,,
,,,,,,,,,,,,,,,,,,9,21,male,R,Donders,2021-07-16_14h18.13.666,ImageRatingTask_S4,2021.1.4,Win32,60.84205403,0,61,61,40,1,DreamStudyImages_rs1000x750g/Food/Objects_014_h.jpg,,,
,,6,3.2218,1,0.5302,5,1.7444,2,1.557,2,0.1886,0,0,0,0,1,main,9,21,male,R,Donders,2021-07-16_14h18.13.666,ImageRatingTask_S4,2021.1.4,Win32,60.84205403,,,,,,,,,
,,,,,,,,,,1,0.0816,0,1,1,1,1,second,9,21,male,R,Donders,2021-07-16_14h18.13.666,ImageRatingTask_S4,2021.1.4,Win32,60.84205403,,,,,,,,,
,,,,,,,,,,,,0,2,2,2,1,third,9,21,male,R,Donders,2021-07-16_14h18.13.666,ImageRatingTask_S4,2021.1.4,Win32,60.84205403,,,,,,,,,
,,,,,,,,,,,,0,3,3,3,1,fourth,9,21,male,R,Donders,2021-07-16_14h18.13.666,ImageRatingTask_S4,2021.1.4,Win32,60.84205403,,,,,,,,,
,,,,,,,,,,,,0,4,4,4,1,fifth,9,21,male,R,Donders,2021-07-16_14h18.13.666,ImageRatingTask_S4,2021.1.4,Win32,60.84205403,,,,,,,,,
,,,,,,,,,,,,0,5,5,5,1,sixth,9,21,male,R,Donders,2021-07-16_14h18.13.666,ImageRatingTask_S4,2021.1.4,Win32,60.84205403,,,,,,,,,
,,,,,,,,,,,,0,6,6,6,1,seventh,9,21,male,R,Donders,2021-07-16_14h18.13.666,ImageRatingTask_S4,2021.1.4,Win32,60.84205403,,,,,,,,,
,,,,,,,,,,,,0,7,7,7,1,last,9,21,male,R,Donders,2021-07-16_14h18.13.666,ImageRatingTask_S4,2021.1.4,Win32,60.84205403,,,,,,,,,
,,,,,,,,,,,,,,,,,,9,21,male,R,Donders,2021-07-16_14h18.13.666,ImageRatingTask_S4,2021.1.4,Win32,60.84205403,0,62,62,89,1,DreamStudyImages_rs1000x750g/Children/IAPS2308_makeupgirl_humans.jpg,,,
,,7,3.0128,2,1.1182,4,1.3511,1,0.7179,8,0.1539,0,0,0,0,1,main,9,21,male,R,Donders,2021-07-16_14h18.13.666,ImageRatingTask_S4,2021.1.4,Win32,60.84205403,,,,,,,,,
,,,,,,,,,,,,0,1,1,1,1,second,9,21,male,R,Donders,2021-07-16_14h18.13.666,ImageRatingTask_S4,2021.1.4,Win32,60.84205403,,,,,,,,,
,,,,,,,,,,,,0,2,2,2,1,third,9,21,male,R,Donders,2021-07-16_14h18.13.666,ImageRatingTask_S4,2021.1.4,Win32,60.84205403,,,,,,,,,
,,,,,,,,,,,,0,3,3,3,1,fourth,9,21,male,R,Donders,2021-07-16_14h18.13.666,ImageRatingTask_S4,2021.1.4,Win32,60.84205403,,,,,,,,,
,,,,,,,,,,,,0,4,4,4,1,fifth,9,21,male,R,Donders,2021-07-16_14h18.13.666,ImageRatingTask_S4,2021.1.4,Win32,60.84205403,,,,,,,,,
,,,,,,,,,,,,0,5,5,5,1,sixth,9,21,male,R,Donders,2021-07-16_14h18.13.666,ImageRatingTask_S4,2021.1.4,Win32,60.84205403,,,,,,,,,
,,,,,,,,,,,,0,6,6,6,1,seventh,9,21,male,R,Donders,2021-07-16_14h18.13.666,ImageRatingTask_S4,2021.1.4,Win32,60.84205403,,,,,,,,,
,,,,,,,,,,,,0,7,7,7,1,last,9,21,male,R,Donders,2021-07-16_14h18.13.666,ImageRatingTask_S4,2021.1.4,Win32,60.84205403,,,,,,,,,
,,,,,,,,,,,,,,,,,,9,21,male,R,Donders,2021-07-16_14h18.13.666,ImageRatingTask_S4,2021.1.4,Win32,60.84205403,0,63,63,16,1,DreamStudyImages_rs1000x750g/Water/5270.jpg,,,
,,8,1.7788,1,1.8746,9,3.2717,1,2.6164,3,0.0424,0,0,0,0,1,main,9,21,male,R,Donders,2021-07-16_14h18.13.666,ImageRatingTask_S4,2021.1.4,Win32,60.84205403,,,,,,,,,
,,,,,,,,,,,,0,1,1,1,1,second,9,21,male,R,Donders,2021-07-16_14h18.13.666,ImageRatingTask_S4,2021.1.4,Win32,60.84205403,,,,,,,,,
,,,,,,,,,,,,0,2,2,2,1,third,9,21,male,R,Donders,2021-07-16_14h18.13.666,ImageRatingTask_S4,2021.1.4,Win32,60.84205403,,,,,,,,,
,,,,,,,,,,,,0,3,3,3,1,fourth,9,21,male,R,Donders,2021-07-16_14h18.13.666,ImageRatingTask_S4,2021.1.4,Win32,60.84205403,,,,,,,,,
,,,,,,,,,,,,0,4,4,4,1,fifth,9,21,male,R,Donders,2021-07-16_14h18.13.666,ImageRatingTask_S4,2021.1.4,Win32,60.84205403,,,,,,,,,
,,,,,,,,,,,,0,5,5,5,1,sixth,9,21,male,R,Donders,2021-07-16_14h18.13.666,ImageRatingTask_S4,2021.1.4,Win32,60.84205403,,,,,,,,,
,,,,,,,,,,,,0,6,6,6,1,seventh,9,21,male,R,Donders,2021-07-16_14h18.13.666,ImageRatingTask_S4,2021.1.4,Win32,60.84205403,,,,,,,,,
,,,,,,,,,,,,0,7,7,7,1,last,9,21,male,R,Donders,2021-07-16_14h18.13.666,ImageRatingTask_S4,2021.1.4,Win32,60.84205403,,,,,,,,,
,,,,,,,,,,,,,,,,,,9,21,male,R,Donders,2021-07-16_14h18.13.666,ImageRatingTask_S4,2021.1.4,Win32,60.84205403,0,64,64,62,1,DreamStudyImages_rs1000x750g/Mammals/Animals_175_h.jpg,,,
,,2,2.6731,3,5.1478,4,2.1162,1,1.9886,5,0.6955,0,0,0,0,1,main,9,21,male,R,Donders,2021-07-16_14h18.13.666,ImageRatingTask_S4,2021.1.4,Win32,60.84205403,,,,,,,,,
,,,,,,,,,,,,0,1,1,1,1,second,9,21,male,R,Donders,2021-07-16_14h18.13.666,ImageRatingTask_S4,2021.1.4,Win32,60.84205403,,,,,,,,,
,,,,,,,,,,,,0,2,2,2,1,third,9,21,male,R,Donders,2021-07-16_14h18.13.666,ImageRatingTask_S4,2021.1.4,Win32,60.84205403,,,,,,,,,
,,,,,,,,,,,,0,3,3,3,1,fourth,9,21,male,R,Donders,2021-07-16_14h18.13.666,ImageRatingTask_S4,2021.1.4,Win32,60.84205403,,,,,,,,,
,,,,,,,,,,,,0,4,4,4,1,fifth,9,21,male,R,Donders,2021-07-16_14h18.13.666,ImageRatingTask_S4,2021.1.4,Win32,60.84205403,,,,,,,,,
,,,,,,,,,,,,0,5,5,5,1,sixth,9,21,male,R,Donders,2021-07-16_14h18.13.666,ImageRatingTask_S4,2021.1.4,Win32,60.84205403,,,,,,,,,
,,,,,,,,,,,,0,6,6,6,1,seventh,9,21,male,R,Donders,2021-07-16_14h18.13.666,ImageRatingTask_S4,2021.1.4,Win32,60.84205403,,,,,,,,,
,,,,,,,,,,,,0,7,7,7,1,last,9,21,male,R,Donders,2021-07-16_14h18.13.666,ImageRatingTask_S4,2021.1.4,Win32,60.84205403,,,,,,,,,
,,,,,,,,,,,,,,,,,,9,21,male,R,Donders,2021-07-16_14h18.13.666,ImageRatingTask_S4,2021.1.4,Win32,60.84205403,0,65,65,144,1,DreamStudyImages_rs1000x750g/Food/Objects_106_v.jpg,,,
,,7,4.436,1,0.8399,4,4.6276,1,1.3216,8,0.2074,0,0,0,0,1,main,9,21,male,R,Donders,2021-07-16_14h18.13.666,ImageRatingTask_S4,2021.1.4,Win32,60.84205403,,,,,,,,,
,,,,,,,,,,,,0,1,1,1,1,second,9,21,male,R,Donders,2021-07-16_14h18.13.666,ImageRatingTask_S4,2021.1.4,Win32,60.84205403,,,,,,,,,
,,,,,,,,,,,,0,2,2,2,1,third,9,21,male,R,Donders,2021-07-16_14h18.13.666,ImageRatingTask_S4,2021.1.4,Win32,60.84205403,,,,,,,,,
,,,,,,,,,,,,0,3,3,3,1,fourth,9,21,male,R,Donders,2021-07-16_14h18.13.666,ImageRatingTask_S4,2021.1.4,Win32,60.84205403,,,,,,,,,
,,,,,,,,,,,,0,4,4,4,1,fifth,9,21,male,R,Donders,2021-07-16_14h18.13.666,ImageRatingTask_S4,2021.1.4,Win32,60.84205403,,,,,,,,,
,,,,,,,,,,,,0,5,5,5,1,sixth,9,21,male,R,Donders,2021-07-16_14h18.13.666,ImageRatingTask_S4,2021.1.4,Win32,60.84205403,,,,,,,,,
,,,,,,,,,,,,0,6,6,6,1,seventh,9,21,male,R,Donders,2021-07-16_14h18.13.666,ImageRatingTask_S4,2021.1.4,Win32,60.84205403,,,,,,,,,
,,,,,,,,,,,,0,7,7,7,1,last,9,21,male,R,Donders,2021-07-16_14h18.13.666,ImageRatingTask_S4,2021.1.4,Win32,60.84205403,,,,,,,,,
,,,,,,,,,,,,,,,,,,9,21,male,R,Donders,2021-07-16_14h18.13.666,ImageRatingTask_S4,2021.1.4,Win32,60.84205403,0,66,66,50,1,DreamStudyImages_rs1000x750g/Water/Lake 5.jpg,,,
,,2,2.3877,6,1.6223,6,2.426,0,4.0275,,,0,0,0,0,1,main,9,21,male,R,Donders,2021-07-16_14h18.13.666,ImageRatingTask_S4,2021.1.4,Win32,60.84205403,,,,,,,,,
,,,,,,,,,,,,0,1,1,1,1,second,9,21,male,R,Donders,2021-07-16_14h18.13.666,ImageRatingTask_S4,2021.1.4,Win32,60.84205403,,,,,,,,,
,,,,,,,,,,,,0,2,2,2,1,third,9,21,male,R,Donders,2021-07-16_14h18.13.666,ImageRatingTask_S4,2021.1.4,Win32,60.84205403,,,,,,,,,
,,,,,,,,,,,,0,3,3,3,1,fourth,9,21,male,R,Donders,2021-07-16_14h18.13.666,ImageRatingTask_S4,2021.1.4,Win32,60.84205403,,,,,,,,,
,,,,,,,,,,,,0,4,4,4,1,fifth,9,21,male,R,Donders,2021-07-16_14h18.13.666,ImageRatingTask_S4,2021.1.4,Win32,60.84205403,,,,,,,,,
,,,,,,,,,,,,0,5,5,5,1,sixth,9,21,male,R,Donders,2021-07-16_14h18.13.666,ImageRatingTask_S4,2021.1.4,Win32,60.84205403,,,,,,,,,
,,,,,,,,,,,,0,6,6,6,1,seventh,9,21,male,R,Donders,2021-07-16_14h18.13.666,ImageRatingTask_S4,2021.1.4,Win32,60.84205403,,,,,,,,,
,,,,,,,,,,,,0,7,7,7,1,last,9,21,male,R,Donders,2021-07-16_14h18.13.666,ImageRatingTask_S4,2021.1.4,Win32,60.84205403,,,,,,,,,
,,,,,,,,,,,,,,,,,,9,21,male,R,Donders,2021-07-16_14h18.13.666,ImageRatingTask_S4,2021.1.4,Win32,60.84205403,0,67,67,32,1,DreamStudyImages_rs1000x750g/Vehicles/Landscapes_028_h.jpg,,,
,,3,5.0891,3,1.0314,3,6.1375,1,1.1503,5,0.1965,0,0,0,0,1,main,9,21,male,R,Donders,2021-07-16_14h18.13.666,ImageRatingTask_S4,2021.1.4,Win32,60.84205403,,,,,,,,,
,,,,,,,,,,,,0,1,1,1,1,second,9,21,male,R,Donders,2021-07-16_14h18.13.666,ImageRatingTask_S4,2021.1.4,Win32,60.84205403,,,,,,,,,
,,,,,,,,,,,,0,2,2,2,1,third,9,21,male,R,Donders,2021-07-16_14h18.13.666,ImageRatingTask_S4,2021.1.4,Win32,60.84205403,,,,,,,,,
,,,,,,,,,,,,0,3,3,3,1,fourth,9,21,male,R,Donders,2021-07-16_14h18.13.666,ImageRatingTask_S4,2021.1.4,Win32,60.84205403,,,,,,,,,
,,,,,,,,,,,,0,4,4,4,1,fifth,9,21,male,R,Donders,2021-07-16_14h18.13.666,ImageRatingTask_S4,2021.1.4,Win32,60.84205403,,,,,,,,,
,,,,,,,,,,,,0,5,5,5,1,sixth,9,21,male,R,Donders,2021-07-16_14h18.13.666,ImageRatingTask_S4,2021.1.4,Win32,60.84205403,,,,,,,,,
,,,,,,,,,,,,0,6,6,6,1,seventh,9,21,male,R,Donders,2021-07-16_14h18.13.666,ImageRatingTask_S4,2021.1.4,Win32,60.84205403,,,,,,,,,
,,,,,,,,,,,,0,7,7,7,1,last,9,21,male,R,Donders,2021-07-16_14h18.13.666,ImageRatingTask_S4,2021.1.4,Win32,60.84205403,,,,,,,,,
,,,,,,,,,,,,,,,,,,9,21,male,R,Donders,2021-07-16_14h18.13.666,ImageRatingTask_S4,2021.1.4,Win32,60.84205403,0,68,68,74,1,DreamStudyImages_rs1000x750g/Food/Objects_083_h.jpg,,,
,,6,4.1532,1,1.1435,5,1.658,0,1.0959,,,0,0,0,0,1,main,9,21,male,R,Donders,2021-07-16_14h18.13.666,ImageRatingTask_S4,2021.1.4,Win32,60.84205403,,,,,,,,,
,,,,,,,,,,,,0,1,1,1,1,second,9,21,male,R,Donders,2021-07-16_14h18.13.666,ImageRatingTask_S4,2021.1.4,Win32,60.84205403,,,,,,,,,
,,,,,,,,,,,,0,2,2,2,1,third,9,21,male,R,Donders,2021-07-16_14h18.13.666,ImageRatingTask_S4,2021.1.4,Win32,60.84205403,,,,,,,,,
,,,,,,,,,,,,0,3,3,3,1,fourth,9,21,male,R,Donders,2021-07-16_14h18.13.666,ImageRatingTask_S4,2021.1.4,Win32,60.84205403,,,,,,,,,
,,,,,,,,,,,,0,4,4,4,1,fifth,9,21,male,R,Donders,2021-07-16_14h18.13.666,ImageRatingTask_S4,2021.1.4,Win32,60.84205403,,,,,,,,,
,,,,,,,,,,,,0,5,5,5,1,sixth,9,21,male,R,Donders,2021-07-16_14h18.13.666,ImageRatingTask_S4,2021.1.4,Win32,60.84205403,,,,,,,,,
,,,,,,,,,,,,0,6,6,6,1,seventh,9,21,male,R,Donders,2021-07-16_14h18.13.666,ImageRatingTask_S4,2021.1.4,Win32,60.84205403,,,,,,,,,
,,,,,,,,,,,,0,7,7,7,1,last,9,21,male,R,Donders,2021-07-16_14h18.13.666,ImageRatingTask_S4,2021.1.4,Win32,60.84205403,,,,,,,,,
,,,,,,,,,,,,,,,,,,9,21,male,R,Donders,2021-07-16_14h18.13.666,ImageRatingTask_S4,2021.1.4,Win32,60.84205403,0,69,69,42,1,DreamStudyImages_rs1000x750g/Food/Objects_023_v.jpg,,,
,,6,5.2755,1,1.7382,2,0.4879,2,3.7021,2,0.2561,0,0,0,0,1,main,9,21,male,R,Donders,2021-07-16_14h18.13.666,ImageRatingTask_S4,2021.1.4,Win32,60.84205403,,,,,,,,,
,,,,,,,,,,1,0.0675,0,1,1,1,1,second,9,21,male,R,Donders,2021-07-16_14h18.13.666,ImageRatingTask_S4,2021.1.4,Win32,60.84205403,,,,,,,,,
,,,,,,,,,,,,0,2,2,2,1,third,9,21,male,R,Donders,2021-07-16_14h18.13.666,ImageRatingTask_S4,2021.1.4,Win32,60.84205403,,,,,,,,,
,,,,,,,,,,,,0,3,3,3,1,fourth,9,21,male,R,Donders,2021-07-16_14h18.13.666,ImageRatingTask_S4,2021.1.4,Win32,60.84205403,,,,,,,,,
,,,,,,,,,,,,0,4,4,4,1,fifth,9,21,male,R,Donders,2021-07-16_14h18.13.666,ImageRatingTask_S4,2021.1.4,Win32,60.84205403,,,,,,,,,
,,,,,,,,,,,,0,5,5,5,1,sixth,9,21,male,R,Donders,2021-07-16_14h18.13.666,ImageRatingTask_S4,2021.1.4,Win32,60.84205403,,,,,,,,,
,,,,,,,,,,,,0,6,6,6,1,seventh,9,21,male,R,Donders,2021-07-16_14h18.13.666,ImageRatingTask_S4,2021.1.4,Win32,60.84205403,,,,,,,,,
,,,,,,,,,,,,0,7,7,7,1,last,9,21,male,R,Donders,2021-07-16_14h18.13.666,ImageRatingTask_S4,2021.1.4,Win32,60.84205403,,,,,,,,,
,,,,,,,,,,,,,,,,,,9,21,male,R,Donders,2021-07-16_14h18.13.666,ImageRatingTask_S4,2021.1.4,Win32,60.84205403,0,70,70,14,1,DreamStudyImages_rs1000x750g/Children/Child labor 3.jpg,,,
,,2,3.7656,1,2.4994,4,2.3945,1,1.1023,6,0.7137,0,0,0,0,1,main,9,21,male,R,Donders,2021-07-16_14h18.13.666,ImageRatingTask_S4,2021.1.4,Win32,60.84205403,,,,,,,,,
,,,,,,,,,,,,0,1,1,1,1,second,9,21,male,R,Donders,2021-07-16_14h18.13.666,ImageRatingTask_S4,2021.1.4,Win32,60.84205403,,,,,,,,,
,,,,,,,,,,,,0,2,2,2,1,third,9,21,male,R,Donders,2021-07-16_14h18.13.666,ImageRatingTask_S4,2021.1.4,Win32,60.84205403,,,,,,,,,
,,,,,,,,,,,,0,3,3,3,1,fourth,9,21,male,R,Donders,2021-07-16_14h18.13.666,ImageRatingTask_S4,2021.1.4,Win32,60.84205403,,,,,,,,,
,,,,,,,,,,,,0,4,4,4,1,fifth,9,21,male,R,Donders,2021-07-16_14h18.13.666,ImageRatingTask_S4,2021.1.4,Win32,60.84205403,,,,,,,,,
,,,,,,,,,,,,0,5,5,5,1,sixth,9,21,male,R,Donders,2021-07-16_14h18.13.666,ImageRatingTask_S4,2021.1.4,Win32,60.84205403,,,,,,,,,
,,,,,,,,,,,,0,6,6,6,1,seventh,9,21,male,R,Donders,2021-07-16_14h18.13.666,ImageRatingTask_S4,2021.1.4,Win32,60.84205403,,,,,,,,,
,,,,,,,,,,,,0,7,7,7,1,last,9,21,male,R,Donders,2021-07-16_14h18.13.666,ImageRatingTask_S4,2021.1.4,Win32,60.84205403,,,,,,,,,
,,,,,,,,,,,,,,,,,,9,21,male,R,Donders,2021-07-16_14h18.13.666,ImageRatingTask_S4,2021.1.4,Win32,60.84205403,0,71,71,0,1,DreamStudyImages_rs1000x750g/Houses/Landscapes_041_h.jpg,,,
,,3,36.6248,1,0.8906,2,3.3179,1,3.3775,3,0.608,0,0,0,0,1,main,9,21,male,R,Donders,2021-07-16_14h18.13.666,ImageRatingTask_S4,2021.1.4,Win32,60.84205403,,,,,,,,,
,,,,,,,,,,,,0,1,1,1,1,second,9,21,male,R,Donders,2021-07-16_14h18.13.666,ImageRatingTask_S4,2021.1.4,Win32,60.84205403,,,,,,,,,
,,,,,,,,,,,,0,2,2,2,1,third,9,21,male,R,Donders,2021-07-16_14h18.13.666,ImageRatingTask_S4,2021.1.4,Win32,60.84205403,,,,,,,,,
,,,,,,,,,,,,0,3,3,3,1,fourth,9,21,male,R,Donders,2021-07-16_14h18.13.666,ImageRatingTask_S4,2021.1.4,Win32,60.84205403,,,,,,,,,
,,,,,,,,,,,,0,4,4,4,1,fifth,9,21,male,R,Donders,2021-07-16_14h18.13.666,ImageRatingTask_S4,2021.1.4,Win32,60.84205403,,,,,,,,,
,,,,,,,,,,,,0,5,5,5,1,sixth,9,21,male,R,Donders,2021-07-16_14h18.13.666,ImageRatingTask_S4,2021.1.4,Win32,60.84205403,,,,,,,,,
,,,,,,,,,,,,0,6,6,6,1,seventh,9,21,male,R,Donders,2021-07-16_14h18.13.666,ImageRatingTask_S4,2021.1.4,Win32,60.84205403,,,,,,,,,
,,,,,,,,,,,,0,7,7,7,1,last,9,21,male,R,Donders,2021-07-16_14h18.13.666,ImageRatingTask_S4,2021.1.4,Win32,60.84205403,,,,,,,,,
,,,,,,,,,,,,,,,,,,9,21,male,R,Donders,2021-07-16_14h18.13.666,ImageRatingTask_S4,2021.1.4,Win32,60.84205403,0,72,72,24,1,DreamStudyImages_rs1000x750g/Mammals/Bear 2.jpg,,,
,,8,48.4926,1,0.8102,8,1.5103,0,2.6756,,,0,0,0,0,1,main,9,21,male,R,Donders,2021-07-16_14h18.13.666,ImageRatingTask_S4,2021.1.4,Win32,60.84205403,,,,,,,,,
,,,,,,,,,,,,0,1,1,1,1,second,9,21,male,R,Donders,2021-07-16_14h18.13.666,ImageRatingTask_S4,2021.1.4,Win32,60.84205403,,,,,,,,,
,,,,,,,,,,,,0,2,2,2,1,third,9,21,male,R,Donders,2021-07-16_14h18.13.666,ImageRatingTask_S4,2021.1.4,Win32,60.84205403,,,,,,,,,
,,,,,,,,,,,,0,3,3,3,1,fourth,9,21,male,R,Donders,2021-07-16_14h18.13.666,ImageRatingTask_S4,2021.1.4,Win32,60.84205403,,,,,,,,,
,,,,,,,,,,,,0,4,4,4,1,fifth,9,21,male,R,Donders,2021-07-16_14h18.13.666,ImageRatingTask_S4,2021.1.4,Win32,60.84205403,,,,,,,,,
,,,,,,,,,,,,0,5,5,5,1,sixth,9,21,male,R,Donders,2021-07-16_14h18.13.666,ImageRatingTask_S4,2021.1.4,Win32,60.84205403,,,,,,,,,
,,,,,,,,,,,,0,6,6,6,1,seventh,9,21,male,R,Donders,2021-07-16_14h18.13.666,ImageRatingTask_S4,2021.1.4,Win32,60.84205403,,,,,,,,,
,,,,,,,,,,,,0,7,7,7,1,last,9,21,male,R,Donders,2021-07-16_14h18.13.666,ImageRatingTask_S4,2021.1.4,Win32,60.84205403,,,,,,,,,
,,,,,,,,,,,,,,,,,,9,21,male,R,Donders,2021-07-16_14h18.13.666,ImageRatingTask_S4,2021.1.4,Win32,60.84205403,0,73,73,85,1,DreamStudyImages_rs1000x750g/Houses/Wedding 12.jpg,,,
,,4,2.6488,1,0.3229,6,1.5056,1,0.8577,6,0.9887,0,0,0,0,1,main,9,21,male,R,Donders,2021-07-16_14h18.13.666,ImageRatingTask_S4,2021.1.4,Win32,60.84205403,,,,,,,,,
,,,,,,,,,,,,0,1,1,1,1,second,9,21,male,R,Donders,2021-07-16_14h18.13.666,ImageRatingTask_S4,2021.1.4,Win32,60.84205403,,,,,,,,,
,,,,,,,,,,,,0,2,2,2,1,third,9,21,male,R,Donders,2021-07-16_14h18.13.666,ImageRatingTask_S4,2021.1.4,Win32,60.84205403,,,,,,,,,
,,,,,,,,,,,,0,3,3,3,1,fourth,9,21,male,R,Donders,2021-07-16_14h18.13.666,ImageRatingTask_S4,2021.1.4,Win32,60.84205403,,,,,,,,,
,,,,,,,,,,,,0,4,4,4,1,fifth,9,21,male,R,Donders,2021-07-16_14h18.13.666,ImageRatingTask_S4,2021.1.4,Win32,60.84205403,,,,,,,,,
,,,,,,,,,,,,0,5,5,5,1,sixth,9,21,male,R,Donders,2021-07-16_14h18.13.666,ImageRatingTask_S4,2021.1.4,Win32,60.84205403,,,,,,,,,
,,,,,,,,,,,,0,6,6,6,1,seventh,9,21,male,R,Donders,2021-07-16_14h18.13.666,ImageRatingTask_S4,2021.1.4,Win32,60.84205403,,,,,,,,,
,,,,,,,,,,,,0,7,7,7,1,last,9,21,male,R,Donders,2021-07-16_14h18.13.666,ImageRatingTask_S4,2021.1.4,Win32,60.84205403,,,,,,,,,
,,,,,,,,,,,,,,,,,,9,21,male,R,Donders,2021-07-16_14h18.13.666,ImageRatingTask_S4,2021.1.4,Win32,60.84205403,0,74,74,80,1,DreamStudyImages_rs1000x750g/Houses/Landscapes_067_h.jpg,,,
,,7,2.7333,1,0.692,3,1.5711,1,0.948,3,1.1093,0,0,0,0,1,main,9,21,male,R,Donders,2021-07-16_14h18.13.666,ImageRatingTask_S4,2021.1.4,Win32,60.84205403,,,,,,,,,
,,,,,,,,,,,,0,1,1,1,1,second,9,21,male,R,Donders,2021-07-16_14h18.13.666,ImageRatingTask_S4,2021.1.4,Win32,60.84205403,,,,,,,,,
,,,,,,,,,,,,0,2,2,2,1,third,9,21,male,R,Donders,2021-07-16_14h18.13.666,ImageRatingTask_S4,2021.1.4,Win32,60.84205403,,,,,,,,,
,,,,,,,,,,,,0,3,3,3,1,fourth,9,21,male,R,Donders,2021-07-16_14h18.13.666,ImageRatingTask_S4,2021.1.4,Win32,60.84205403,,,,,,,,,
,,,,,,,,,,,,0,4,4,4,1,fifth,9,21,male,R,Donders,2021-07-16_14h18.13.666,ImageRatingTask_S4,2021.1.4,Win32,60.84205403,,,,,,,,,
,,,,,,,,,,,,0,5,5,5,1,sixth,9,21,male,R,Donders,2021-07-16_14h18.13.666,ImageRatingTask_S4,2021.1.4,Win32,60.84205403,,,,,,,,,
,,,,,,,,,,,,0,6,6,6,1,seventh,9,21,male,R,Donders,2021-07-16_14h18.13.666,ImageRatingTask_S4,2021.1.4,Win32,60.84205403,,,,,,,,,
,,,,,,,,,,,,0,7,7,7,1,last,9,21,male,R,Donders,2021-07-16_14h18.13.666,ImageRatingTask_S4,2021.1.4,Win32,60.84205403,,,,,,,,,
,,,,,,,,,,,,,,,,,,9,21,male,R,Donders,2021-07-16_14h18.13.666,ImageRatingTask_S4,2021.1.4,Win32,60.84205403,0,75,75,67,1,DreamStudyImages_rs1000x750g/Mammals/1440.jpg,,,
,,2,1.8621,9,0.5527,3,1.4705,1,0.759,2,0.1509,0,0,0,0,1,main,9,21,male,R,Donders,2021-07-16_14h18.13.666,ImageRatingTask_S4,2021.1.4,Win32,60.84205403,,,,,,,,,
,,,,,,,,,,,,0,1,1,1,1,second,9,21,male,R,Donders,2021-07-16_14h18.13.666,ImageRatingTask_S4,2021.1.4,Win32,60.84205403,,,,,,,,,
,,,,,,,,,,,,0,2,2,2,1,third,9,21,male,R,Donders,2021-07-16_14h18.13.666,ImageRatingTask_S4,2021.1.4,Win32,60.84205403,,,,,,,,,
,,,,,,,,,,,,0,3,3,3,1,fourth,9,21,male,R,Donders,2021-07-16_14h18.13.666,ImageRatingTask_S4,2021.1.4,Win32,60.84205403,,,,,,,,,
,,,,,,,,,,,,0,4,4,4,1,fifth,9,21,male,R,Donders,2021-07-16_14h18.13.666,ImageRatingTask_S4,2021.1.4,Win32,60.84205403,,,,,,,,,
,,,,,,,,,,,,0,5,5,5,1,sixth,9,21,male,R,Donders,2021-07-16_14h18.13.666,ImageRatingTask_S4,2021.1.4,Win32,60.84205403,,,,,,,,,
,,,,,,,,,,,,0,6,6,6,1,seventh,9,21,male,R,Donders,2021-07-16_14h18.13.666,ImageRatingTask_S4,2021.1.4,Win32,60.84205403,,,,,,,,,
,,,,,,,,,,,,0,7,7,7,1,last,9,21,male,R,Donders,2021-07-16_14h18.13.666,ImageRatingTask_S4,2021.1.4,Win32,60.84205403,,,,,,,,,
,,,,,,,,,,,,,,,,,,9,21,male,R,Donders,2021-07-16_14h18.13.666,ImageRatingTask_S4,2021.1.4,Win32,60.84205403,0,76,76,97,1,DreamStudyImages_rs1000x750g/Children/Faces_025_h.jpg,,,
,,8,1.4909,1,0.6414,7,1.9899,1,0.9525,3,0.8286,0,0,0,0,1,main,9,21,male,R,Donders,2021-07-16_14h18.13.666,ImageRatingTask_S4,2021.1.4,Win32,60.84205403,,,,,,,,,
,,,,,,,,,,,,0,1,1,1,1,second,9,21,male,R,Donders,2021-07-16_14h18.13.666,ImageRatingTask_S4,2021.1.4,Win32,60.84205403,,,,,,,,,
,,,,,,,,,,,,0,2,2,2,1,third,9,21,male,R,Donders,2021-07-16_14h18.13.666,ImageRatingTask_S4,2021.1.4,Win32,60.84205403,,,,,,,,,
,,,,,,,,,,,,0,3,3,3,1,fourth,9,21,male,R,Donders,2021-07-16_14h18.13.666,ImageRatingTask_S4,2021.1.4,Win32,60.84205403,,,,,,,,,
,,,,,,,,,,,,0,4,4,4,1,fifth,9,21,male,R,Donders,2021-07-16_14h18.13.666,ImageRatingTask_S4,2021.1.4,Win32,60.84205403,,,,,,,,,
,,,,,,,,,,,,0,5,5,5,1,sixth,9,21,male,R,Donders,2021-07-16_14h18.13.666,ImageRatingTask_S4,2021.1.4,Win32,60.84205403,,,,,,,,,
,,,,,,,,,,,,0,6,6,6,1,seventh,9,21,male,R,Donders,2021-07-16_14h18.13.666,ImageRatingTask_S4,2021.1.4,Win32,60.84205403,,,,,,,,,
,,,,,,,,,,,,0,7,7,7,1,last,9,21,male,R,Donders,2021-07-16_14h18.13.666,ImageRatingTask_S4,2021.1.4,Win32,60.84205403,,,,,,,,,
,,,,,,,,,,,,,,,,,,9,21,male,R,Donders,2021-07-16_14h18.13.666,ImageRatingTask_S4,2021.1.4,Win32,60.84205403,0,77,77,82,1,DreamStudyImages_rs1000x750g/Mammals/Chipmunk 1.jpg,,,
,,7,4.0707,1,0.6474,6,2.8945,1,0.7617,8,0.2023,0,0,0,0,1,main,9,21,male,R,Donders,2021-07-16_14h18.13.666,ImageRatingTask_S4,2021.1.4,Win32,60.84205403,,,,,,,,,
,,,,,,,,,,,,0,1,1,1,1,second,9,21,male,R,Donders,2021-07-16_14h18.13.666,ImageRatingTask_S4,2021.1.4,Win32,60.84205403,,,,,,,,,
,,,,,,,,,,,,0,2,2,2,1,third,9,21,male,R,Donders,2021-07-16_14h18.13.666,ImageRatingTask_S4,2021.1.4,Win32,60.84205403,,,,,,,,,
,,,,,,,,,,,,0,3,3,3,1,fourth,9,21,male,R,Donders,2021-07-16_14h18.13.666,ImageRatingTask_S4,2021.1.4,Win32,60.84205403,,,,,,,,,
,,,,,,,,,,,,0,4,4,4,1,fifth,9,21,male,R,Donders,2021-07-16_14h18.13.666,ImageRatingTask_S4,2021.1.4,Win32,60.84205403,,,,,,,,,
,,,,,,,,,,,,0,5,5,5,1,sixth,9,21,male,R,Donders,2021-07-16_14h18.13.666,ImageRatingTask_S4,2021.1.4,Win32,60.84205403,,,,,,,,,
,,,,,,,,,,,,0,6,6,6,1,seventh,9,21,male,R,Donders,2021-07-16_14h18.13.666,ImageRatingTask_S4,2021.1.4,Win32,60.84205403,,,,,,,,,
,,,,,,,,,,,,0,7,7,7,1,last,9,21,male,R,Donders,2021-07-16_14h18.13.666,ImageRatingTask_S4,2021.1.4,Win32,60.84205403,,,,,,,,,
,,,,,,,,,,,,,,,,,,9,21,male,R,Donders,2021-07-16_14h18.13.666,ImageRatingTask_S4,2021.1.4,Win32,60.84205403,0,78,78,124,1,DreamStudyImages_rs1000x750g/Water/wavybeach.jpg,,,
,,7,1.3912,1,1.3407,4,0.5049,1,0.678,8,0.0881,0,0,0,0,1,main,9,21,male,R,Donders,2021-07-16_14h18.13.666,ImageRatingTask_S4,2021.1.4,Win32,60.84205403,,,,,,,,,
,,,,,,,,,,,,0,1,1,1,1,second,9,21,male,R,Donders,2021-07-16_14h18.13.666,ImageRatingTask_S4,2021.1.4,Win32,60.84205403,,,,,,,,,
,,,,,,,,,,,,0,2,2,2,1,third,9,21,male,R,Donders,2021-07-16_14h18.13.666,ImageRatingTask_S4,2021.1.4,Win32,60.84205403,,,,,,,,,
,,,,,,,,,,,,0,3,3,3,1,fourth,9,21,male,R,Donders,2021-07-16_14h18.13.666,ImageRatingTask_S4,2021.1.4,Win32,60.84205403,,,,,,,,,
,,,,,,,,,,,,0,4,4,4,1,fifth,9,21,male,R,Donders,2021-07-16_14h18.13.666,ImageRatingTask_S4,2021.1.4,Win32,60.84205403,,,,,,,,,
,,,,,,,,,,,,0,5,5,5,1,sixth,9,21,male,R,Donders,2021-07-16_14h18.13.666,ImageRatingTask_S4,2021.1.4,Win32,60.84205403,,,,,,,,,
,,,,,,,,,,,,0,6,6,6,1,seventh,9,21,male,R,Donders,2021-07-16_14h18.13.666,ImageRatingTask_S4,2021.1.4,Win32,60.84205403,,,,,,,,,
,,,,,,,,,,,,0,7,7,7,1,last,9,21,male,R,Donders,2021-07-16_14h18.13.666,ImageRatingTask_S4,2021.1.4,Win32,60.84205403,,,,,,,,,
,,,,,,,,,,,,,,,,,,9,21,male,R,Donders,2021-07-16_14h18.13.666,ImageRatingTask_S4,2021.1.4,Win32,60.84205403,0,79,79,19,1,DreamStudyImages_rs1000x750g/Water/Sunset 4.jpg,,,
,,3,1.843,1,0.5063,6,1.8037,1,1.8567,6,0.2921,0,0,0,0,1,main,9,21,male,R,Donders,2021-07-16_14h18.13.666,ImageRatingTask_S4,2021.1.4,Win32,60.84205403,,,,,,,,,
,,,,,,,,,,,,0,1,1,1,1,second,9,21,male,R,Donders,2021-07-16_14h18.13.666,ImageRatingTask_S4,2021.1.4,Win32,60.84205403,,,,,,,,,
,,,,,,,,,,,,0,2,2,2,1,third,9,21,male,R,Donders,2021-07-16_14h18.13.666,ImageRatingTask_S4,2021.1.4,Win32,60.84205403,,,,,,,,,
,,,,,,,,,,,,0,3,3,3,1,fourth,9,21,male,R,Donders,2021-07-16_14h18.13.666,ImageRatingTask_S4,2021.1.4,Win32,60.84205403,,,,,,,,,
,,,,,,,,,,,,0,4,4,4,1,fifth,9,21,male,R,Donders,2021-07-16_14h18.13.666,ImageRatingTask_S4,2021.1.4,Win32,60.84205403,,,,,,,,,
,,,,,,,,,,,,0,5,5,5,1,sixth,9,21,male,R,Donders,2021-07-16_14h18.13.666,ImageRatingTask_S4,2021.1.4,Win32,60.84205403,,,,,,,,,
,,,,,,,,,,,,0,6,6,6,1,seventh,9,21,male,R,Donders,2021-07-16_14h18.13.666,ImageRatingTask_S4,2021.1.4,Win32,60.84205403,,,,,,,,,
